mode,type,rt,acc,item_1,item_2,item_cue,subj_idx,item_1_number,item_2_number,item_cue_number,trial_type,similarity,similarity_bin,ams,pams,slps,ams_quantile,pams_quantile,slps_quantile,ams_bin,pam_bin,slp_bin
perc,resp,687,1,1.3.3left.bmp,1.3.3right.bmp,,ACC021,"[-2, 2, 2]","[-2, 2, 2]",[],match,1.0,,-0.8111364105696399,0.9545446383568559,-2.349000578658148,1st,4th,1st,-1.2448627063770197,1.261180345269208,-1.4092803045534497
perc,resp,862,1,3.2.2left.bmp,3.2.2right.bmp,,ACC021,"[2, 0, 0]","[2, 0, 0]",[],match,1.0,,0.9122391909285751,0.9333012637468708,-2.0069539918446235,4th,4th,1st,1.2310375064099197,1.261180345269208,-1.4092803045534497
perc,resp,1151,0,2.3.1left.bmp,3.3.1right.bmp,,ACC021,"[0, 2, -2]","[2, 2, -2]",[],non-match,0.7113248654051871,4,0.9600710640388979,-0.25761374759007843,-2.380839759824954,4th,2nd,1st,1.2310375064099197,-0.34211005067159656,-1.4092803045534497
perc,resp,878,1,3.1.3left.bmp,1.3.2right.bmp,,ACC021,"[2, -2, 2]","[-2, 2, 0]",[],non-match,0.1339745962155613,1,-0.11809737968358633,-1.5998146761905503,-2.1515297868362997,2nd,1st,1st,-0.3049756814719136,-1.206448639709364,-1.4092803045534497
perc,resp,844,1,3.2.1left.bmp,2.3.3right.bmp,,ACC021,"[2, 0, -2]","[0, 2, 2]",[],non-match,0.29289321881345254,1,0.957236250973002,0.7773689810581718,-2.24283632697558,4th,4th,1st,1.2310375064099197,1.261180345269208,-1.4092803045534497
perc,resp,779,1,1.3.1left.bmp,1.3.1right.bmp,,ACC021,"[-2, 2, -2]","[-2, 2, -2]",[],match,1.0,,-0.6273805056371804,-0.10737115140390951,-2.209907644782005,1st,2nd,1st,-1.2448627063770197,-0.34211005067159656,-1.4092803045534497
perc,resp,998,0,2.1.2left.bmp,3.1.2right.bmp,,ACC021,"[0, -2, 0]","[2, -2, 0]",[],non-match,0.7113248654051871,4,-1.7005424226717774,-0.7666635914037377,-2.1260456435926174,1st,1st,1st,-1.2448627063770197,-1.206448639709364,-1.4092803045534497
perc,resp,895,1,2.2.3left.bmp,2.2.3right.bmp,,ACC021,"[0, 0, 2]","[0, 0, 2]",[],match,1.0,,-0.762592150985618,-0.6993048119850441,-1.7443894737536778,1st,1st,1st,-1.2448627063770197,-1.206448639709364,-1.4092803045534497
perc,resp,1243,1,1.2.1left.bmp,1.2.1right.bmp,,ACC021,"[-2, 0, -2]","[-2, 0, -2]",[],match,1.0,,-0.25094424159892753,-0.2220499097332629,-1.9885076108763067,2nd,2nd,1st,-0.3049756814719136,-0.34211005067159656,-1.4092803045534497
perc,resp,1376,1,3.1.1left.bmp,3.1.1right.bmp,,ACC021,"[2, -2, -2]","[2, -2, -2]",[],match,1.0,,-1.3253064107915382,0.29494174465650064,-2.067169717188246,1st,3rd,1st,-1.2448627063770197,0.2873783451117508,-1.4092803045534497
perc,resp,1196,1,2.2.1left.bmp,1.1.2right.bmp,,ACC021,"[0, 0, -2]","[-2, -2, 0]",[],non-match,0.5,3,-0.9769629642941629,-0.8075420392720076,-2.1575891969720957,1st,1st,1st,-1.2448627063770197,-1.206448639709364,-1.4092803045534497
perc,resp,983,0,2.1.1left.bmp,1.1.1right.bmp,,ACC021,"[0, -2, -2]","[-2, -2, -2]",[],non-match,0.7113248654051871,4,-0.05687355414298055,-0.18809434679755765,-2.2097113769347967,2nd,2nd,1st,-0.3049756814719136,-0.34211005067159656,-1.4092803045534497
perc,resp,1171,1,2.3.3left.bmp,2.3.3right.bmp,,ACC021,"[0, 2, 2]","[0, 2, 2]",[],match,1.0,,0.5457115859079903,-1.6892014024361417,-2.081170747924873,3rd,1st,1st,0.31880088143901353,-1.206448639709364,-1.4092803045534497
perc,resp,878,1,1.1.3left.bmp,1.3.1right.bmp,,ACC021,"[-2, -2, 2]","[-2, 2, -2]",[],non-match,0.18350341907227385,1,-0.6117855397495434,0.7285954518954714,-2.0888044503885106,1st,4th,1st,-1.2448627063770197,1.261180345269208,-1.4092803045534497
perc,resp,1005,1,1.1.2left.bmp,1.1.2right.bmp,,ACC021,"[-2, -2, 0]","[-2, -2, 0]",[],match,1.0,,-0.5777592509656956,-1.8182339562891077,-1.870551635921292,2nd,1st,1st,-0.3049756814719136,-1.206448639709364,-1.4092803045534497
perc,resp,1273,1,3.1.2left.bmp,3.1.2right.bmp,,ACC021,"[2, -2, 0]","[2, -2, 0]",[],match,1.0,,0.0033901232249649513,0.873646102434577,-1.5759104241156598,3rd,4th,1st,0.31880088143901353,1.261180345269208,-1.4092803045534497
perc,resp,952,1,1.2.2left.bmp,2.3.1right.bmp,,ACC021,"[-2, 0, 0]","[0, 2, -2]",[],non-match,0.5,3,-1.3764735398423258,0.48113890209935567,-1.3116947149303855,1st,3rd,1st,-1.2448627063770197,0.2873783451117508,-1.4092803045534497
perc,resp,909,1,3.2.3left.bmp,3.2.3right.bmp,,ACC021,"[2, 0, 2]","[2, 0, 2]",[],match,1.0,,-0.1345078029039462,1.8147897465442984,-1.202007081095885,2nd,4th,1st,-0.3049756814719136,1.261180345269208,-1.4092803045534497
perc,resp,1247,1,3.3.3left.bmp,1.3.3right.bmp,,ACC021,"[2, 2, 2]","[-2, 2, 2]",[],non-match,0.42264973081037416,2,1.0468329001907686,0.024364032611406253,-1.3817289594345317,4th,3rd,1st,1.2310375064099197,0.2873783451117508,-1.4092803045534497
perc,resp,1438,1,1.2.3left.bmp,1.2.1right.bmp,,ACC021,"[-2, 0, 2]","[-2, 0, -2]",[],non-match,0.42264973081037416,2,-1.94880147721043,-1.1662500169103562,-1.412229988229522,1st,1st,1st,-1.2448627063770197,-1.206448639709364,-1.4092803045534497
perc,resp,1542,1,1.1.1left.bmp,3.1.2right.bmp,,ACC021,"[-2, -2, -2]","[2, -2, 0]",[],non-match,0.3545027756320971,2,-1.7619060548825156,0.7879767394426652,-1.1895904536445983,1st,4th,1st,-1.2448627063770197,1.261180345269208,-1.4092803045534497
perc,resp,1231,1,1.3.2left.bmp,1.3.2right.bmp,,ACC021,"[-2, 2, 0]","[-2, 2, 0]",[],match,1.0,,-1.0588109807876043,0.420272585468405,-1.0403916845257661,1st,3rd,1st,-1.2448627063770197,0.2873783451117508,-1.4092803045534497
perc,resp,1040,1,3.3.1left.bmp,3.3.1right.bmp,,ACC021,"[2, 2, -2]","[2, 2, -2]",[],match,1.0,,-0.8848371783109272,-0.8393068763928081,-1.0379421434058773,1st,1st,1st,-1.2448627063770197,-1.206448639709364,-1.4092803045534497
perc,resp,1005,1,3.3.2left.bmp,3.3.2right.bmp,,ACC021,"[2, 2, 0]","[2, 2, 0]",[],match,1.0,,-2.3600224524532396,0.12202246943961897,-0.9527790890438976,1st,3rd,1st,-1.2448627063770197,0.2873783451117508,-1.4092803045534497
perc,resp,1014,1,2.3.2left.bmp,1.1.2right.bmp,,ACC021,"[0, 2, 0]","[-2, -2, 0]",[],non-match,0.3545027756320971,2,-0.24063435981727713,0.34099662341598397,-1.2264139542456618,2nd,3rd,1st,-0.3049756814719136,0.2873783451117508,-1.4092803045534497
perc,resp,1032,1,2.1.3left.bmp,3.2.1right.bmp,,ACC021,"[0, -2, 2]","[2, 0, -2]",[],non-match,0.29289321881345254,1,-0.27927228361194145,1.3977026797431669,-1.0187475539569961,2nd,4th,1st,-0.3049756814719136,1.261180345269208,-1.4092803045534497
perc,resp,929,0,2.2.2left.bmp,2.2.2right.bmp,,ACC021,"[0, 0, 0]","[0, 0, 0]",[],match,1.0,,-2.2021713672984204,-0.13571787900939103,-0.9913964756199193,1st,2nd,1st,-1.2448627063770197,-0.34211005067159656,-1.4092803045534497
perc,resp,1510,0,3.3.3left.bmp,3.2.2right.bmp,,ACC021,"[2, 2, 2]","[2, 0, 0]",[],non-match,0.5917517095361369,3,-1.8808361338356077,-0.9248520552614496,-1.190310169940605,1st,1st,1st,-1.2448627063770197,-1.206448639709364,-1.4092803045534497
perc,resp,867,1,2.3.3left.bmp,2.3.3right.bmp,,ACC021,"[0, 2, 2]","[0, 2, 2]",[],match,1.0,,-1.1340479265450014,-0.5995938020315784,-1.0498381620813957,1st,2nd,1st,-1.2448627063770197,-0.34211005067159656,-1.4092803045534497
perc,resp,1286,0,1.3.1left.bmp,1.3.1right.bmp,,ACC021,"[-2, 2, -2]","[-2, 2, -2]",[],match,1.0,,-0.5644483551267141,-1.060486127816945,-0.991205314255764,2nd,1st,1st,-0.3049756814719136,-1.206448639709364,-1.4092803045534497
perc,resp,1085,1,2.1.1left.bmp,1.1.3right.bmp,,ACC021,"[0, -2, -2]","[-2, -2, 2]",[],non-match,0.3545027756320971,2,-1.272599746602389,-1.6703599010103864,-1.0485648690813787,1st,1st,1st,-1.2448627063770197,-1.206448639709364,-1.4092803045534497
perc,resp,872,0,1.2.2left.bmp,2.2.1right.bmp,,ACC021,"[-2, 0, 0]","[0, 0, -2]",[],non-match,0.5917517095361369,3,-1.0791075585274277,-0.423239263846999,-0.986543934479637,1st,2nd,1st,-1.2448627063770197,-0.34211005067159656,-1.4092803045534497
perc,resp,1120,1,1.3.2left.bmp,2.1.2right.bmp,,ACC021,"[-2, 2, 0]","[0, -2, 0]",[],non-match,0.3545027756320971,2,-0.9304899804395341,-0.5206463722026844,-0.643986158266764,1st,2nd,2nd,-1.2448627063770197,-0.34211005067159656,-0.19932940219347278
perc,resp,1553,1,1.3.3left.bmp,1.3.3right.bmp,,ACC021,"[-2, 2, 2]","[-2, 2, 2]",[],match,1.0,,0.4056449420441158,-1.1279915573597126,-0.2193920590371538,3rd,1st,2nd,0.31880088143901353,-1.206448639709364,-0.19932940219347278
perc,resp,860,0,3.1.1left.bmp,3.1.1right.bmp,,ACC021,"[2, -2, -2]","[2, -2, -2]",[],match,1.0,,0.004081551342757674,0.2049232810759383,-0.051530784308521475,3rd,3rd,2nd,0.31880088143901353,0.2873783451117508,-0.19932940219347278
perc,resp,1339,0,2.2.1left.bmp,2.2.2right.bmp,,ACC021,"[0, 0, -2]","[0, 0, 0]",[],non-match,0.7113248654051871,4,-1.3619420641386473,-1.3130080157822075,0.14893246901203142,1st,1st,2nd,-1.2448627063770197,-1.206448639709364,-0.19932940219347278
perc,resp,1512,0,2.1.3left.bmp,3.1.2right.bmp,,ACC021,"[0, -2, 2]","[2, -2, 0]",[],non-match,0.5917517095361369,3,-0.48571722430200853,-0.5579391406202239,0.09019008367170785,2nd,2nd,2nd,-0.3049756814719136,-0.34211005067159656,-0.19932940219347278
perc,resp,1403,0,2.2.3left.bmp,2.3.2right.bmp,,ACC021,"[0, 0, 2]","[0, 2, 0]",[],non-match,0.5917517095361369,3,-1.9463479016705594,-2.303952015792423,0.06063715686115408,1st,1st,2nd,-1.2448627063770197,-1.206448639709364,-0.19932940219347278
perc,resp,1422,0,3.3.1left.bmp,3.3.1right.bmp,,ACC021,"[2, 2, -2]","[2, 2, -2]",[],match,1.0,,-0.7198751674971903,0.2817457708264,0.05851233505120241,1st,3rd,2nd,-1.2448627063770197,0.2873783451117508,-0.19932940219347278
perc,resp,1677,1,2.3.1left.bmp,2.3.1right.bmp,,ACC021,"[0, 2, -2]","[0, 2, -2]",[],match,1.0,,-1.9839914163715482,-1.0047630386495479,0.04714219223410375,1st,1st,2nd,-1.2448627063770197,-1.206448639709364,-0.19932940219347278
perc,resp,1247,0,3.1.3left.bmp,3.1.3right.bmp,,ACC021,"[2, -2, 2]","[2, -2, 2]",[],match,1.0,,-0.35449579247179075,-0.1877798492168861,0.035725150554601445,2nd,2nd,2nd,-0.3049756814719136,-0.34211005067159656,-0.19932940219347278
perc,resp,1248,1,2.3.2left.bmp,2.3.3right.bmp,,ACC021,"[0, 2, 0]","[0, 2, 2]",[],non-match,0.7113248654051871,4,-0.846560204094816,-1.4830979645685634,-0.021984172362894894,1st,1st,2nd,-1.2448627063770197,-1.206448639709364,-0.19932940219347278
perc,resp,1045,1,1.1.3left.bmp,1.2.1right.bmp,,ACC021,"[-2, -2, 2]","[-2, 0, -2]",[],non-match,0.3545027756320971,2,-1.0100923264017156,-0.5607552406057542,-0.027078567319527205,1st,2nd,2nd,-1.2448627063770197,-0.34211005067159656,-0.19932940219347278
perc,resp,1156,1,3.2.3left.bmp,3.2.3right.bmp,,ACC021,"[2, 0, 2]","[2, 0, 2]",[],match,1.0,,-1.075629033343893,-1.022279647323751,0.020392991261937703,1st,1st,2nd,-1.2448627063770197,-1.206448639709364,-0.19932940219347278
perc,resp,1125,1,1.2.3left.bmp,2.2.3right.bmp,,ACC021,"[-2, 0, 2]","[0, 0, 2]",[],non-match,0.7113248654051871,4,-0.8320530342080082,1.5063937202463784,0.08550435664790818,1st,4th,2nd,-1.2448627063770197,1.261180345269208,-0.19932940219347278
perc,resp,1164,1,2.2.2left.bmp,3.3.1right.bmp,,ACC021,"[0, 0, 0]","[2, 2, -2]",[],non-match,0.5,3,-0.7193193172122108,0.04124852731474251,-0.026569582528435762,1st,3rd,2nd,-1.2448627063770197,0.2873783451117508,-0.19932940219347278
perc,resp,1041,1,1.2.1left.bmp,2.2.1right.bmp,,ACC021,"[-2, 0, -2]","[0, 0, -2]",[],non-match,0.7113248654051871,4,-0.5556542594590987,0.4645626937882338,0.003735691730449018,2nd,3rd,2nd,-0.3049756814719136,0.2873783451117508,-0.19932940219347278
perc,resp,1120,1,3.3.2left.bmp,2.1.1right.bmp,,ACC021,"[2, 2, 0]","[0, -2, -2]",[],non-match,0.29289321881345254,1,-1.0838555910651346,-0.08355800989956698,0.20270781460049878,1st,2nd,3rd,-1.2448627063770197,-0.34211005067159656,0.4579822807781889
perc,resp,957,1,3.2.1left.bmp,3.2.1right.bmp,,ACC021,"[2, 0, -2]","[2, 0, -2]",[],match,1.0,,0.011399225428962014,0.03485988388130484,0.19833869045311386,3rd,3rd,3rd,0.31880088143901353,0.2873783451117508,0.4579822807781889
perc,resp,1276,1,3.2.2left.bmp,3.2.2right.bmp,,ACC021,"[2, 0, 0]","[2, 0, 0]",[],match,1.0,,0.36003133550920174,0.2002476041273591,0.32237538905470997,3rd,3rd,3rd,0.31880088143901353,0.2873783451117508,0.4579822807781889
perc,resp,1375,0,3.1.2left.bmp,3.1.3right.bmp,,ACC021,"[2, -2, 0]","[2, -2, 2]",[],non-match,0.7113248654051871,4,-1.496400658198322,-0.9902603034520735,0.317145094551712,1st,1st,3rd,-1.2448627063770197,-1.206448639709364,0.4579822807781889
perc,resp,935,0,1.1.2left.bmp,1.1.2right.bmp,,ACC021,"[-2, -2, 0]","[-2, -2, 0]",[],match,1.0,,1.082620393643247,0.33854645493767277,0.31421126850652664,4th,3rd,3rd,1.2310375064099197,0.2873783451117508,0.4579822807781889
perc,resp,1343,1,2.1.2left.bmp,2.1.2right.bmp,,ACC021,"[0, -2, 0]","[0, -2, 0]",[],match,1.0,,-0.1422698063488811,0.06817318349989764,0.2301126793739063,2nd,3rd,3rd,-0.3049756814719136,0.2873783451117508,0.4579822807781889
perc,resp,1013,1,1.1.1left.bmp,3.2.1right.bmp,,ACC021,"[-2, -2, -2]","[2, 0, -2]",[],non-match,0.3545027756320971,2,-0.38648305661795895,-1.4145504921152154,0.5466429254295984,2nd,1st,3rd,-0.3049756814719136,-1.206448639709364,0.4579822807781889
perc,resp,1391,0,1.2.3left.bmp,1.2.3right.bmp,,ACC021,"[-2, 0, 2]","[-2, 0, 2]",[],match,1.0,,-1.2833296948401554,-0.30774150085067603,0.5605272802292289,1st,2nd,3rd,-1.2448627063770197,-0.34211005067159656,0.4579822807781889
perc,resp,1043,1,1.1.3left.bmp,1.1.3right.bmp,,ACC021,"[-2, -2, 2]","[-2, -2, 2]",[],match,1.0,,0.1159485236208869,1.111292040415915,0.8315996115004042,3rd,4th,4th,0.31880088143901353,1.261180345269208,1.1506274259687324
perc,resp,1117,1,2.1.2left.bmp,2.1.2right.bmp,,ACC021,"[0, -2, 0]","[0, -2, 0]",[],match,1.0,,-0.5760929548330459,1.1479821385389364,0.817850401852604,2nd,4th,4th,-0.3049756814719136,1.261180345269208,1.1506274259687324
perc,resp,812,1,1.1.2left.bmp,3.2.2right.bmp,,ACC021,"[-2, -2, 0]","[2, 0, 0]",[],non-match,0.3545027756320971,2,0.5776460794986543,0.44964088177634387,0.6721538170915167,3rd,3rd,3rd,0.31880088143901353,0.2873783451117508,0.4579822807781889
perc,resp,709,0,1.3.3left.bmp,1.3.3right.bmp,,ACC021,"[-2, 2, 2]","[-2, 2, 2]",[],match,1.0,,0.41254691762888623,0.008524973432558295,0.39235531365802484,3rd,3rd,3rd,0.31880088143901353,0.2873783451117508,0.4579822807781889
perc,resp,1231,0,2.1.3left.bmp,2.1.3right.bmp,,ACC021,"[0, -2, 2]","[0, -2, 2]",[],match,1.0,,-0.03809647062593233,-0.6657665748372217,0.6473973585705186,2nd,2nd,3rd,-0.3049756814719136,-0.34211005067159656,0.4579822807781889
perc,resp,1198,1,2.1.1left.bmp,1.1.1right.bmp,,ACC021,"[0, -2, -2]","[-2, -2, -2]",[],non-match,0.7113248654051871,4,-0.5629170137256305,-1.3136926522895136,0.8555682389965715,2nd,1st,4th,-0.3049756814719136,-1.206448639709364,1.1506274259687324
perc,resp,1007,0,2.3.2left.bmp,2.3.2right.bmp,,ACC021,"[0, 2, 0]","[0, 2, 0]",[],match,1.0,,-0.5424886940728807,-0.7295367410097856,1.0124122580243173,2nd,1st,4th,-0.3049756814719136,-1.206448639709364,1.1506274259687324
perc,resp,1186,1,2.2.3left.bmp,3.1.1right.bmp,,ACC021,"[0, 0, 2]","[2, -2, -2]",[],non-match,0.29289321881345254,1,0.22717041065928995,-1.1451034691119264,1.193343571334656,3rd,1st,4th,0.31880088143901353,-1.206448639709364,1.1506274259687324
perc,resp,1407,1,3.3.3left.bmp,3.3.3right.bmp,,ACC021,"[2, 2, 2]","[2, 2, 2]",[],match,1.0,,-3.80065432250049,-4.167845635881557,1.3322509309176076,1st,1st,4th,-1.2448627063770197,-1.206448639709364,1.1506274259687324
perc,resp,984,1,3.1.3left.bmp,1.1.3right.bmp,,ACC021,"[2, -2, 2]","[-2, -2, 2]",[],non-match,0.42264973081037416,2,0.8616410946491118,0.7707221636296088,1.3450344068506765,4th,4th,4th,1.2310375064099197,1.261180345269208,1.1506274259687324
perc,resp,830,0,3.2.3left.bmp,3.2.3right.bmp,,ACC021,"[2, 0, 2]","[2, 0, 2]",[],match,1.0,,0.9689269766808437,1.2028769921560918,0.9788464006065735,4th,4th,4th,1.2310375064099197,1.261180345269208,1.1506274259687324
perc,resp,1024,1,3.2.2left.bmp,3.2.2right.bmp,,ACC021,"[2, 0, 0]","[2, 0, 0]",[],match,1.0,,-0.4123633463990555,-0.49621359196556886,0.716892800044365,2nd,2nd,4th,-0.3049756814719136,-0.34211005067159656,1.1506274259687324
perc,resp,851,0,3.3.1left.bmp,3.3.1right.bmp,,ACC021,"[2, 2, -2]","[2, 2, -2]",[],match,1.0,,1.1186440872987473,1.072344875699143,0.5776156911691754,4th,4th,3rd,1.2310375064099197,1.261180345269208,0.4579822807781889
perc,resp,1200,0,2.3.1left.bmp,3.2.1right.bmp,,ACC021,"[0, 2, -2]","[2, 0, -2]",[],non-match,0.5917517095361369,3,-0.3954973914079021,-1.2687942307443763,0.6941791444188891,2nd,1st,3rd,-0.3049756814719136,-1.206448639709364,0.4579822807781889
perc,resp,795,0,2.2.2left.bmp,2.2.2right.bmp,,ACC021,"[0, 0, 0]","[0, 0, 0]",[],match,1.0,,1.2600552383869237,-0.8062102283137369,0.9002961717562794,4th,1st,4th,1.2310375064099197,-1.206448639709364,1.1506274259687324
perc,resp,992,1,2.2.1left.bmp,2.2.1right.bmp,,ACC021,"[0, 0, -2]","[0, 0, -2]",[],match,1.0,,-0.24975915023723044,-0.7182177222551209,0.9052937864020654,2nd,1st,4th,-0.3049756814719136,-1.206448639709364,1.1506274259687324
perc,resp,946,0,1.2.2left.bmp,1.3.3right.bmp,,ACC021,"[-2, 0, 0]","[-2, 2, 2]",[],non-match,0.5917517095361369,3,-0.21042386703066857,0.9396608335322086,0.7249664480670772,2nd,4th,4th,-0.3049756814719136,1.261180345269208,1.1506274259687324
perc,resp,851,1,2.3.1left.bmp,2.3.1right.bmp,,ACC021,"[0, 2, -2]","[0, 2, -2]",[],match,1.0,,-1.9222001079403965,-1.5685070634839138,0.5290721213797485,1st,1st,3rd,-1.2448627063770197,-1.206448639709364,0.4579822807781889
perc,resp,948,1,1.1.2left.bmp,1.1.2right.bmp,,ACC021,"[-2, -2, 0]","[-2, -2, 0]",[],match,1.0,,-1.0604426826131803,-0.867536067168199,0.4242971604982181,1st,1st,3rd,-1.2448627063770197,-1.206448639709364,0.4579822807781889
perc,resp,844,1,1.2.1left.bmp,1.2.1right.bmp,,ACC021,"[-2, 0, -2]","[-2, 0, -2]",[],match,1.0,,-0.46825373315219,0.683084091771918,0.42336032238860766,2nd,3rd,3rd,-0.3049756814719136,0.2873783451117508,0.4579822807781889
perc,resp,801,1,3.3.2left.bmp,3.3.2right.bmp,,ACC021,"[2, 2, 0]","[2, 2, 0]",[],match,1.0,,-0.6293664831691831,-0.6843130646341795,0.7130325600672537,1st,1st,4th,-1.2448627063770197,-1.206448639709364,1.1506274259687324
perc,resp,988,1,1.2.3left.bmp,1.2.3right.bmp,,ACC021,"[-2, 0, 2]","[-2, 0, 2]",[],match,1.0,,0.45359249303703236,-0.33648984125877135,0.5236256204566703,3rd,2nd,3rd,0.31880088143901353,-0.34211005067159656,0.4579822807781889
perc,resp,1005,1,2.1.1left.bmp,2.1.1right.bmp,,ACC021,"[0, -2, -2]","[0, -2, -2]",[],match,1.0,,0.7774470746069262,0.7318026453091211,0.48894791920053976,4th,4th,3rd,1.2310375064099197,1.261180345269208,0.4579822807781889
perc,resp,981,1,2.1.2left.bmp,2.1.2right.bmp,,ACC021,"[0, -2, 0]","[0, -2, 0]",[],match,1.0,,0.17904099684943262,-0.07058479307508914,0.5810561247857511,3rd,2nd,3rd,0.31880088143901353,-0.34211005067159656,0.4579822807781889
perc,resp,1472,1,2.2.2left.bmp,1.2.2right.bmp,,ACC021,"[0, 0, 0]","[-2, 0, 0]",[],non-match,0.7113248654051871,4,0.008401994979438951,-0.042071103437747656,0.9434523270180842,3rd,2nd,4th,0.31880088143901353,-0.34211005067159656,1.1506274259687324
perc,resp,1253,0,2.2.1left.bmp,3.2.3right.bmp,,ACC021,"[0, 0, -2]","[2, 0, 2]",[],non-match,0.3545027756320971,2,-0.4276345398262427,-0.9522826086167029,1.0447625478960165,2nd,1st,4th,-0.3049756814719136,-1.206448639709364,1.1506274259687324
perc,resp,870,1,3.1.1left.bmp,1.1.1right.bmp,,ACC021,"[2, -2, -2]","[-2, -2, -2]",[],non-match,0.42264973081037416,2,1.3260365852794003,0.9359962323421818,0.9992243038933419,4th,4th,4th,1.2310375064099197,1.261180345269208,1.1506274259687324
perc,resp,1056,1,2.3.3left.bmp,2.3.3right.bmp,,ACC021,"[0, 2, 2]","[0, 2, 2]",[],match,1.0,,1.047938866026941,0.44340706873433156,0.754466025056634,4th,3rd,4th,1.2310375064099197,0.2873783451117508,1.1506274259687324
perc,resp,943,1,3.3.1left.bmp,1.2.3right.bmp,,ACC021,"[2, 2, -2]","[-2, 0, 2]",[],non-match,0.1339745962155613,1,0.4149745279716023,-0.2068667256249561,0.5035012339433794,3rd,2nd,3rd,0.31880088143901353,-0.34211005067159656,0.4579822807781889
perc,resp,1030,1,1.3.3left.bmp,2.2.2right.bmp,,ACC021,"[-2, 2, 2]","[0, 0, 0]",[],non-match,0.5,3,-1.8858167900413016,-0.20071320871287815,0.32907175332310196,1st,2nd,3rd,-1.2448627063770197,-0.34211005067159656,0.4579822807781889
perc,resp,895,1,1.3.1left.bmp,1.1.2right.bmp,,ACC021,"[-2, 2, -2]","[-2, -2, 0]",[],non-match,0.3545027756320971,2,-0.38418546636359563,0.9481447354924271,0.3073444941302608,2nd,4th,3rd,-0.3049756814719136,1.261180345269208,0.4579822807781889
perc,resp,792,1,3.1.3left.bmp,1.2.2right.bmp,,ACC021,"[2, -2, 2]","[-2, 0, 0]",[],non-match,0.29289321881345254,1,0.7417613838874666,-0.10714083524978146,0.39535362673967905,4th,2nd,3rd,1.2310375064099197,-0.34211005067159656,0.4579822807781889
perc,resp,776,0,1.1.1left.bmp,1.1.1right.bmp,,ACC021,"[-2, -2, -2]","[-2, -2, -2]",[],match,1.0,,0.6189492379780579,0.29063366434225907,0.40990067665018665,3rd,3rd,3rd,0.31880088143901353,0.2873783451117508,0.4579822807781889
perc,resp,743,1,3.2.3left.bmp,1.3.2right.bmp,,ACC021,"[2, 0, 2]","[-2, 2, 0]",[],non-match,0.29289321881345254,1,1.1341668596689,1.2592864242557085,0.6398668584733379,4th,4th,3rd,1.2310375064099197,1.261180345269208,0.4579822807781889
perc,resp,879,1,3.3.3left.bmp,2.1.3right.bmp,,ACC021,"[2, 2, 2]","[0, -2, 2]",[],non-match,0.3545027756320971,2,0.21803240667004103,1.1866849260281345,0.5871056874976657,3rd,4th,3rd,0.31880088143901353,1.261180345269208,0.4579822807781889
perc,resp,814,1,1.1.3left.bmp,3.3.2right.bmp,,ACC021,"[-2, -2, 2]","[2, 2, 0]",[],non-match,0.1339745962155613,1,0.6643642774230064,0.49704282194405575,0.3464120381856033,3rd,3rd,3rd,0.31880088143901353,0.2873783451117508,0.4579822807781889
perc,resp,931,0,3.2.1left.bmp,3.3.1right.bmp,,ACC021,"[2, 0, -2]","[2, 2, -2]",[],non-match,0.7113248654051871,4,0.36977130931038416,0.3331711602934571,0.2247402796615137,3rd,3rd,3rd,0.31880088143901353,0.2873783451117508,0.4579822807781889
perc,resp,849,1,1.3.2left.bmp,1.3.2right.bmp,,ACC021,"[-2, 2, 0]","[-2, 2, 0]",[],match,1.0,,-1.407629925460176,-1.83318903780513,0.3068596637240773,1st,1st,3rd,-1.2448627063770197,-1.206448639709364,0.4579822807781889
perc,resp,926,0,3.1.2left.bmp,3.1.2right.bmp,,ACC021,"[2, -2, 0]","[2, -2, 0]",[],match,1.0,,-0.1969511414193906,-0.5174213117107475,0.02198309383351626,2nd,2nd,2nd,-0.3049756814719136,-0.34211005067159656,-0.19932940219347278
perc,resp,790,1,3.2.2left.bmp,1.3.1right.bmp,,ACC021,"[2, 0, 0]","[-2, 2, -2]",[],non-match,0.29289321881345254,1,0.259167762876518,1.1503389541762576,0.4029998433794306,3rd,4th,3rd,0.31880088143901353,1.261180345269208,0.4579822807781889
perc,resp,1049,0,2.1.3left.bmp,2.1.3right.bmp,,ACC021,"[0, -2, 2]","[0, -2, 2]",[],match,1.0,,0.2872315609472046,-0.36771898319803964,0.2844443720842992,3rd,2nd,3rd,0.31880088143901353,-0.34211005067159656,0.4579822807781889
perc,resp,922,1,2.2.3left.bmp,2.2.3right.bmp,,ACC021,"[0, 0, 2]","[0, 0, 2]",[],match,1.0,,0.08304132171324745,0.38903490644883126,0.33298701196630087,3rd,3rd,3rd,0.31880088143901353,0.2873783451117508,0.4579822807781889
perc,resp,879,1,3.2.2left.bmp,3.2.2right.bmp,,ACC021,"[2, 0, 0]","[2, 0, 0]",[],match,1.0,,-0.37497207713069675,-1.4519455774732564,0.3088146371119854,2nd,1st,3rd,-0.3049756814719136,-1.206448639709364,0.4579822807781889
perc,resp,1024,1,2.2.1left.bmp,2.2.1right.bmp,,ACC021,"[0, 0, -2]","[0, 0, -2]",[],match,1.0,,-0.21161858175131598,-0.709529670424064,0.38447461564379254,2nd,1st,3rd,-0.3049756814719136,-1.206448639709364,0.4579822807781889
perc,resp,1123,1,3.1.1left.bmp,3.1.1right.bmp,,ACC021,"[2, -2, -2]","[2, -2, -2]",[],match,1.0,,-0.6447553579212131,0.33604226233507395,0.6261310412482729,1st,3rd,3rd,-1.2448627063770197,0.2873783451117508,0.4579822807781889
perc,resp,1182,1,1.1.3left.bmp,1.3.1right.bmp,,ACC021,"[-2, -2, 2]","[-2, 2, -2]",[],non-match,0.18350341907227385,1,-0.8122622443864803,-0.682930348361145,0.6017116055048316,1st,2nd,3rd,-1.2448627063770197,-0.34211005067159656,0.4579822807781889
perc,resp,1321,1,3.1.3left.bmp,3.1.3right.bmp,,ACC021,"[2, -2, 2]","[2, -2, 2]",[],match,1.0,,-1.354088530222151,-1.020966496361442,0.5070984293659825,1st,1st,3rd,-1.2448627063770197,-1.206448639709364,0.4579822807781889
perc,resp,1018,1,1.1.1left.bmp,2.1.2right.bmp,,ACC021,"[-2, -2, -2]","[0, -2, 0]",[],non-match,0.5917517095361369,3,0.1988992029036216,0.33413984138696196,0.9592839709861867,3rd,3rd,4th,0.31880088143901353,0.2873783451117508,1.1506274259687324
perc,resp,995,0,1.3.2left.bmp,1.3.2right.bmp,,ACC021,"[-2, 2, 0]","[-2, 2, 0]",[],match,1.0,,-0.9188495906675607,0.979453935686326,0.8446411620944007,1st,4th,4th,-1.2448627063770197,1.261180345269208,1.1506274259687324
perc,resp,1224,1,2.1.3left.bmp,2.2.1right.bmp,,ACC021,"[0, -2, 2]","[0, 0, -2]",[],non-match,0.3545027756320971,2,0.27320445843391483,-0.023450066164003417,0.8644913382558306,3rd,2nd,4th,0.31880088143901353,-0.34211005067159656,1.1506274259687324
perc,resp,893,0,2.3.2left.bmp,3.1.2right.bmp,,ACC021,"[0, 2, 0]","[2, -2, 0]",[],non-match,0.3545027756320971,2,-0.6443060740721122,-0.9290820728305436,0.9551748701000037,1st,1st,4th,-1.2448627063770197,-1.206448639709364,1.1506274259687324
perc,resp,697,1,1.2.3left.bmp,3.3.1right.bmp,,ACC021,"[-2, 0, 2]","[2, 2, -2]",[],non-match,0.1339745962155613,1,1.4069188846079255,0.7996332636058845,0.6799751490096024,4th,4th,3rd,1.2310375064099197,1.261180345269208,0.4579822807781889
perc,resp,759,1,2.2.2left.bmp,2.2.2right.bmp,,ACC021,"[0, 0, 0]","[0, 0, 0]",[],match,1.0,,0.2171243066691802,-1.0515114824997451,0.6987002804236102,3rd,1st,4th,0.31880088143901353,-1.206448639709364,1.1506274259687324
perc,resp,945,0,2.3.3left.bmp,2.2.3right.bmp,,ACC021,"[0, 2, 2]","[0, 0, 2]",[],non-match,0.7113248654051871,4,0.07223907369773752,0.6230620738817835,0.9156547282450167,3rd,3rd,4th,0.31880088143901353,0.2873783451117508,1.1506274259687324
perc,resp,1094,1,3.3.2left.bmp,3.2.1right.bmp,,ACC021,"[2, 2, 0]","[2, 0, -2]",[],non-match,0.5917517095361369,3,-0.3570197056815092,-1.0107332462103569,0.9924406628073942,2nd,1st,4th,-0.3049756814719136,-1.206448639709364,1.1506274259687324
perc,resp,1051,1,3.2.3left.bmp,2.2.1right.bmp,,ACC021,"[2, 0, 2]","[0, 0, -2]",[],non-match,0.3545027756320971,2,-1.2701180740258537,-0.5337773796445763,1.0154618854806348,1st,2nd,4th,-1.2448627063770197,-0.34211005067159656,1.1506274259687324
perc,resp,1027,1,1.3.1left.bmp,1.3.1right.bmp,,ACC021,"[-2, 2, -2]","[-2, 2, -2]",[],match,1.0,,-0.3503384495153236,-0.6381811671378212,0.6789155788093795,2nd,2nd,3rd,-0.3049756814719136,-0.34211005067159656,0.4579822807781889
perc,resp,892,1,2.1.1left.bmp,1.2.1right.bmp,,ACC021,"[0, -2, -2]","[-2, 0, -2]",[],non-match,0.5917517095361369,3,0.37753344427625424,0.9930925954546285,0.7094036085712093,3rd,4th,4th,0.31880088143901353,1.261180345269208,1.1506274259687324
perc,resp,1011,0,3.2.1left.bmp,1.2.2right.bmp,,ACC021,"[2, 0, -2]","[-2, 0, 0]",[],non-match,0.3545027756320971,2,0.7022658888324276,0.11215799208408979,0.5584631257705047,4th,3rd,3rd,1.2310375064099197,0.2873783451117508,0.4579822807781889
perc,resp,1008,1,2.3.1left.bmp,1.2.3right.bmp,,ACC021,"[0, 2, -2]","[-2, 0, 2]",[],non-match,0.29289321881345254,1,0.5953306449118637,-0.3994837145964832,0.419777027767169,3rd,2nd,3rd,0.31880088143901353,-0.34211005067159656,0.4579822807781889
perc,resp,1025,0,3.3.3left.bmp,3.1.3right.bmp,,ACC021,"[2, 2, 2]","[2, -2, 2]",[],non-match,0.42264973081037416,2,-0.19564212933469968,-1.3497205782541213,0.5494357933024803,2nd,1st,3rd,-0.3049756814719136,-1.206448639709364,0.4579822807781889
perc,resp,659,0,3.1.2left.bmp,3.1.2right.bmp,,ACC021,"[2, -2, 0]","[2, -2, 0]",[],match,1.0,,-0.8756547610300704,-0.9283552316280498,0.9288270098689027,1st,1st,4th,-1.2448627063770197,-1.206448639709364,1.1506274259687324
perc,resp,673,1,2.1.2left.bmp,3.2.2right.bmp,,ACC021,"[0, -2, 0]","[2, 0, 0]",[],non-match,0.5917517095361369,3,1.1107541093952602,-0.13441252507089105,0.9469200968383615,4th,2nd,4th,1.2310375064099197,-0.34211005067159656,1.1506274259687324
perc,resp,728,1,3.3.1left.bmp,1.1.3right.bmp,,ACC021,"[2, 2, -2]","[-2, -2, 2]",[],non-match,0.0,1,1.6737968762093014,1.1143160169853583,0.8793028717937788,4th,4th,4th,1.2310375064099197,1.261180345269208,1.1506274259687324
perc,resp,684,1,1.2.1left.bmp,3.3.3right.bmp,,ACC021,"[-2, 0, -2]","[2, 2, 2]",[],non-match,0.1339745962155613,1,0.8386356801763128,-0.18510591937056362,0.6653232838081367,4th,2nd,3rd,1.2310375064099197,-0.34211005067159656,0.4579822807781889
perc,resp,779,1,2.2.3left.bmp,1.1.1right.bmp,,ACC021,"[0, 0, 2]","[-2, -2, -2]",[],non-match,0.29289321881345254,1,-0.4473615749060278,0.005932396939736676,0.7195948047719426,2nd,3rd,4th,-0.3049756814719136,0.2873783451117508,1.1506274259687324
perc,resp,813,1,1.2.2left.bmp,2.3.1right.bmp,,ACC021,"[-2, 0, 0]","[0, 2, -2]",[],non-match,0.5,3,-0.4220102013044114,-0.675100471330225,0.4861772372016285,2nd,2nd,3rd,-0.3049756814719136,-0.34211005067159656,0.4579822807781889
perc,resp,1102,0,1.3.3left.bmp,1.3.3right.bmp,,ACC021,"[-2, 2, 2]","[-2, 2, 2]",[],match,1.0,,0.3987972663878707,1.4372611311265302,0.5691400196246257,3rd,4th,3rd,0.31880088143901353,1.261180345269208,0.4579822807781889
perc,resp,862,0,1.1.2left.bmp,1.1.2right.bmp,,ACC021,"[-2, -2, 0]","[-2, -2, 0]",[],match,1.0,,-1.1886706702230019,0.7390794622614165,0.5935146899062068,1st,4th,3rd,-1.2448627063770197,1.261180345269208,0.4579822807781889
perc,resp,1116,1,2.3.3left.bmp,2.3.3right.bmp,,ACC021,"[0, 2, 2]","[0, 2, 2]",[],match,1.0,,1.8207756780070814,0.06482810170248716,0.6583935966008185,4th,3rd,3rd,1.2310375064099197,0.2873783451117508,0.4579822807781889
perc,resp,660,1,3.3.2left.bmp,3.2.2right.bmp,,ACC021,"[2, 2, 0]","[2, 0, 0]",[],non-match,0.7113248654051871,4,0.9282531895582213,0.8100745621397129,0.6053244186562345,4th,4th,3rd,1.2310375064099197,1.261180345269208,0.4579822807781889
perc,resp,767,1,1.3.2left.bmp,1.2.1right.bmp,,ACC021,"[-2, 2, 0]","[-2, 0, -2]",[],non-match,0.5917517095361369,3,0.3144756308471171,1.9296662849724984,0.6320449717348785,3rd,4th,3rd,0.31880088143901353,1.261180345269208,0.4579822807781889
perc,resp,1064,1,2.2.1left.bmp,2.2.1right.bmp,,ACC021,"[0, 0, -2]","[0, 0, -2]",[],match,1.0,,0.2991098738443252,0.541878563346949,0.8339417674544651,3rd,3rd,4th,0.31880088143901353,0.2873783451117508,1.1506274259687324
perc,resp,1201,1,2.1.2left.bmp,2.1.2right.bmp,,ACC021,"[0, -2, 0]","[0, -2, 0]",[],match,1.0,,0.0953701190116415,-0.8245835977515555,0.644559062271661,3rd,1st,3rd,0.31880088143901353,-1.206448639709364,0.4579822807781889
perc,resp,667,1,1.1.2left.bmp,2.1.1right.bmp,,ACC021,"[-2, -2, 0]","[0, -2, -2]",[],non-match,0.5917517095361369,3,0.9961756043026793,1.4788064227598512,0.3773243448351385,4th,4th,3rd,1.2310375064099197,1.261180345269208,0.4579822807781889
perc,resp,862,0,2.2.3left.bmp,2.2.3right.bmp,,ACC021,"[0, 0, 2]","[0, 0, 2]",[],match,1.0,,0.4526393507327756,0.4118020573863127,0.17977151573211886,3rd,3rd,3rd,0.31880088143901353,0.2873783451117508,0.4579822807781889
perc,resp,1121,1,3.2.1left.bmp,2.3.2right.bmp,,ACC021,"[2, 0, -2]","[0, 2, 0]",[],non-match,0.5,3,0.5675447535544227,-0.717868124852016,-0.04648873758130238,3rd,1st,2nd,0.31880088143901353,-1.206448639709364,-0.19932940219347278
perc,resp,1430,0,2.3.1left.bmp,3.3.3right.bmp,,ACC021,"[0, 2, -2]","[2, 2, 2]",[],non-match,0.3545027756320971,2,0.4154348815102025,-0.7536104616928694,-0.09205604541998985,3rd,1st,2nd,0.31880088143901353,-1.206448639709364,-0.19932940219347278
perc,resp,989,1,3.1.2left.bmp,3.1.2right.bmp,,ACC021,"[2, -2, 0]","[2, -2, 0]",[],match,1.0,,0.6307467891253697,-0.690434177643921,-0.040441098793456594,3rd,1st,2nd,0.31880088143901353,-1.206448639709364,-0.19932940219347278
perc,resp,1072,1,1.1.1left.bmp,1.1.1right.bmp,,ACC021,"[-2, -2, -2]","[-2, -2, -2]",[],match,1.0,,0.7698349817979143,0.8386607773137681,-0.1585103690607013,4th,4th,2nd,1.2310375064099197,1.261180345269208,-0.19932940219347278
perc,resp,1029,0,2.2.2left.bmp,2.2.2right.bmp,,ACC021,"[0, 0, 0]","[0, 0, 0]",[],match,1.0,,0.08428686780032756,0.05128120893982314,-0.24026051249878796,3rd,3rd,2nd,0.31880088143901353,0.2873783451117508,-0.19932940219347278
perc,resp,895,1,1.3.3left.bmp,1.3.3right.bmp,,ACC021,"[-2, 2, 2]","[-2, 2, 2]",[],match,1.0,,0.8184420411873214,0.22123502491170915,-0.15743647598493982,4th,3rd,2nd,1.2310375064099197,0.2873783451117508,-0.19932940219347278
perc,resp,931,1,3.3.3left.bmp,3.3.3right.bmp,,ACC021,"[2, 2, 2]","[2, 2, 2]",[],match,1.0,,-0.20508149226623087,-0.7142782957987842,-0.2104946607478732,2nd,1st,2nd,-0.3049756814719136,-1.206448639709364,-0.19932940219347278
perc,resp,776,1,3.3.1left.bmp,1.2.3right.bmp,,ACC021,"[2, 2, -2]","[-2, 0, 2]",[],non-match,0.1339745962155613,1,0.15442969866376718,0.8309639782993774,-0.24437201764161137,3rd,4th,2nd,0.31880088143901353,1.261180345269208,-0.19932940219347278
perc,resp,1013,1,3.1.3left.bmp,3.1.3right.bmp,,ACC021,"[2, -2, 2]","[2, -2, 2]",[],match,1.0,,0.8263935252081998,1.030971911507286,-0.333387946894368,4th,4th,2nd,1.2310375064099197,1.261180345269208,-0.19932940219347278
perc,resp,930,1,1.3.1left.bmp,2.3.2right.bmp,,ACC021,"[-2, 2, -2]","[0, 2, 0]",[],non-match,0.5917517095361369,3,0.23536789966459612,0.4939816311050443,-0.3542483538351189,3rd,3rd,2nd,0.31880088143901353,0.2873783451117508,-0.19932940219347278
perc,resp,1490,1,3.1.1left.bmp,2.1.2right.bmp,,ACC021,"[2, -2, -2]","[0, -2, 0]",[],non-match,0.5917517095361369,3,0.689962824391644,0.0847663866798637,-0.23553074108849745,4th,3rd,2nd,1.2310375064099197,0.2873783451117508,-0.19932940219347278
perc,resp,1190,1,1.2.3left.bmp,1.2.3right.bmp,,ACC021,"[-2, 0, 2]","[-2, 0, 2]",[],match,1.0,,-0.516238560414221,-0.07699614038463336,-0.06143116936344244,2nd,2nd,2nd,-0.3049756814719136,-0.34211005067159656,-0.19932940219347278
perc,resp,1469,1,1.2.2left.bmp,1.1.3right.bmp,,ACC021,"[-2, 0, 0]","[-2, -2, 2]",[],non-match,0.5917517095361369,3,-0.14607082691468792,0.1754281179399274,0.019928686845146572,2nd,3rd,2nd,-0.3049756814719136,0.2873783451117508,-0.19932940219347278
perc,resp,892,1,2.1.3left.bmp,2.1.3right.bmp,,ACC021,"[0, -2, 2]","[0, -2, 2]",[],match,1.0,,-0.240329534371603,-0.5075874541927852,0.38224128769021953,2nd,2nd,3rd,-0.3049756814719136,-0.34211005067159656,0.4579822807781889
perc,resp,1054,1,1.2.3left.bmp,3.2.3right.bmp,,ACC021,"[-2, 0, 2]","[2, 0, 2]",[],non-match,0.42264973081037416,2,1.5811736739625049,3.739161721861083,0.13937727404669467,4th,4th,2nd,1.2310375064099197,1.261180345269208,-0.19932940219347278
perc,resp,958,0,2.3.1left.bmp,3.3.2right.bmp,,ACC021,"[0, 2, -2]","[2, 2, 0]",[],non-match,0.5917517095361369,3,-0.15706339287418303,-0.5486310800281455,0.17941526322897938,2nd,2nd,2nd,-0.3049756814719136,-0.34211005067159656,-0.19932940219347278
perc,resp,907,1,1.1.1left.bmp,1.3.1right.bmp,,ACC021,"[-2, -2, -2]","[-2, 2, -2]",[],non-match,0.42264973081037416,2,0.6038289217075665,0.37586242941251347,0.031362572464728004,3rd,3rd,2nd,0.31880088143901353,0.2873783451117508,-0.19932940219347278
perc,resp,662,1,2.3.3left.bmp,2.3.3right.bmp,,ACC021,"[0, 2, 2]","[0, 2, 2]",[],match,1.0,,0.8051541352102298,-0.184543714308082,0.1769966575277822,4th,2nd,2nd,1.2310375064099197,-0.34211005067159656,-0.19932940219347278
perc,resp,727,1,3.1.2left.bmp,3.1.2right.bmp,,ACC021,"[2, -2, 0]","[2, -2, 0]",[],match,1.0,,0.9621428301256385,0.3138259248761369,0.12139185409746464,4th,3rd,2nd,1.2310375064099197,0.2873783451117508,-0.19932940219347278
perc,resp,661,1,2.2.3left.bmp,1.1.3right.bmp,,ACC021,"[0, 0, 2]","[-2, -2, 2]",[],non-match,0.5917517095361369,3,-0.8988332096776024,0.34867132645781845,-0.05854475839530528,1st,3rd,2nd,-1.2448627063770197,0.2873783451117508,-0.19932940219347278
perc,resp,674,0,3.1.1left.bmp,3.1.1right.bmp,,ACC021,"[2, -2, -2]","[2, -2, -2]",[],match,1.0,,0.3752646960074477,0.5807795273938312,0.19159831318482304,3rd,3rd,3rd,0.31880088143901353,0.2873783451117508,0.4579822807781889
perc,resp,587,0,1.2.1left.bmp,1.2.1right.bmp,,ACC021,"[-2, 0, -2]","[-2, 0, -2]",[],match,1.0,,0.28501700802899466,-0.15353222827072435,0.4309199456079939,3rd,2nd,3rd,0.31880088143901353,-0.34211005067159656,0.4579822807781889
perc,resp,782,1,1.3.2left.bmp,1.1.1right.bmp,,ACC021,"[-2, 2, 0]","[-2, -2, -2]",[],non-match,0.3545027756320971,2,1.324139449482447,-0.014746526007686002,-0.11398985216893359,4th,2nd,2nd,1.2310375064099197,-0.34211005067159656,-0.19932940219347278
perc,resp,958,1,3.2.1left.bmp,3.2.1right.bmp,,ACC021,"[2, 0, -2]","[2, 0, -2]",[],match,1.0,,0.8115305811054353,1.1074590235116228,0.07241026838896408,4th,4th,2nd,1.2310375064099197,1.261180345269208,-0.19932940219347278
perc,resp,793,1,3.1.3left.bmp,3.1.3right.bmp,,ACC021,"[2, -2, 2]","[2, -2, 2]",[],match,1.0,,0.7896837451010175,1.0869726209757993,0.24266458689639148,4th,4th,3rd,1.2310375064099197,1.261180345269208,0.4579822807781889
perc,resp,880,1,2.1.3left.bmp,2.1.3right.bmp,,ACC021,"[0, -2, 2]","[0, -2, 2]",[],match,1.0,,3.95243079780058,4.3942189242504535,0.0826920388103429,4th,4th,2nd,1.2310375064099197,1.261180345269208,-0.19932940219347278
perc,resp,1038,1,1.1.3left.bmp,1.1.3right.bmp,,ACC021,"[-2, -2, 2]","[-2, -2, 2]",[],match,1.0,,0.4529317668430373,0.005707023305785357,0.29852967310298,3rd,3rd,3rd,0.31880088143901353,0.2873783451117508,0.4579822807781889
perc,resp,993,0,3.2.3left.bmp,3.2.2right.bmp,,ACC021,"[2, 0, 2]","[2, 0, 0]",[],non-match,0.7113248654051871,4,0.23327681771199732,0.992670710390112,0.3232407805349661,3rd,4th,3rd,0.31880088143901353,1.261180345269208,0.4579822807781889
perc,resp,700,1,2.3.2left.bmp,3.2.1right.bmp,,ACC021,"[0, 2, 0]","[2, 0, -2]",[],non-match,0.5,3,0.7723348846728527,0.908276781909747,0.4713034251646334,4th,4th,3rd,1.2310375064099197,1.261180345269208,0.4579822807781889
perc,resp,997,1,1.3.3left.bmp,1.3.3right.bmp,,ACC021,"[-2, 2, 2]","[-2, 2, 2]",[],match,1.0,,-0.32289728887670155,0.38335714014202193,0.46912184268959234,2nd,3rd,3rd,-0.3049756814719136,0.2873783451117508,0.4579822807781889
perc,resp,903,0,1.1.2left.bmp,1.1.2right.bmp,,ACC021,"[-2, -2, 0]","[-2, -2, 0]",[],match,1.0,,-0.4363694512402684,-0.25621837106482565,0.4373948664509522,2nd,2nd,3rd,-0.3049756814719136,-0.34211005067159656,0.4579822807781889
perc,resp,850,1,1.2.2left.bmp,2.2.2right.bmp,,ACC021,"[-2, 0, 0]","[0, 0, 0]",[],non-match,0.7113248654051871,4,0.15083378485664653,0.7868686634218167,0.603327368915122,3rd,4th,3rd,0.31880088143901353,1.261180345269208,0.4579822807781889
perc,resp,865,0,2.1.2left.bmp,3.1.2right.bmp,,ACC021,"[0, -2, 0]","[2, -2, 0]",[],non-match,0.7113248654051871,4,-0.8499398530886297,1.9092053086634662,0.48304519931962414,1st,4th,3rd,-1.2448627063770197,1.261180345269208,0.4579822807781889
perc,resp,1034,1,3.2.2left.bmp,2.1.3right.bmp,,ACC021,"[2, 0, 0]","[0, -2, 2]",[],non-match,0.5,3,0.1198694747277167,0.5097292404453239,0.7200796979120656,3rd,3rd,4th,0.31880088143901353,0.2873783451117508,1.1506274259687324
perc,resp,1697,1,3.3.1left.bmp,3.1.3right.bmp,,ACC021,"[2, 2, -2]","[2, -2, 2]",[],non-match,0.18350341907227385,1,1.1123705464755045,0.5683125885051262,0.7501172705408587,4th,3rd,4th,1.2310375064099197,0.2873783451117508,1.1506274259687324
perc,resp,944,1,2.1.1left.bmp,2.1.1right.bmp,,ACC021,"[0, -2, -2]","[0, -2, -2]",[],match,1.0,,0.0017196914068184012,-0.7688116978935872,0.5488173585686361,2nd,1st,3rd,-0.3049756814719136,-1.206448639709364,0.4579822807781889
perc,resp,971,1,3.3.3left.bmp,3.1.1right.bmp,,ACC021,"[2, 2, 2]","[2, -2, -2]",[],non-match,0.18350341907227385,1,-0.47251031380494124,0.17905518769331644,0.6338524512179058,2nd,3rd,3rd,-0.3049756814719136,0.2873783451117508,0.4579822807781889
perc,resp,1412,1,2.2.1left.bmp,2.2.1right.bmp,,ACC021,"[0, 0, -2]","[0, 0, -2]",[],match,1.0,,-0.38677559733028355,-0.41824939326952393,0.9152928837556387,2nd,2nd,4th,-0.3049756814719136,-0.34211005067159656,1.1506274259687324
perc,resp,1462,1,1.3.1left.bmp,1.3.1right.bmp,,ACC021,"[-2, 2, -2]","[-2, 2, -2]",[],match,1.0,,0.1699347215341937,-1.024433984825,0.9672805568358229,3rd,1st,4th,0.31880088143901353,-1.206448639709364,1.1506274259687324
perc,resp,1181,0,2.2.2left.bmp,2.3.1right.bmp,,ACC021,"[0, 0, 0]","[0, 2, -2]",[],non-match,0.5917517095361369,3,0.8977106935431817,0.34641706150652124,1.1642779181371121,4th,3rd,4th,1.2310375064099197,0.2873783451117508,1.1506274259687324
perc,resp,888,1,3.3.2left.bmp,2.1.3right.bmp,,ACC021,"[2, 2, 0]","[0, -2, 2]",[],non-match,0.29289321881345254,1,-0.449493535076998,-0.6094481829020404,1.1962718733307491,2nd,2nd,4th,-0.3049756814719136,-0.34211005067159656,1.1506274259687324
perc,resp,1117,1,2.2.3left.bmp,1.1.2right.bmp,,ACC021,"[0, 0, 2]","[-2, -2, 0]",[],non-match,0.5,3,-0.44796440122175846,-1.2129240355252415,1.374347435574226,2nd,1st,4th,-0.3049756814719136,-1.206448639709364,1.1506274259687324
perc,resp,942,0,1.1.1left.bmp,2.3.3right.bmp,,ACC021,"[-2, -2, -2]","[0, 2, 2]",[],non-match,0.1339745962155613,1,-1.7653164600153286,1.3666317248801507,1.0472992128300107,1st,4th,4th,-1.2448627063770197,1.261180345269208,1.1506274259687324
perc,resp,1051,1,3.1.3left.bmp,2.2.1right.bmp,,ACC021,"[2, -2, 2]","[0, 0, -2]",[],non-match,0.29289321881345254,1,-0.08547168628490395,-0.2623151415019309,0.9620254045235416,2nd,2nd,4th,-0.3049756814719136,-0.34211005067159656,1.1506274259687324
perc,resp,1129,1,2.2.2left.bmp,1.2.1right.bmp,,ACC021,"[0, 0, 0]","[-2, 0, -2]",[],non-match,0.5917517095361369,3,-0.33479415613837693,-0.6775279623630185,0.9442717416298098,2nd,2nd,4th,-0.3049756814719136,-0.34211005067159656,1.1506274259687324
perc,resp,1188,0,2.1.1left.bmp,2.1.1right.bmp,,ACC021,"[0, -2, -2]","[0, -2, -2]",[],match,1.0,,0.45255130756224493,1.4222037301921384,1.0655211347030145,3rd,4th,4th,0.31880088143901353,1.261180345269208,1.1506274259687324
perc,resp,1217,1,1.2.3left.bmp,2.1.3right.bmp,,ACC021,"[-2, 0, 2]","[0, -2, 2]",[],non-match,0.5917517095361369,3,-0.21141918922627967,-1.0468767597491027,1.1138763502600135,2nd,1st,4th,-0.3049756814719136,-1.206448639709364,1.1506274259687324
perc,resp,1187,1,1.1.3left.bmp,2.2.3right.bmp,,ACC021,"[-2, -2, 2]","[0, 0, 2]",[],non-match,0.5917517095361369,3,0.7841431854674398,-0.851441668674915,0.9415557947678583,4th,1st,4th,1.2310375064099197,-1.206448639709364,1.1506274259687324
perc,resp,620,1,3.3.1left.bmp,3.1.1right.bmp,,ACC021,"[2, 2, -2]","[2, -2, -2]",[],non-match,0.42264973081037416,2,1.0775045297351122,2.20947392878805,1.1298789681889259,4th,4th,4th,1.2310375064099197,1.261180345269208,1.1506274259687324
perc,resp,854,1,3.1.2left.bmp,3.2.2right.bmp,,ACC021,"[2, -2, 0]","[2, 0, 0]",[],non-match,0.7113248654051871,4,0.038923438515946526,-0.8316933865955176,1.3035598193283375,3rd,1st,4th,0.31880088143901353,-1.206448639709364,1.1506274259687324
perc,resp,751,0,2.1.2left.bmp,2.1.2right.bmp,,ACC021,"[0, -2, 0]","[0, -2, 0]",[],match,1.0,,0.3008750167268957,1.869614400516588,1.2640216217244642,3rd,4th,4th,0.31880088143901353,1.261180345269208,1.1506274259687324
perc,resp,1107,1,2.3.2left.bmp,2.3.2right.bmp,,ACC021,"[0, 2, 0]","[0, 2, 0]",[],match,1.0,,2.018724898614095,-0.17263734178532952,1.3463737510215077,4th,2nd,4th,1.2310375064099197,-0.34211005067159656,1.1506274259687324
perc,resp,862,1,1.3.3left.bmp,1.3.3right.bmp,,ACC021,"[-2, 2, 2]","[-2, 2, 2]",[],match,1.0,,-0.6205430603372928,-0.6738513220396196,1.3721461580360539,1st,2nd,4th,-1.2448627063770197,-0.34211005067159656,1.1506274259687324
perc,resp,921,1,3.2.3left.bmp,3.2.3right.bmp,,ACC021,"[2, 0, 2]","[2, 0, 2]",[],match,1.0,,-0.676031438993999,-0.6529146876323818,1.4869424798574091,1st,2nd,4th,-1.2448627063770197,-0.34211005067159656,1.1506274259687324
perc,resp,1016,0,3.2.2left.bmp,3.3.3right.bmp,,ACC021,"[2, 0, 0]","[2, 2, 2]",[],non-match,0.5917517095361369,3,-0.9078193895119233,-0.7379353514587149,1.4711637310049677,1st,1st,4th,-1.2448627063770197,-1.206448639709364,1.1506274259687324
perc,resp,903,1,3.1.1left.bmp,1.2.3right.bmp,,ACC021,"[2, -2, -2]","[-2, 0, 2]",[],non-match,0.1339745962155613,1,1.5548924152159718,1.5396916108314784,1.7426489132254472,4th,4th,4th,1.2310375064099197,1.261180345269208,1.1506274259687324
perc,resp,726,0,2.3.3left.bmp,2.3.3right.bmp,,ACC021,"[0, 2, 2]","[0, 2, 2]",[],match,1.0,,0.6330932353884801,0.35737402083528214,1.673827557584573,3rd,3rd,4th,0.31880088143901353,0.2873783451117508,1.1506274259687324
perc,resp,862,1,1.2.2left.bmp,1.1.3right.bmp,,ACC021,"[-2, 0, 0]","[-2, -2, 2]",[],non-match,0.5917517095361369,3,0.1435968679055103,-0.572809888733815,1.7470151771451934,3rd,2nd,4th,0.31880088143901353,-0.34211005067159656,1.1506274259687324
perc,resp,637,1,3.3.3left.bmp,2.1.1right.bmp,,ACC021,"[2, 2, 2]","[0, -2, -2]",[],non-match,0.1339745962155613,1,0.08531917610929518,0.013895351987185764,1.8731470176661238,3rd,3rd,4th,0.31880088143901353,0.2873783451117508,1.1506274259687324
perc,resp,812,1,1.2.1left.bmp,3.2.3right.bmp,,ACC021,"[-2, 0, -2]","[2, 0, 2]",[],non-match,0.18350341907227385,1,1.7985324753896466,1.0009794832664134,2.054378931200111,4th,4th,4th,1.2310375064099197,1.261180345269208,1.1506274259687324
perc,resp,879,1,1.3.2left.bmp,1.3.2right.bmp,,ACC021,"[-2, 2, 0]","[-2, 2, 0]",[],match,1.0,,0.6005872134825248,0.16648976842932114,2.173163957709437,3rd,3rd,4th,0.31880088143901353,0.2873783451117508,1.1506274259687324
perc,resp,873,1,3.2.1left.bmp,3.2.1right.bmp,,ACC021,"[2, 0, -2]","[2, 0, -2]",[],match,1.0,,1.078602258754457,0.8041718186577893,1.929342643511951,4th,4th,4th,1.2310375064099197,1.261180345269208,1.1506274259687324
perc,resp,1002,1,1.1.2left.bmp,2.1.2right.bmp,,ACC021,"[-2, -2, 0]","[0, -2, 0]",[],non-match,0.7113248654051871,4,1.3747239937782973,0.48607597757494064,1.868307012313006,4th,3rd,4th,1.2310375064099197,0.2873783451117508,1.1506274259687324
perc,resp,797,1,3.3.2left.bmp,1.3.3right.bmp,,ACC021,"[2, 2, 0]","[-2, 2, 2]",[],non-match,0.3545027756320971,2,1.5695083901542446,0.12485944959060286,1.8490511595202443,4th,3rd,4th,1.2310375064099197,0.2873783451117508,1.1506274259687324
perc,resp,961,0,2.3.1left.bmp,2.3.1right.bmp,,ACC021,"[0, 2, -2]","[0, 2, -2]",[],match,1.0,,1.3971677066064936,1.629744434177977,1.6733339543446155,4th,4th,4th,1.2310375064099197,1.261180345269208,1.1506274259687324
perc,resp,818,0,1.3.1left.bmp,1.3.1right.bmp,,ACC021,"[-2, 2, -2]","[-2, 2, -2]",[],match,1.0,,0.11727377439183122,0.17278479471587743,1.7120145242733213,3rd,3rd,4th,0.31880088143901353,0.2873783451117508,1.1506274259687324
perc,resp,843,0,2.1.3left.bmp,2.1.3right.bmp,,ACC021,"[0, -2, 2]","[0, -2, 2]",[],match,1.0,,-0.8091756532305266,-0.7933070789811795,1.5149198499494247,1st,1st,4th,-1.2448627063770197,-1.206448639709364,1.1506274259687324
perc,resp,750,1,3.1.2left.bmp,1.2.3right.bmp,,ACC021,"[2, -2, 0]","[-2, 0, 2]",[],non-match,0.29289321881345254,1,1.0758214465347467,-1.0103115329446704,1.6939325291056608,4th,1st,4th,1.2310375064099197,-1.206448639709364,1.1506274259687324
perc,resp,704,0,3.3.1left.bmp,3.2.2right.bmp,,ACC021,"[2, 2, -2]","[2, 0, 0]",[],non-match,0.5917517095361369,3,-0.02172011992569671,-0.2811413858700814,1.4268445625245294,2nd,2nd,4th,-0.3049756814719136,-0.34211005067159656,1.1506274259687324
perc,resp,901,1,2.3.3left.bmp,2.3.3right.bmp,,ACC021,"[0, 2, 2]","[0, 2, 2]",[],match,1.0,,-0.18134984636714235,-0.003391786311742612,1.312234124673206,2nd,3rd,4th,-0.3049756814719136,0.2873783451117508,1.1506274259687324
perc,resp,716,0,2.2.3left.bmp,2.2.3right.bmp,,ACC021,"[0, 0, 2]","[0, 0, 2]",[],match,1.0,,-0.520216166121522,0.20423481708893573,1.3605026243330354,2nd,3rd,4th,-0.3049756814719136,0.2873783451117508,1.1506274259687324
perc,resp,700,1,2.2.2left.bmp,1.2.2right.bmp,,ACC021,"[0, 0, 0]","[-2, 0, 0]",[],non-match,0.7113248654051871,4,0.09652029122082942,-0.045701662028908595,1.095636818953597,3rd,2nd,4th,0.31880088143901353,-0.34211005067159656,1.1506274259687324
perc,resp,967,0,1.2.3left.bmp,1.2.3right.bmp,,ACC021,"[-2, 0, 2]","[-2, 0, 2]",[],match,1.0,,1.1344875673624022,-0.05700576071598031,0.9402826801936786,4th,2nd,4th,1.2310375064099197,-0.34211005067159656,1.1506274259687324
perc,resp,1145,1,3.1.3left.bmp,3.3.1right.bmp,,ACC021,"[2, -2, 2]","[2, 2, -2]",[],non-match,0.18350341907227385,1,1.2291554100479671,1.22636892271011,1.1274281445175443,4th,4th,4th,1.2310375064099197,1.261180345269208,1.1506274259687324
perc,resp,972,0,3.1.1left.bmp,3.1.1right.bmp,,ACC021,"[2, -2, -2]","[2, -2, -2]",[],match,1.0,,0.9755439496341642,-1.6528554338880888,1.1909221753961996,4th,1st,4th,1.2310375064099197,-1.206448639709364,1.1506274259687324
perc,resp,978,1,3.2.1left.bmp,2.3.2right.bmp,,ACC021,"[2, 0, -2]","[0, 2, 0]",[],non-match,0.5,3,-0.8524608226630093,0.047271477116263304,0.7623414572328508,1st,3rd,4th,-1.2448627063770197,0.2873783451117508,1.1506274259687324
perc,resp,1057,1,1.3.2left.bmp,1.3.2right.bmp,,ACC021,"[-2, 2, 0]","[-2, 2, 0]",[],match,1.0,,-0.4656422949371138,0.3035052026901554,0.7725113589650892,2nd,3rd,4th,-0.3049756814719136,0.2873783451117508,1.1506274259687324
perc,resp,1194,0,1.3.1left.bmp,1.3.1right.bmp,,ACC021,"[-2, 2, -2]","[-2, 2, -2]",[],match,1.0,,-0.9131843601438424,-0.8017126803209472,0.7832066954087037,1st,1st,4th,-1.2448627063770197,-1.206448639709364,1.1506274259687324
perc,resp,1083,1,1.2.2left.bmp,1.2.2right.bmp,,ACC021,"[-2, 0, 0]","[-2, 0, 0]",[],match,1.0,,0.25014950677417314,-0.7576102952607805,0.6815748346467986,3rd,1st,3rd,0.31880088143901353,-1.206448639709364,0.4579822807781889
perc,resp,1242,1,3.2.3left.bmp,3.2.3right.bmp,,ACC021,"[2, 0, 2]","[2, 0, 2]",[],match,1.0,,-0.6412920705763897,-2.192506134801757,0.5144791173785526,1st,1st,3rd,-1.2448627063770197,-1.206448639709364,0.4579822807781889
perc,resp,949,1,1.1.2left.bmp,2.3.2right.bmp,,ACC021,"[-2, -2, 0]","[0, 2, 0]",[],non-match,0.3545027756320971,2,-0.17286890198578145,-0.7787764661197659,0.26932262888711944,2nd,1st,3rd,-0.3049756814719136,-1.206448639709364,0.4579822807781889
perc,resp,1138,1,1.2.1left.bmp,1.3.3right.bmp,,ACC021,"[-2, 0, -2]","[-2, 2, 2]",[],non-match,0.3545027756320971,2,-0.6065497126175924,-0.4231262730782476,0.33178822563118826,1st,2nd,3rd,-1.2448627063770197,-0.34211005067159656,0.4579822807781889
perc,resp,1217,1,2.3.1left.bmp,2.3.1right.bmp,,ACC021,"[0, 2, -2]","[0, 2, -2]",[],match,1.0,,-1.4649272309911057,-1.7450601284314833,0.4572193932859155,1st,1st,3rd,-1.2448627063770197,-1.206448639709364,0.4579822807781889
perc,resp,952,1,3.3.2left.bmp,1.3.2right.bmp,,ACC021,"[2, 2, 0]","[-2, 2, 0]",[],non-match,0.42264973081037416,2,0.5520478426259605,0.23154501627848315,0.5168958491219691,3rd,3rd,3rd,0.31880088143901353,0.2873783451117508,0.4579822807781889
perc,resp,860,0,1.1.1left.bmp,1.1.1right.bmp,,ACC021,"[-2, -2, -2]","[-2, -2, -2]",[],match,1.0,,0.15374513538423956,-0.36806662473754487,0.3592937437179862,3rd,2nd,3rd,0.31880088143901353,-0.34211005067159656,0.4579822807781889
perc,resp,1177,1,2.3.2left.bmp,2.3.3right.bmp,,ACC021,"[0, 2, 0]","[0, 2, 2]",[],non-match,0.7113248654051871,4,0.4635574650364694,-0.6031080660303405,0.35101467678392095,3rd,2nd,3rd,0.31880088143901353,-0.34211005067159656,0.4579822807781889
perc,resp,1096,0,3.3.3left.bmp,1.3.1right.bmp,,ACC021,"[2, 2, 2]","[-2, 2, -2]",[],non-match,0.18350341907227385,1,-1.4149630857525293,-0.0705478959725917,0.4499637893074484,1st,2nd,3rd,-1.2448627063770197,-0.34211005067159656,0.4579822807781889
perc,resp,861,1,2.2.1left.bmp,2.2.1right.bmp,,ACC021,"[0, 0, -2]","[0, 0, -2]",[],match,1.0,,-1.0664887691304479,-0.3901533201565464,0.03786741173893703,1st,2nd,2nd,-1.2448627063770197,-0.34211005067159656,-0.19932940219347278
perc,resp,811,1,3.3.3left.bmp,3.3.3right.bmp,,ACC021,"[2, 2, 2]","[2, 2, 2]",[],match,1.0,,-0.2581970423198821,0.8519588525098768,-0.170424991025842,2nd,4th,2nd,-0.3049756814719136,1.261180345269208,-0.19932940219347278
perc,resp,886,1,1.1.2left.bmp,1.1.2right.bmp,,ACC021,"[-2, -2, 0]","[-2, -2, 0]",[],match,1.0,,-0.8781801739030036,-1.7535729953749768,-0.2131718689681413,1st,1st,2nd,-1.2448627063770197,-1.206448639709364,-0.19932940219347278
perc,resp,731,0,2.1.3left.bmp,2.3.3right.bmp,,ACC021,"[0, -2, 2]","[0, 2, 2]",[],non-match,0.42264973081037416,2,-0.38620397291215375,0.0749271241064137,-0.13463898173344335,2nd,3rd,2nd,-0.3049756814719136,0.2873783451117508,-0.19932940219347278
perc,resp,1017,0,2.2.3left.bmp,3.1.3right.bmp,,ACC021,"[0, 0, 2]","[2, -2, 2]",[],non-match,0.5917517095361369,3,-0.44655208885859066,-1.1616699889602018,-0.3602635425972201,2nd,1st,2nd,-0.3049756814719136,-1.206448639709364,-0.19932940219347278
perc,resp,661,0,2.2.2left.bmp,2.2.2right.bmp,,ACC021,"[0, 0, 0]","[0, 0, 0]",[],match,1.0,,0.5143835730616538,0.8637640223066528,-0.3579932390307531,3rd,4th,2nd,0.31880088143901353,1.261180345269208,-0.19932940219347278
perc,resp,895,1,3.3.1left.bmp,1.1.2right.bmp,,ACC021,"[2, 2, -2]","[-2, -2, 0]",[],non-match,0.1339745962155613,1,0.8495505662382574,-0.23857330972720028,0.003629043444005845,4th,2nd,2nd,1.2310375064099197,-0.34211005067159656,-0.19932940219347278
perc,resp,862,1,3.2.1left.bmp,3.2.1right.bmp,,ACC021,"[2, 0, -2]","[2, 0, -2]",[],match,1.0,,0.6562343574976445,0.08325423981160705,0.09516656849598638,3rd,3rd,2nd,0.31880088143901353,0.2873783451117508,-0.19932940219347278
perc,resp,969,1,2.3.2left.bmp,2.1.1right.bmp,,ACC021,"[0, 2, 0]","[0, -2, -2]",[],non-match,0.3545027756320971,2,0.8151791497215851,-0.4315128840396886,0.07413191763114975,4th,2nd,2nd,1.2310375064099197,-0.34211005067159656,-0.19932940219347278
perc,resp,866,1,2.2.1left.bmp,2.2.1right.bmp,,ACC021,"[0, 0, -2]","[0, 0, -2]",[],match,1.0,,0.38108185097796266,0.44414094047354763,-0.1845320965712656,3rd,3rd,2nd,0.31880088143901353,0.2873783451117508,-0.19932940219347278
perc,resp,1142,1,1.3.1left.bmp,1.2.3right.bmp,,ACC021,"[-2, 2, -2]","[-2, 0, 2]",[],non-match,0.3545027756320971,2,0.47157180386369507,-1.077969906395561,-0.3506593323788522,3rd,1st,2nd,0.31880088143901353,-1.206448639709364,-0.19932940219347278
perc,resp,819,0,1.3.2left.bmp,2.1.2right.bmp,,ACC021,"[-2, 2, 0]","[0, -2, 0]",[],non-match,0.3545027756320971,2,0.5854570615922833,-0.006587455988509262,-0.4734696279547784,3rd,3rd,2nd,0.31880088143901353,0.2873783451117508,-0.19932940219347278
perc,resp,1056,1,1.1.3left.bmp,3.2.3right.bmp,,ACC021,"[-2, -2, 2]","[2, 0, 2]",[],non-match,0.3545027756320971,2,-0.11965244095850673,1.5135553526910206,-0.30295858949293436,2nd,4th,2nd,-0.3049756814719136,1.261180345269208,-0.19932940219347278
perc,resp,853,1,1.1.1left.bmp,1.1.1right.bmp,,ACC021,"[-2, -2, -2]","[-2, -2, -2]",[],match,1.0,,-0.34317259712465575,-0.6323417777781664,-0.6003350781699288,2nd,2nd,2nd,-0.3049756814719136,-0.34211005067159656,-0.19932940219347278
perc,resp,1050,1,3.3.2left.bmp,3.3.2right.bmp,,ACC021,"[2, 2, 0]","[2, 2, 0]",[],match,1.0,,-0.22158688586264927,-0.8354910393714845,-0.5621545005652092,2nd,1st,2nd,-0.3049756814719136,-1.206448639709364,-0.19932940219347278
perc,resp,735,1,3.1.2left.bmp,1.3.3right.bmp,,ACC021,"[2, -2, 0]","[-2, 2, 2]",[],non-match,0.1339745962155613,1,-2.3273079334497635,-0.3573912304753355,-0.5781402717171711,1st,2nd,2nd,-1.2448627063770197,-0.34211005067159656,-0.19932940219347278
perc,resp,811,1,3.2.2left.bmp,3.3.3right.bmp,,ACC021,"[2, 0, 0]","[2, 2, 2]",[],non-match,0.5917517095361369,3,-0.35091233055994,-0.03226789218794171,-0.4397257964890656,2nd,2nd,2nd,-0.3049756814719136,-0.34211005067159656,-0.19932940219347278
perc,resp,726,1,3.2.3left.bmp,3.2.3right.bmp,,ACC021,"[2, 0, 2]","[2, 0, 2]",[],match,1.0,,-0.35928989985566245,1.7665752772039667,-0.07761518247243919,2nd,4th,2nd,-0.3049756814719136,1.261180345269208,-0.19932940219347278
perc,resp,700,1,1.2.2left.bmp,1.2.2right.bmp,,ACC021,"[-2, 0, 0]","[-2, 0, 0]",[],match,1.0,,-0.0363881504801117,0.03950130678630445,-0.14801476750072937,2nd,3rd,2nd,-0.3049756814719136,0.2873783451117508,-0.19932940219347278
perc,resp,949,1,2.1.2left.bmp,2.1.2right.bmp,,ACC021,"[0, -2, 0]","[0, -2, 0]",[],match,1.0,,-1.7192960798935748,-1.7771174307590047,-0.4192052169608071,1st,1st,2nd,-1.2448627063770197,-1.206448639709364,-0.19932940219347278
perc,resp,1024,1,2.3.1left.bmp,1.2.3right.bmp,,ACC021,"[0, 2, -2]","[-2, 0, 2]",[],non-match,0.29289321881345254,1,0.6760137921878442,-0.6376289792686398,-0.2955240076131705,4th,2nd,2nd,1.2310375064099197,-0.34211005067159656,-0.19932940219347278
perc,resp,931,1,1.3.3left.bmp,3.3.2right.bmp,,ACC021,"[-2, 2, 2]","[2, 2, 0]",[],non-match,0.3545027756320971,2,0.23520482963552608,0.04087178569654809,-0.4386280003757298,3rd,3rd,2nd,0.31880088143901353,0.2873783451117508,-0.19932940219347278
perc,resp,1431,0,3.1.1left.bmp,3.2.1right.bmp,,ACC021,"[2, -2, -2]","[2, 0, -2]",[],non-match,0.7113248654051871,4,-1.2922956893150679,-0.4659633861884081,-0.4381065668016774,1st,2nd,2nd,-1.2448627063770197,-0.34211005067159656,-0.19932940219347278
perc,resp,1240,0,1.2.1left.bmp,1.2.1right.bmp,,ACC021,"[-2, 0, -2]","[-2, 0, -2]",[],match,1.0,,1.9855713901999819,0.5560572000522312,-0.6122565875014072,4th,3rd,2nd,1.2310375064099197,0.2873783451117508,-0.19932940219347278
perc,resp,1261,1,3.1.3left.bmp,2.3.1right.bmp,,ACC021,"[2, -2, 2]","[0, 2, -2]",[],non-match,0.1339745962155613,1,-0.3420043223054005,1.1034213281247092,-0.688829057410675,2nd,4th,2nd,-0.3049756814719136,1.261180345269208,-0.19932940219347278
perc,resp,906,1,2.1.1left.bmp,2.1.1right.bmp,,ACC021,"[0, -2, -2]","[0, -2, -2]",[],match,1.0,,-0.2916994847962823,-1.7850849359975731,-0.06705489366373152,2nd,1st,2nd,-0.3049756814719136,-1.206448639709364,-0.19932940219347278
perc,resp,682,1,1.2.3left.bmp,1.2.3right.bmp,,ACC021,"[-2, 0, 2]","[-2, 0, 2]",[],match,1.0,,-0.2593661954188058,-0.4349161659944769,-0.1482360420310349,2nd,2nd,2nd,-0.3049756814719136,-0.34211005067159656,-0.19932940219347278
perc,resp,947,1,2.3.3left.bmp,2.3.3right.bmp,,ACC021,"[0, 2, 2]","[0, 2, 2]",[],match,1.0,,-0.38328785374805824,-1.1929639915653214,-0.3460049632407335,2nd,1st,2nd,-0.3049756814719136,-1.206448639709364,-0.19932940219347278
perc,resp,1033,1,1.2.1left.bmp,1.1.3right.bmp,,ACC021,"[-2, 0, -2]","[-2, -2, 2]",[],non-match,0.3545027756320971,2,-1.1890510714710425,-0.024695634109774614,-0.4307938278184846,1st,2nd,2nd,-1.2448627063770197,-0.34211005067159656,-0.19932940219347278
perc,resp,809,1,1.2.3left.bmp,1.2.3right.bmp,,ACC021,"[-2, 0, 2]","[-2, 0, 2]",[],match,1.0,,-1.8266310963679184,-1.0803065786201025,-0.9387818441299307,1st,1st,1st,-1.2448627063770197,-1.206448639709364,-1.4092803045534497
perc,resp,1249,1,2.3.1left.bmp,2.3.1right.bmp,,ACC021,"[0, 2, -2]","[0, 2, -2]",[],match,1.0,,0.7668074794886827,0.4679794817740936,-0.7055794514750858,4th,3rd,1st,1.2310375064099197,0.2873783451117508,-1.4092803045534497
perc,resp,876,1,2.1.3left.bmp,2.1.3right.bmp,,ACC021,"[0, -2, 2]","[0, -2, 2]",[],match,1.0,,-0.722860898440144,1.2562359113747272,-0.7234051542103058,1st,4th,1st,-1.2448627063770197,1.261180345269208,-1.4092803045534497
perc,resp,761,1,3.1.1left.bmp,3.1.1right.bmp,,ACC021,"[2, -2, -2]","[2, -2, -2]",[],match,1.0,,0.9480750666261394,-2.393720802812282,-0.6899885596570103,4th,1st,2nd,1.2310375064099197,-1.206448639709364,-0.19932940219347278
perc,resp,672,1,2.1.1left.bmp,2.1.1right.bmp,,ACC021,"[0, -2, -2]","[0, -2, -2]",[],match,1.0,,0.942395576227035,0.7431167876200818,-0.6171042404486514,4th,4th,2nd,1.2310375064099197,1.261180345269208,-0.19932940219347278
perc,resp,918,1,1.3.1left.bmp,3.2.3right.bmp,,ACC021,"[-2, 2, -2]","[2, 0, 2]",[],non-match,0.1339745962155613,1,1.4613290945684474,0.5194900570300827,-0.7967856784904708,4th,3rd,1st,1.2310375064099197,0.2873783451117508,-1.4092803045534497
perc,resp,835,1,2.2.3left.bmp,2.2.3right.bmp,,ACC021,"[0, 0, 2]","[0, 0, 2]",[],match,1.0,,-0.6371702048725872,-0.639310202615891,-0.7663680388112918,1st,2nd,1st,-1.2448627063770197,-0.34211005067159656,-1.4092803045534497
perc,resp,720,1,1.3.2left.bmp,2.2.1right.bmp,,ACC021,"[-2, 2, 0]","[0, 0, -2]",[],non-match,0.5,3,0.11067144605951999,-0.10390240087971846,-0.6409795186723554,3rd,2nd,2nd,0.31880088143901353,-0.34211005067159656,-0.19932940219347278
perc,resp,824,1,3.1.2left.bmp,2.3.1right.bmp,,ACC021,"[2, -2, 0]","[0, 2, -2]",[],non-match,0.29289321881345254,1,-1.0595907922195027,-0.048981460271040576,-0.6362749777372833,1st,2nd,2nd,-1.2448627063770197,-0.34211005067159656,-0.19932940219347278
perc,resp,841,1,1.3.3left.bmp,1.3.3right.bmp,,ACC021,"[-2, 2, 2]","[-2, 2, 2]",[],match,1.0,,-0.7231100810260951,-1.5818472211337349,-0.5943612287861209,1st,1st,2nd,-1.2448627063770197,-1.206448639709364,-0.19932940219347278
perc,resp,775,0,3.1.3left.bmp,3.1.3right.bmp,,ACC021,"[2, -2, 2]","[2, -2, 2]",[],match,1.0,,-0.15450464030622715,-1.0241329866677529,-0.4678531445937137,2nd,1st,2nd,-0.3049756814719136,-1.206448639709364,-0.19932940219347278
perc,resp,760,1,3.3.2left.bmp,3.3.2right.bmp,,ACC021,"[2, 2, 0]","[2, 2, 0]",[],match,1.0,,-0.2534652237833249,1.3009754982941781,-0.5344680766177938,2nd,4th,2nd,-0.3049756814719136,1.261180345269208,-0.19932940219347278
perc,resp,695,0,2.2.2left.bmp,3.2.2right.bmp,,ACC021,"[0, 0, 0]","[2, 0, 0]",[],non-match,0.7113248654051871,4,1.676760435939979,1.7060364355729762,-0.8909559177718509,4th,4th,1st,1.2310375064099197,1.261180345269208,-1.4092803045534497
perc,resp,768,0,1.1.3left.bmp,1.1.2right.bmp,,ACC021,"[-2, -2, 2]","[-2, -2, 0]",[],non-match,0.7113248654051871,4,0.5354979462381779,1.5917290005910343,-0.9462236122018557,3rd,4th,1st,0.31880088143901353,1.261180345269208,-1.4092803045534497
perc,resp,753,1,3.3.1left.bmp,1.3.1right.bmp,,ACC021,"[2, 2, -2]","[-2, 2, -2]",[],non-match,0.42264973081037416,2,-0.2591977737434351,0.43048399073753163,-1.0363223349975288,2nd,3rd,1st,-0.3049756814719136,0.2873783451117508,-1.4092803045534497
perc,resp,890,1,3.2.1left.bmp,3.2.1right.bmp,,ACC021,"[2, 0, -2]","[2, 0, -2]",[],match,1.0,,2.3903471706038233,-0.06122847022716505,-0.7959290145901515,4th,2nd,1st,1.2310375064099197,-0.34211005067159656,-1.4092803045534497
perc,resp,1048,1,2.2.1left.bmp,1.2.3right.bmp,,ACC021,"[0, 0, -2]","[-2, 0, 2]",[],non-match,0.3545027756320971,2,-0.20749271116380374,-0.24737231717164151,-1.0558552816322864,2nd,2nd,1st,-0.3049756814719136,-0.34211005067159656,-1.4092803045534497
perc,resp,741,1,1.1.1left.bmp,1.1.1right.bmp,,ACC021,"[-2, -2, -2]","[-2, -2, -2]",[],match,1.0,,2.428202693750601,0.613187658624722,-1.2042041265276264,4th,3rd,1st,1.2310375064099197,0.2873783451117508,-1.4092803045534497
perc,resp,748,0,2.3.3left.bmp,1.2.2right.bmp,,ACC021,"[0, 2, 2]","[-2, 0, 0]",[],non-match,0.5,3,0.9188398268601106,0.8770407415867029,-1.2281326348769672,4th,4th,1st,1.2310375064099197,1.261180345269208,-1.4092803045534497
perc,resp,788,1,3.3.3left.bmp,2.2.3right.bmp,,ACC021,"[2, 2, 2]","[0, 0, 2]",[],non-match,0.5917517095361369,3,-0.3137730836398029,0.11643742163965883,-1.3155340267112745,2nd,3rd,1st,-0.3049756814719136,0.2873783451117508,-1.4092803045534497
perc,resp,715,0,1.1.2left.bmp,1.1.2right.bmp,,ACC021,"[-2, -2, 0]","[-2, -2, 0]",[],match,1.0,,2.15744291964463,1.8167359894092736,-1.3598636360120715,4th,4th,1st,1.2310375064099197,1.261180345269208,-1.4092803045534497
perc,resp,872,1,3.2.2left.bmp,3.2.2right.bmp,,ACC021,"[2, 0, 0]","[2, 0, 0]",[],match,1.0,,1.3254369319423243,0.4690810558700039,-1.4400310990866048,4th,3rd,1st,1.2310375064099197,0.2873783451117508,-1.4092803045534497
perc,resp,1046,1,1.2.2left.bmp,1.2.2right.bmp,,ACC021,"[-2, 0, 0]","[-2, 0, 0]",[],match,1.0,,-1.5160527233758516,-0.4526946225157017,-1.4998714515719522,1st,2nd,1st,-1.2448627063770197,-0.34211005067159656,-1.4092803045534497
perc,resp,965,1,2.1.2left.bmp,2.1.2right.bmp,,ACC021,"[0, -2, 0]","[0, -2, 0]",[],match,1.0,,0.509543152862587,1.0944775867739098,-1.2124097538991854,3rd,4th,1st,0.31880088143901353,1.261180345269208,-1.4092803045534497
perc,resp,790,1,2.3.2left.bmp,1.1.1right.bmp,,ACC021,"[0, 2, 0]","[-2, -2, -2]",[],non-match,0.29289321881345254,1,0.03462773206262893,0.9735951198436222,-1.2254743266529615,3rd,4th,1st,0.31880088143901353,1.261180345269208,-1.4092803045534497
perc,resp,927,1,3.2.3left.bmp,3.2.3right.bmp,,ACC021,"[2, 0, 2]","[2, 0, 2]",[],match,1.0,,1.5264631915049924,1.8155661715320965,-1.505355299518454,4th,4th,1st,1.2310375064099197,1.261180345269208,-1.4092803045534497
perc,resp,721,1,3.3.3left.bmp,3.3.3right.bmp,,ACC021,"[2, 2, 2]","[2, 2, 2]",[],match,1.0,,-0.15714660372844735,0.7842418857465939,-1.4178603129706597,2nd,4th,1st,-0.3049756814719136,1.261180345269208,-1.4092803045534497
perc,resp,918,1,3.1.2left.bmp,1.3.2right.bmp,,ACC021,"[2, -2, 0]","[-2, 2, 0]",[],non-match,0.18350341907227385,1,-3.722176381630617,0.4010844534731803,-1.337260453713586,1st,3rd,1st,-1.2448627063770197,0.2873783451117508,-1.4092803045534497
perc,resp,1025,0,3.1.1left.bmp,2.3.2right.bmp,,ACC021,"[2, -2, -2]","[0, 2, 0]",[],non-match,0.29289321881345254,1,1.4747314492277626,1.3450161547133106,-1.4886546656948223,4th,4th,1st,1.2310375064099197,1.261180345269208,-1.4092803045534497
perc,resp,821,1,1.2.3left.bmp,2.2.1right.bmp,,ACC021,"[-2, 0, 2]","[0, 0, -2]",[],non-match,0.3545027756320971,2,0.7590909483189653,1.0270049443770217,-1.463840297649565,4th,4th,1st,1.2310375064099197,1.261180345269208,-1.4092803045534497
perc,resp,700,0,2.2.3left.bmp,1.1.3right.bmp,,ACC021,"[0, 0, 2]","[-2, -2, 2]",[],non-match,0.5917517095361369,3,0.21448323084158213,-1.0483810963782565,-1.3849340208690797,3rd,1st,1st,0.31880088143901353,-1.206448639709364,-1.4092803045534497
perc,resp,605,1,2.1.3left.bmp,2.1.3right.bmp,,ACC021,"[0, -2, 2]","[0, -2, 2]",[],match,1.0,,-0.5268429590779318,-0.911102796692717,-1.2630160916794646,2nd,1st,1st,-0.3049756814719136,-1.206448639709364,-1.4092803045534497
perc,resp,1012,1,2.2.2left.bmp,3.3.2right.bmp,,ACC021,"[0, 0, 0]","[2, 2, 0]",[],non-match,0.5917517095361369,3,-1.0097451387144838,-1.97409004289302,-1.1858292592601567,1st,1st,1st,-1.2448627063770197,-1.206448639709364,-1.4092803045534497
perc,resp,879,0,3.2.2left.bmp,3.2.2right.bmp,,ACC021,"[2, 0, 0]","[2, 0, 0]",[],match,1.0,,-0.914940347868695,-0.29157412089301454,-1.091578307475365,1st,2nd,1st,-1.2448627063770197,-0.34211005067159656,-1.4092803045534497
perc,resp,1418,1,1.1.1left.bmp,2.1.2right.bmp,,ACC021,"[-2, -2, -2]","[0, -2, 0]",[],non-match,0.5917517095361369,3,-0.08324866061642283,0.0035005712903175253,-1.274289097508313,2nd,3rd,1st,-0.3049756814719136,0.2873783451117508,-1.4092803045534497
perc,resp,793,0,1.2.2left.bmp,1.2.2right.bmp,,ACC021,"[-2, 0, 0]","[-2, 0, 0]",[],match,1.0,,0.07927243045424816,0.874140460174629,-0.9631517743617943,3rd,4th,1st,0.31880088143901353,1.261180345269208,-1.4092803045534497
perc,resp,630,0,3.2.3left.bmp,3.3.3right.bmp,,ACC021,"[2, 0, 2]","[2, 2, 2]",[],non-match,0.7113248654051871,4,0.8308281494047778,-0.6179219090854239,-0.947849540751518,4th,2nd,1st,1.2310375064099197,-0.34211005067159656,-1.4092803045534497
perc,resp,642,1,2.3.2left.bmp,2.3.2right.bmp,,ACC021,"[0, 2, 0]","[0, 2, 0]",[],match,1.0,,-1.6138837178706287,-1.5637248646532858,-0.9379402153812728,1st,1st,1st,-1.2448627063770197,-1.206448639709364,-1.4092803045534497
perc,resp,899,1,3.3.1left.bmp,2.2.2right.bmp,,ACC021,"[2, 2, -2]","[0, 0, 0]",[],non-match,0.5,3,1.132935010680587,1.5079485789467528,-1.0065669254627396,4th,4th,1st,1.2310375064099197,1.261180345269208,-1.4092803045534497
perc,resp,863,1,2.1.1left.bmp,2.1.1right.bmp,,ACC021,"[0, -2, -2]","[0, -2, -2]",[],match,1.0,,0.284628451537441,-0.4316608424779271,-1.6886082039153094,3rd,2nd,1st,0.31880088143901353,-0.34211005067159656,-1.4092803045534497
perc,resp,678,1,3.1.3left.bmp,1.3.3right.bmp,,ACC021,"[2, -2, 2]","[-2, 2, 2]",[],non-match,0.18350341907227385,1,0.8027569825736611,1.010721058382248,-1.3343360868849143,4th,4th,1st,1.2310375064099197,1.261180345269208,-1.4092803045534497
perc,resp,740,0,3.3.2left.bmp,2.1.3right.bmp,,ACC021,"[2, 2, 0]","[0, -2, 2]",[],non-match,0.29289321881345254,1,0.6603406690787518,-0.12806820573551073,-1.1893194541156034,3rd,2nd,1st,0.31880088143901353,-0.34211005067159656,-1.4092803045534497
perc,resp,815,1,1.3.2left.bmp,1.3.2right.bmp,,ACC021,"[-2, 2, 0]","[-2, 2, 0]",[],match,1.0,,1.6441673233634473,2.1654464876635076,-1.528291260066162,4th,4th,1st,1.2310375064099197,1.261180345269208,-1.4092803045534497
perc,resp,1084,0,2.3.1left.bmp,3.3.1right.bmp,,ACC021,"[0, 2, -2]","[2, 2, -2]",[],non-match,0.7113248654051871,4,0.43639638152463195,1.3345169731891753,-1.5169887696426043,3rd,4th,1st,0.31880088143901353,1.261180345269208,-1.4092803045534497
perc,resp,810,0,2.2.1left.bmp,2.3.2right.bmp,,ACC021,"[0, 0, -2]","[0, 2, 0]",[],non-match,0.5917517095361369,3,-0.07087458792107809,0.10941158956223133,-1.5012392548026379,2nd,3rd,1st,-0.3049756814719136,0.2873783451117508,-1.4092803045534497
perc,resp,753,1,1.3.3left.bmp,2.1.1right.bmp,,ACC021,"[-2, 2, 2]","[0, -2, -2]",[],non-match,0.1339745962155613,1,1.2044162845103565,0.669284945466105,-1.7247240133110915,4th,3rd,1st,1.2310375064099197,0.2873783451117508,-1.4092803045534497
perc,resp,700,1,3.2.1left.bmp,3.2.1right.bmp,,ACC021,"[2, 0, -2]","[2, 0, -2]",[],match,1.0,,2.1684174243320298,0.7963784951317072,-1.7374879573072841,4th,4th,1st,1.2310375064099197,1.261180345269208,-1.4092803045534497
perc,resp,723,0,2.3.3left.bmp,2.3.3right.bmp,,ACC021,"[0, 2, 2]","[0, 2, 2]",[],match,1.0,,1.4604269417968727,0.6484106476034517,-2.2775802509258254,4th,3rd,1st,1.2310375064099197,0.2873783451117508,-1.4092803045534497
perc,resp,909,1,1.1.3left.bmp,3.1.1right.bmp,,ACC021,"[-2, -2, 2]","[2, -2, -2]",[],non-match,0.18350341907227385,1,1.8952828599126885,-0.581748740425616,-2.0960107254761366,4th,2nd,1st,1.2310375064099197,-0.34211005067159656,-1.4092803045534497
