mode,type,rt,acc,item_1,item_2,item_cue,subj_idx,item_1_number,item_2_number,item_cue_number,trial_type,similarity,similarity_bin,ams,pams,slps,ams_quantile,pams_quantile,slps_quantile,ams_bin,pam_bin,slp_bin
perc,resp,1865,0,1.2.2left.bmp,1.3.3right.bmp,,ACC024,"[-2, 0, 0]","[-2, 2, 2]",[],non-match,0.5917517095361369,3,-1.7502670292647973,-1.8648971886677803,0.5115659146610192,1st,1st,3rd,-1.2548614456039358,-1.229192756963863,0.4335677678992648
perc,resp,2035,1,2.3.1left.bmp,2.3.1right.bmp,,ACC024,"[0, 2, -2]","[0, 2, -2]",[],match,1.0,,-1.0326055291367966,-1.514169433659944,-0.40833688696194353,1st,1st,2nd,-1.2548614456039358,-1.229192756963863,-0.19401081510778814
perc,resp,1984,1,1.1.2left.bmp,1.1.2right.bmp,,ACC024,"[-2, -2, 0]","[-2, -2, 0]",[],match,1.0,,-1.796161962442553,-1.3174460616902572,-0.656614251397087,1st,1st,1st,-1.2548614456039358,-1.229192756963863,-1.3923591976599365
perc,resp,1468,1,1.2.1left.bmp,1.2.1right.bmp,,ACC024,"[-2, 0, -2]","[-2, 0, -2]",[],match,1.0,,-0.8594269809900605,-0.9558055717334393,-0.6462920986394626,1st,1st,2nd,-1.2548614456039358,-1.229192756963863,-0.19401081510778814
perc,resp,2342,1,3.3.2left.bmp,3.3.2right.bmp,,ACC024,"[2, 2, 0]","[2, 2, 0]",[],match,1.0,,-1.0131846670434277,-2.3047343900805055,-0.7636038220232108,1st,1st,1st,-1.2548614456039358,-1.229192756963863,-1.3923591976599365
perc,resp,2142,1,1.2.3left.bmp,1.2.3right.bmp,,ACC024,"[-2, 0, 2]","[-2, 0, 2]",[],match,1.0,,-0.5621579849050076,-0.7640651550251105,-0.48078839420062675,2nd,1st,2nd,-0.31753420824804696,-1.229192756963863,-0.19401081510778814
perc,resp,1740,1,2.1.1left.bmp,2.1.1right.bmp,,ACC024,"[0, -2, -2]","[0, -2, -2]",[],match,1.0,,-0.891534831847863,-1.406675744721224,-0.5914122520583776,1st,1st,2nd,-1.2548614456039358,-1.229192756963863,-0.19401081510778814
perc,resp,2180,1,2.1.2left.bmp,2.1.2right.bmp,,ACC024,"[0, -2, 0]","[0, -2, 0]",[],match,1.0,,0.04392502947861724,-0.028988231416525078,-0.750646737237829,3rd,3rd,1st,0.29046206732582686,0.2944442428604455,-1.3923591976599365
perc,resp,1336,1,2.2.2left.bmp,1.2.2right.bmp,,ACC024,"[0, 0, 0]","[-2, 0, 0]",[],non-match,0.7113248654051871,4,0.26560293208212515,-0.5986757234402119,-0.08800740405482858,3rd,1st,2nd,0.29046206732582686,-1.229192756963863,-0.19401081510778814
perc,resp,2793,0,2.2.1left.bmp,3.2.3right.bmp,,ACC024,"[0, 0, -2]","[2, 0, 2]",[],non-match,0.3545027756320971,2,-2.2146151311422746,-1.952932722300825,0.5530563067445204,1st,1st,3rd,-1.2548614456039358,-1.229192756963863,0.4335677678992648
perc,resp,1286,1,3.1.1left.bmp,1.1.1right.bmp,,ACC024,"[2, -2, -2]","[-2, -2, -2]",[],non-match,0.42264973081037416,2,0.9271665878654249,0.19590976217710984,0.5782943061281648,4th,3rd,3rd,1.2819335865261556,0.2944442428604455,0.4335677678992648
perc,resp,2992,1,2.3.3left.bmp,2.3.3right.bmp,,ACC024,"[0, 2, 2]","[0, 2, 2]",[],match,1.0,,-1.6141362377262336,-1.2134200578940069,0.9801710286542314,1st,1st,4th,-1.2548614456039358,-1.229192756963863,1.1528022448684567
perc,resp,1507,1,3.3.1left.bmp,1.2.3right.bmp,,ACC024,"[2, 2, -2]","[-2, 0, 2]",[],non-match,0.1339745962155613,1,-1.6597944434190541,-1.7253881382880794,0.39510830109403916,1st,1st,3rd,-1.2548614456039358,-1.229192756963863,0.4335677678992648
perc,resp,1201,1,1.3.3left.bmp,2.2.2right.bmp,,ACC024,"[-2, 2, 2]","[0, 0, 0]",[],non-match,0.5,3,0.966445010030786,0.9500291744421137,0.419989544334094,4th,4th,3rd,1.2819335865261556,1.2422056251434084,0.4335677678992648
perc,resp,1240,1,1.3.1left.bmp,1.1.2right.bmp,,ACC024,"[-2, 2, -2]","[-2, -2, 0]",[],non-match,0.3545027756320971,2,0.8127251081534302,-0.7376039703295958,0.5107537599184617,4th,1st,3rd,1.2819335865261556,-1.229192756963863,0.4335677678992648
perc,resp,1243,1,3.1.3left.bmp,1.2.2right.bmp,,ACC024,"[2, -2, 2]","[-2, 0, 0]",[],non-match,0.29289321881345254,1,-0.38573309234516884,0.2369009639232895,0.6065607278529842,2nd,3rd,3rd,-0.31753420824804696,0.2944442428604455,0.4335677678992648
perc,resp,1808,1,1.1.1left.bmp,1.1.1right.bmp,,ACC024,"[-2, -2, -2]","[-2, -2, -2]",[],match,1.0,,-1.2278715268892433,-0.534678479073837,0.9252252273572245,1st,2nd,4th,-1.2548614456039358,-0.3074571110399906,1.1528022448684567
perc,resp,1072,1,3.2.3left.bmp,1.3.2right.bmp,,ACC024,"[2, 0, 2]","[-2, 2, 0]",[],non-match,0.29289321881345254,1,0.6304427206400629,-0.4367515749955488,1.46938942781196,3rd,2nd,4th,0.29046206732582686,-0.3074571110399906,1.1528022448684567
perc,resp,2029,0,3.3.3left.bmp,2.1.3right.bmp,,ACC024,"[2, 2, 2]","[0, -2, 2]",[],non-match,0.3545027756320971,2,-2.042640127955269,-1.8705078043399124,1.2974336936611583,1st,1st,4th,-1.2548614456039358,-1.229192756963863,1.1528022448684567
perc,resp,1039,1,1.1.3left.bmp,3.3.2right.bmp,,ACC024,"[-2, -2, 2]","[2, 2, 0]",[],non-match,0.1339745962155613,1,1.757309768734413,0.36974780595285267,1.4099386901661546,4th,3rd,4th,1.2819335865261556,0.2944442428604455,1.1528022448684567
perc,resp,3046,0,3.2.1left.bmp,3.3.1right.bmp,,ACC024,"[2, 0, -2]","[2, 2, -2]",[],non-match,0.7113248654051871,4,-0.44775668050713563,-0.5433456832190766,1.7583137174390866,2nd,2nd,4th,-0.31753420824804696,-0.3074571110399906,1.1528022448684567
perc,resp,2309,0,2.3.2left.bmp,2.3.2right.bmp,,ACC024,"[0, 2, 0]","[0, 2, 0]",[],match,1.0,,-1.091849863767621,1.2632918182294037,1.7394920711699555,1st,4th,4th,-1.2548614456039358,1.2422056251434084,1.1528022448684567
perc,resp,2117,1,1.3.2left.bmp,1.3.2right.bmp,,ACC024,"[-2, 2, 0]","[-2, 2, 0]",[],match,1.0,,-0.13315436158077804,-0.05881352587803378,2.2060014844958573,2nd,2nd,4th,-0.31753420824804696,-0.3074571110399906,1.1528022448684567
perc,resp,1836,1,3.1.2left.bmp,3.1.2right.bmp,,ACC024,"[2, -2, 0]","[2, -2, 0]",[],match,1.0,,-0.9087917521497666,0.05217279782312187,1.677127675221919,1st,3rd,4th,-1.2548614456039358,0.2944442428604455,1.1528022448684567
perc,resp,1278,1,3.2.2left.bmp,1.3.1right.bmp,,ACC024,"[2, 0, 0]","[-2, 2, -2]",[],non-match,0.29289321881345254,1,2.2775021077258017,0.43842628289661234,1.8074816363435726,4th,3rd,4th,1.2819335865261556,0.2944442428604455,1.1528022448684567
perc,resp,2510,1,2.1.3left.bmp,2.1.3right.bmp,,ACC024,"[0, -2, 2]","[0, -2, 2]",[],match,1.0,,-1.9416414404103877,-1.4050275421430656,1.8411746715421928,1st,1st,4th,-1.2548614456039358,-1.229192756963863,1.1528022448684567
perc,resp,1494,1,2.2.3left.bmp,2.2.3right.bmp,,ACC024,"[0, 0, 2]","[0, 0, 2]",[],match,1.0,,0.17192311245550315,-0.48111418027364256,1.9208171468005866,3rd,2nd,4th,0.29046206732582686,-0.3074571110399906,1.1528022448684567
perc,resp,1225,1,3.2.2left.bmp,3.2.2right.bmp,,ACC024,"[2, 0, 0]","[2, 0, 0]",[],match,1.0,,-0.5834060410898027,0.6217438691214398,2.1277232562673936,2nd,4th,4th,-0.31753420824804696,1.2422056251434084,1.1528022448684567
perc,resp,1901,0,2.2.1left.bmp,2.2.1right.bmp,,ACC024,"[0, 0, -2]","[0, 0, -2]",[],match,1.0,,-1.1011815582617253,-0.5219441553393689,2.0196681159753758,1st,2nd,4th,-1.2548614456039358,-0.3074571110399906,1.1528022448684567
perc,resp,1646,1,3.1.1left.bmp,3.1.1right.bmp,,ACC024,"[2, -2, -2]","[2, -2, -2]",[],match,1.0,,-0.28331795154339695,1.0422592995502404,2.008207875666609,2nd,4th,4th,-0.31753420824804696,1.2422056251434084,1.1528022448684567
perc,resp,1762,1,1.1.3left.bmp,1.3.1right.bmp,,ACC024,"[-2, -2, 2]","[-2, 2, -2]",[],non-match,0.18350341907227385,1,-0.4879669539151814,1.108111994757965,1.9278413640169427,2nd,4th,4th,-0.31753420824804696,1.2422056251434084,1.1528022448684567
perc,resp,1847,1,3.1.3left.bmp,3.1.3right.bmp,,ACC024,"[2, -2, 2]","[2, -2, 2]",[],match,1.0,,-3.0556793091027536,-3.251971310662567,2.1462015306396167,1st,1st,4th,-1.2548614456039358,-1.229192756963863,1.1528022448684567
perc,resp,1359,0,1.1.1left.bmp,2.1.2right.bmp,,ACC024,"[-2, -2, -2]","[0, -2, 0]",[],non-match,0.5917517095361369,3,0.3179539368136774,0.1686694836687622,1.332971108554758,3rd,3rd,4th,0.29046206732582686,0.2944442428604455,1.1528022448684567
perc,resp,2236,1,1.3.2left.bmp,1.3.2right.bmp,,ACC024,"[-2, 2, 0]","[-2, 2, 0]",[],match,1.0,,-1.4280914849161375,-1.319546233979866,1.2633271786443017,1st,1st,4th,-1.2548614456039358,-1.229192756963863,1.1528022448684567
perc,resp,2003,1,2.1.3left.bmp,2.2.1right.bmp,,ACC024,"[0, -2, 2]","[0, 0, -2]",[],non-match,0.3545027756320971,2,-1.6586724034550082,0.2508902216886888,1.1815840686166157,1st,3rd,4th,-1.2548614456039358,0.2944442428604455,1.1528022448684567
perc,resp,2683,1,2.3.2left.bmp,3.1.2right.bmp,,ACC024,"[0, 2, 0]","[2, -2, 0]",[],non-match,0.3545027756320971,2,-2.0571994258285557,-1.0927551148386518,0.8182878161678221,1st,1st,4th,-1.2548614456039358,-1.229192756963863,1.1528022448684567
perc,resp,1345,1,1.2.3left.bmp,3.3.1right.bmp,,ACC024,"[-2, 0, 2]","[2, 2, -2]",[],non-match,0.1339745962155613,1,0.21096285221399572,-0.1477777665348313,0.48977836551124815,3rd,2nd,3rd,0.29046206732582686,-0.3074571110399906,0.4335677678992648
perc,resp,2587,1,2.2.2left.bmp,2.2.2right.bmp,,ACC024,"[0, 0, 0]","[0, 0, 0]",[],match,1.0,,0.12783814842425825,-0.8144747765518683,0.658799470830248,3rd,1st,4th,0.29046206732582686,-1.229192756963863,1.1528022448684567
perc,resp,2439,0,2.3.3left.bmp,2.2.3right.bmp,,ACC024,"[0, 2, 2]","[0, 0, 2]",[],non-match,0.7113248654051871,4,-0.5498335234041082,-0.2764939740554488,0.29312200857503,2nd,2nd,3rd,-0.31753420824804696,-0.3074571110399906,0.4335677678992648
perc,resp,3054,1,3.3.2left.bmp,3.2.1right.bmp,,ACC024,"[2, 2, 0]","[2, 0, -2]",[],non-match,0.5917517095361369,3,0.5628858399294118,2.021601544520314,-0.04792988337810226,3rd,4th,2nd,0.29046206732582686,1.2422056251434084,-0.19401081510778814
perc,resp,2558,1,3.2.3left.bmp,2.2.1right.bmp,,ACC024,"[2, 0, 2]","[0, 0, -2]",[],non-match,0.3545027756320971,2,-1.4650645972782523,-0.002990844424521578,0.030470513990811975,1st,3rd,2nd,-1.2548614456039358,0.2944442428604455,-0.19401081510778814
perc,resp,2082,1,1.3.1left.bmp,1.3.1right.bmp,,ACC024,"[-2, 2, -2]","[-2, 2, -2]",[],match,1.0,,-1.6042081284607717,-0.3439564463062563,-0.25635653326750585,1st,2nd,2nd,-1.2548614456039358,-0.3074571110399906,-0.19401081510778814
perc,resp,1685,1,2.1.1left.bmp,1.2.1right.bmp,,ACC024,"[0, -2, -2]","[-2, 0, -2]",[],non-match,0.5917517095361369,3,-0.5310009539756377,0.15525202269788474,-0.42164589659841817,2nd,3rd,2nd,-0.31753420824804696,0.2944442428604455,-0.19401081510778814
perc,resp,1407,1,3.2.1left.bmp,1.2.2right.bmp,,ACC024,"[2, 0, -2]","[-2, 0, 0]",[],non-match,0.3545027756320971,2,-0.7362320726804433,-0.17900643486497528,-0.27464756723961264,1st,2nd,2nd,-1.2548614456039358,-0.3074571110399906,-0.19401081510778814
perc,resp,1285,1,2.3.1left.bmp,1.2.3right.bmp,,ACC024,"[0, 2, -2]","[-2, 0, 2]",[],non-match,0.29289321881345254,1,-0.3557161362697769,-0.8075037435219747,-0.4632140551737877,2nd,1st,2nd,-0.31753420824804696,-1.229192756963863,-0.19401081510778814
perc,resp,2536,1,3.3.3left.bmp,3.1.3right.bmp,,ACC024,"[2, 2, 2]","[2, -2, 2]",[],non-match,0.42264973081037416,2,0.023634905575456115,-0.14280571941894057,-0.06920772047265843,3rd,2nd,2nd,0.29046206732582686,-0.3074571110399906,-0.19401081510778814
perc,resp,1790,1,3.1.2left.bmp,3.1.2right.bmp,,ACC024,"[2, -2, 0]","[2, -2, 0]",[],match,1.0,,0.10258518715772016,1.1786893341017324,-0.009609351184599046,3rd,4th,2nd,0.29046206732582686,1.2422056251434084,-0.19401081510778814
perc,resp,2604,1,2.1.2left.bmp,3.2.2right.bmp,,ACC024,"[0, -2, 0]","[2, 0, 0]",[],non-match,0.5917517095361369,3,-0.797809118301212,0.7146493371474931,0.403812781543472,1st,4th,3rd,-1.2548614456039358,1.2422056251434084,0.4335677678992648
perc,resp,1296,1,3.3.1left.bmp,1.1.3right.bmp,,ACC024,"[2, 2, -2]","[-2, -2, 2]",[],non-match,0.0,1,0.5683412324626919,-1.347662135953274,0.17003577767531206,3rd,1st,2nd,0.29046206732582686,-1.229192756963863,-0.19401081510778814
perc,resp,1411,0,1.2.1left.bmp,3.3.3right.bmp,,ACC024,"[-2, 0, -2]","[2, 2, 2]",[],non-match,0.1339745962155613,1,-0.06385258655340835,0.08700309786149764,0.0621095050910033,2nd,3rd,2nd,-0.31753420824804696,0.2944442428604455,-0.19401081510778814
perc,resp,2169,0,2.2.3left.bmp,1.1.1right.bmp,,ACC024,"[0, 0, 2]","[-2, -2, -2]",[],non-match,0.29289321881345254,1,-0.3602241427571458,-0.3613440821861777,0.4592390174438615,2nd,2nd,3rd,-0.31753420824804696,-0.3074571110399906,0.4335677678992648
perc,resp,1773,1,1.2.2left.bmp,2.3.1right.bmp,,ACC024,"[-2, 0, 0]","[0, 2, -2]",[],non-match,0.5,3,1.6320105032855388,1.8635780104301238,1.0045055233160403,4th,4th,4th,1.2819335865261556,1.2422056251434084,1.1528022448684567
perc,resp,2190,1,1.3.3left.bmp,1.3.3right.bmp,,ACC024,"[-2, 2, 2]","[-2, 2, 2]",[],match,1.0,,0.3327926936837242,-0.13030260627645346,1.5924169182674042,3rd,2nd,4th,0.29046206732582686,-0.3074571110399906,1.1528022448684567
perc,resp,2320,1,1.1.2left.bmp,1.1.2right.bmp,,ACC024,"[-2, -2, 0]","[-2, -2, 0]",[],match,1.0,,-1.1615624737496233,-0.14475921355584048,1.1337373481872504,1st,2nd,4th,-1.2548614456039358,-0.3074571110399906,1.1528022448684567
perc,resp,1432,1,2.3.3left.bmp,2.3.3right.bmp,,ACC024,"[0, 2, 2]","[0, 2, 2]",[],match,1.0,,-0.17950643405059727,0.5720537171463564,1.035272650919253,2nd,3rd,4th,-0.31753420824804696,0.2944442428604455,1.1528022448684567
perc,resp,1583,0,3.3.2left.bmp,3.2.2right.bmp,,ACC024,"[2, 2, 0]","[2, 0, 0]",[],non-match,0.7113248654051871,4,-0.8164271702278192,0.5089344289743776,0.7866674282191195,1st,3rd,4th,-1.2548614456039358,0.2944442428604455,1.1528022448684567
perc,resp,2858,0,1.3.3left.bmp,1.3.3right.bmp,,ACC024,"[-2, 2, 2]","[-2, 2, 2]",[],match,1.0,,0.9396098075430113,0.4307097905858561,0.4594514232711815,4th,3rd,3rd,1.2819335865261556,0.2944442428604455,0.4335677678992648
perc,resp,2399,1,3.2.2left.bmp,3.2.2right.bmp,,ACC024,"[2, 0, 0]","[2, 0, 0]",[],match,1.0,,0.08586960225135178,-0.1935209120337935,0.9910538795651748,3rd,2nd,4th,0.29046206732582686,-0.3074571110399906,1.1528022448684567
perc,resp,1426,1,3.1.3left.bmp,1.3.2right.bmp,,ACC024,"[2, -2, 2]","[-2, 2, 0]",[],non-match,0.1339745962155613,1,0.24141025754916906,0.5870219549646927,1.2198425384017684,3rd,3rd,4th,0.29046206732582686,0.2944442428604455,1.1528022448684567
perc,resp,1539,1,3.2.1left.bmp,2.3.3right.bmp,,ACC024,"[2, 0, -2]","[0, 2, 2]",[],non-match,0.29289321881345254,1,-0.3994423902549705,1.110129234588816,0.42983804629273353,2nd,4th,3rd,-0.31753420824804696,1.2422056251434084,0.4335677678992648
perc,resp,2298,1,1.3.1left.bmp,1.3.1right.bmp,,ACC024,"[-2, 2, -2]","[-2, 2, -2]",[],match,1.0,,-2.601669373786974,-3.004355940511631,0.0719912186765483,1st,1st,2nd,-1.2548614456039358,-1.229192756963863,-0.19401081510778814
perc,resp,1994,1,2.1.2left.bmp,3.1.2right.bmp,,ACC024,"[0, -2, 0]","[2, -2, 0]",[],non-match,0.7113248654051871,4,-0.8196452301386559,-0.23607001212526163,0.010928766022207919,1st,2nd,2nd,-1.2548614456039358,-0.3074571110399906,-0.19401081510778814
perc,resp,1516,1,2.2.3left.bmp,2.2.3right.bmp,,ACC024,"[0, 0, 2]","[0, 0, 2]",[],match,1.0,,0.19710991958457386,-0.37334214510571656,-0.7200824806362915,3rd,2nd,1st,0.29046206732582686,-0.3074571110399906,-1.3923591976599365
perc,resp,1741,1,1.2.1left.bmp,1.2.1right.bmp,,ACC024,"[-2, 0, -2]","[-2, 0, -2]",[],match,1.0,,-0.8417264085285312,-0.4295823329016726,-0.3334205734943367,1st,2nd,2nd,-1.2548614456039358,-0.3074571110399906,-0.19401081510778814
perc,resp,1413,1,3.1.1left.bmp,3.1.1right.bmp,,ACC024,"[2, -2, -2]","[2, -2, -2]",[],match,1.0,,0.2726386892010141,-0.41779679029894456,-0.03201912336771185,3rd,2nd,2nd,0.29046206732582686,-0.3074571110399906,-0.19401081510778814
perc,resp,1272,1,2.2.1left.bmp,1.1.2right.bmp,,ACC024,"[0, 0, -2]","[-2, -2, 0]",[],non-match,0.5,3,1.165935764600662,0.5218958800595449,0.0884601391434562,4th,3rd,2nd,1.2819335865261556,0.2944442428604455,-0.19401081510778814
perc,resp,1756,0,2.1.1left.bmp,1.1.1right.bmp,,ACC024,"[0, -2, -2]","[-2, -2, -2]",[],non-match,0.7113248654051871,4,-0.5519354629502651,0.11269668195108387,-1.2986251258325393e-05,2nd,3rd,2nd,-0.31753420824804696,0.2944442428604455,-0.19401081510778814
perc,resp,1940,1,2.3.3left.bmp,2.3.3right.bmp,,ACC024,"[0, 2, 2]","[0, 2, 2]",[],match,1.0,,-1.5247730266482582,-1.6035429247922346,-0.10853431860341792,1st,1st,2nd,-1.2548614456039358,-1.229192756963863,-0.19401081510778814
perc,resp,1251,1,1.1.3left.bmp,1.3.1right.bmp,,ACC024,"[-2, -2, 2]","[-2, 2, -2]",[],non-match,0.18350341907227385,1,1.2333756813786054,-0.3319541189389067,-1.0200907042554763,4th,2nd,1st,1.2819335865261556,-0.3074571110399906,-1.3923591976599365
perc,resp,1886,1,1.1.2left.bmp,1.1.2right.bmp,,ACC024,"[-2, -2, 0]","[-2, -2, 0]",[],match,1.0,,-0.7934940949477182,-1.0673791817306735,-1.1430657833861106,1st,1st,1st,-1.2548614456039358,-1.229192756963863,-1.3923591976599365
perc,resp,1738,1,3.1.2left.bmp,3.1.2right.bmp,,ACC024,"[2, -2, 0]","[2, -2, 0]",[],match,1.0,,-1.0482678311973963,-0.3173787303737679,-1.3070881848585851,1st,2nd,1st,-1.2548614456039358,-0.3074571110399906,-1.3923591976599365
perc,resp,1379,1,1.2.2left.bmp,2.3.1right.bmp,,ACC024,"[-2, 0, 0]","[0, 2, -2]",[],non-match,0.5,3,0.3654683433598609,0.4114793411916346,-1.304540209555249,3rd,3rd,1st,0.29046206732582686,0.2944442428604455,-1.3923591976599365
perc,resp,1987,1,3.2.3left.bmp,3.2.3right.bmp,,ACC024,"[2, 0, 2]","[2, 0, 2]",[],match,1.0,,-0.397836739962397,-0.8635696610177639,-1.484645276603388,2nd,1st,1st,-0.31753420824804696,-1.229192756963863,-1.3923591976599365
perc,resp,1145,1,3.3.3left.bmp,1.3.3right.bmp,,ACC024,"[2, 2, 2]","[-2, 2, 2]",[],non-match,0.42264973081037416,2,-0.06838366836432108,-0.8822648572049148,-2.0109765408040237,2nd,1st,1st,-0.31753420824804696,-1.229192756963863,-1.3923591976599365
perc,resp,1627,1,1.2.3left.bmp,1.2.1right.bmp,,ACC024,"[-2, 0, 2]","[-2, 0, -2]",[],non-match,0.42264973081037416,2,-0.6185382612121546,-0.5654273580211799,-1.7096563794891195,1st,1st,1st,-1.2548614456039358,-1.229192756963863,-1.3923591976599365
perc,resp,1206,1,1.1.1left.bmp,3.1.2right.bmp,,ACC024,"[-2, -2, -2]","[2, -2, 0]",[],non-match,0.3545027756320971,2,0.7690029676311312,-0.5026467294119249,-1.8030271993622191,4th,2nd,1st,1.2819335865261556,-0.3074571110399906,-1.3923591976599365
perc,resp,1425,1,1.3.2left.bmp,1.3.2right.bmp,,ACC024,"[-2, 2, 0]","[-2, 2, 0]",[],match,1.0,,0.6794736912289189,1.2948654777871615,-2.1091133154780914,3rd,4th,1st,0.29046206732582686,1.2422056251434084,-1.3923591976599365
perc,resp,1731,1,3.3.1left.bmp,3.3.1right.bmp,,ACC024,"[2, 2, -2]","[2, 2, -2]",[],match,1.0,,-2.4558965226328016,-1.9934128371276414,-1.829220162974948,1st,1st,1st,-1.2548614456039358,-1.229192756963863,-1.3923591976599365
perc,resp,1734,1,3.3.2left.bmp,3.3.2right.bmp,,ACC024,"[2, 2, 0]","[2, 2, 0]",[],match,1.0,,0.0019384286043290164,-0.6790926520416678,-1.6429354185023186,3rd,1st,1st,0.29046206732582686,-1.229192756963863,-1.3923591976599365
perc,resp,1365,1,2.3.2left.bmp,1.1.2right.bmp,,ACC024,"[0, 2, 0]","[-2, -2, 0]",[],non-match,0.3545027756320971,2,1.1613957711182568,-1.0710508274160901,-1.7687770925727657,4th,1st,1st,1.2819335865261556,-1.229192756963863,-1.3923591976599365
perc,resp,2000,1,2.1.3left.bmp,3.2.1right.bmp,,ACC024,"[0, -2, 2]","[2, 0, -2]",[],non-match,0.29289321881345254,1,-0.17930654825506565,1.422328262685561,-1.750340421947672,2nd,4th,1st,-0.31753420824804696,1.2422056251434084,-1.3923591976599365
perc,resp,2429,1,2.2.2left.bmp,2.2.2right.bmp,,ACC024,"[0, 0, 0]","[0, 0, 0]",[],match,1.0,,-0.6990448314608327,-0.5072634232120766,-1.619908851045255,1st,2nd,1st,-1.2548614456039358,-0.3074571110399906,-1.3923591976599365
perc,resp,2299,0,3.3.3left.bmp,3.2.2right.bmp,,ACC024,"[2, 2, 2]","[2, 0, 0]",[],non-match,0.5917517095361369,3,-1.1112633987870835,-0.35483103524951654,-1.6883494550171199,1st,2nd,1st,-1.2548614456039358,-0.3074571110399906,-1.3923591976599365
perc,resp,1482,1,2.3.3left.bmp,2.3.3right.bmp,,ACC024,"[0, 2, 2]","[0, 2, 2]",[],match,1.0,,1.0466248163408982,1.091298369155004,-1.2377493777283357,4th,4th,1st,1.2819335865261556,1.2422056251434084,-1.3923591976599365
perc,resp,2239,1,1.3.1left.bmp,1.3.1right.bmp,,ACC024,"[-2, 2, -2]","[-2, 2, -2]",[],match,1.0,,0.8341954624107546,-0.10352249727811924,-1.407461473465478,4th,2nd,1st,1.2819335865261556,-0.3074571110399906,-1.3923591976599365
perc,resp,1311,1,2.1.1left.bmp,1.1.3right.bmp,,ACC024,"[0, -2, -2]","[-2, -2, 2]",[],non-match,0.3545027756320971,2,0.21412901115835514,-0.30449227116351596,-1.1127363895554265,3rd,2nd,1st,0.29046206732582686,-0.3074571110399906,-1.3923591976599365
perc,resp,1964,1,1.2.2left.bmp,2.2.1right.bmp,,ACC024,"[-2, 0, 0]","[0, 0, -2]",[],non-match,0.5917517095361369,3,-0.4243626338181108,-0.48339152541821645,-0.6472742115317277,2nd,2nd,1st,-0.31753420824804696,-0.3074571110399906,-1.3923591976599365
perc,resp,1871,1,1.3.2left.bmp,2.1.2right.bmp,,ACC024,"[-2, 2, 0]","[0, -2, 0]",[],non-match,0.3545027756320971,2,-0.7293164081421031,-0.4691080045021712,-0.810723243887893,1st,2nd,1st,-1.2548614456039358,-0.3074571110399906,-1.3923591976599365
perc,resp,1555,1,1.3.3left.bmp,1.3.3right.bmp,,ACC024,"[-2, 2, 2]","[-2, 2, 2]",[],match,1.0,,-1.0845196322639157,-1.3208745525919303,-0.8454706012026567,1st,1st,1st,-1.2548614456039358,-1.229192756963863,-1.3923591976599365
perc,resp,1204,1,3.1.1left.bmp,3.1.1right.bmp,,ACC024,"[2, -2, -2]","[2, -2, -2]",[],match,1.0,,0.39923139496325216,-0.6052014987134791,-0.6058415410108581,3rd,1st,2nd,0.29046206732582686,-1.229192756963863,-0.19401081510778814
perc,resp,1484,0,2.2.1left.bmp,2.2.2right.bmp,,ACC024,"[0, 0, -2]","[0, 0, 0]",[],non-match,0.7113248654051871,4,-0.6039666878267025,0.2772496576995493,-0.2725010070107837,1st,3rd,2nd,-1.2548614456039358,0.2944442428604455,-0.19401081510778814
perc,resp,1678,1,2.1.3left.bmp,3.1.2right.bmp,,ACC024,"[0, -2, 2]","[2, -2, 0]",[],non-match,0.5917517095361369,3,-0.15416368453452192,0.25335741276903123,0.22433812337110512,2nd,3rd,3rd,-0.31753420824804696,0.2944442428604455,0.4335677678992648
perc,resp,2255,1,2.2.3left.bmp,2.3.2right.bmp,,ACC024,"[0, 0, 2]","[0, 2, 0]",[],non-match,0.5917517095361369,3,-1.3980145430061646,-0.27946854341570915,0.423545590096105,1st,2nd,3rd,-1.2548614456039358,-0.3074571110399906,0.4335677678992648
perc,resp,1883,1,3.3.1left.bmp,3.3.1right.bmp,,ACC024,"[2, 2, -2]","[2, 2, -2]",[],match,1.0,,0.08525084856240503,0.08689685070445752,0.6872072732525881,3rd,3rd,4th,0.29046206732582686,0.2944442428604455,1.1528022448684567
perc,resp,2037,1,2.3.1left.bmp,2.3.1right.bmp,,ACC024,"[0, 2, -2]","[0, 2, -2]",[],match,1.0,,-1.0282218289310792,-0.13707033614493208,0.5822291988961981,1st,2nd,3rd,-1.2548614456039358,-0.3074571110399906,0.4335677678992648
perc,resp,1450,1,3.1.3left.bmp,3.1.3right.bmp,,ACC024,"[2, -2, 2]","[2, -2, 2]",[],match,1.0,,-0.5537989301808515,-0.03207706977620115,0.9346792254239027,2nd,2nd,4th,-0.31753420824804696,-0.3074571110399906,1.1528022448684567
perc,resp,2138,1,2.3.2left.bmp,2.3.3right.bmp,,ACC024,"[0, 2, 0]","[0, 2, 2]",[],non-match,0.7113248654051871,4,0.9202725046200073,0.6400416265734513,0.6568358519330411,4th,4th,4th,1.2819335865261556,1.2422056251434084,1.1528022448684567
perc,resp,1996,1,1.1.3left.bmp,1.2.1right.bmp,,ACC024,"[-2, -2, 2]","[-2, 0, -2]",[],non-match,0.3545027756320971,2,-0.2988962766316951,-0.32476345059505507,0.7721262083174358,2nd,2nd,4th,-0.31753420824804696,-0.3074571110399906,1.1528022448684567
perc,resp,1899,1,3.2.3left.bmp,3.2.3right.bmp,,ACC024,"[2, 0, 2]","[2, 0, 2]",[],match,1.0,,0.8682936089637863,2.015520857985926,0.15660065535208065,4th,4th,2nd,1.2819335865261556,1.2422056251434084,-0.19401081510778814
perc,resp,2015,1,1.2.3left.bmp,2.2.3right.bmp,,ACC024,"[-2, 0, 2]","[0, 0, 2]",[],non-match,0.7113248654051871,4,-0.08799118689521956,-0.38151904176364615,0.9334873409686653,2nd,2nd,4th,-0.31753420824804696,-0.3074571110399906,1.1528022448684567
perc,resp,1357,1,2.2.2left.bmp,3.3.1right.bmp,,ACC024,"[0, 0, 0]","[2, 2, -2]",[],non-match,0.5,3,0.9866950766703111,-0.539166745387787,0.8632745874896914,4th,2nd,4th,1.2819335865261556,-0.3074571110399906,1.1528022448684567
perc,resp,1227,1,1.2.1left.bmp,2.2.1right.bmp,,ACC024,"[-2, 0, -2]","[0, 0, -2]",[],non-match,0.7113248654051871,4,0.370939209536685,0.3128745946829458,0.492880200468499,3rd,3rd,3rd,0.29046206732582686,0.2944442428604455,0.4335677678992648
perc,resp,1268,1,3.3.2left.bmp,2.1.1right.bmp,,ACC024,"[2, 2, 0]","[0, -2, -2]",[],non-match,0.29289321881345254,1,0.9645619156075558,0.9539281798776335,0.047666339320858904,4th,4th,2nd,1.2819335865261556,1.2422056251434084,-0.19401081510778814
perc,resp,1106,1,3.2.1left.bmp,3.2.1right.bmp,,ACC024,"[2, 0, -2]","[2, 0, -2]",[],match,1.0,,0.13544009581541117,-0.8042940387825905,-0.41088797245676445,3rd,1st,2nd,0.29046206732582686,-1.229192756963863,-0.19401081510778814
perc,resp,1618,0,3.2.2left.bmp,3.2.2right.bmp,,ACC024,"[2, 0, 0]","[2, 0, 0]",[],match,1.0,,-0.35325392499035824,0.5440247758203328,0.319503751008174,2nd,3rd,3rd,-0.31753420824804696,0.2944442428604455,0.4335677678992648
perc,resp,1581,0,3.1.2left.bmp,3.1.3right.bmp,,ACC024,"[2, -2, 0]","[2, -2, 2]",[],non-match,0.7113248654051871,4,0.3619428533706946,0.7419932105343641,0.46969359783889586,3rd,4th,3rd,0.29046206732582686,1.2422056251434084,0.4335677678992648
perc,resp,2179,1,1.1.2left.bmp,1.1.2right.bmp,,ACC024,"[-2, -2, 0]","[-2, -2, 0]",[],match,1.0,,0.9061237309904275,0.3033841700911244,0.23634297086740946,4th,3rd,3rd,1.2819335865261556,0.2944442428604455,0.4335677678992648
perc,resp,1422,1,2.1.2left.bmp,2.1.2right.bmp,,ACC024,"[0, -2, 0]","[0, -2, 0]",[],match,1.0,,-0.6075732291626754,-0.9987313798831132,0.19217197682733173,1st,1st,2nd,-1.2548614456039358,-1.229192756963863,-0.19401081510778814
perc,resp,1613,1,1.1.1left.bmp,3.2.1right.bmp,,ACC024,"[-2, -2, -2]","[2, 0, -2]",[],non-match,0.3545027756320971,2,1.7466657503951621,-0.4680781728592972,-0.5780957475401449,4th,2nd,2nd,1.2819335865261556,-0.3074571110399906,-0.19401081510778814
perc,resp,1655,1,1.2.3left.bmp,1.2.3right.bmp,,ACC024,"[-2, 0, 2]","[-2, 0, 2]",[],match,1.0,,-0.6202613565193337,-0.09416659781281496,-0.5601120938745641,1st,2nd,2nd,-1.2548614456039358,-0.3074571110399906,-0.19401081510778814
perc,resp,1407,1,1.1.3left.bmp,1.1.3right.bmp,,ACC024,"[-2, -2, 2]","[-2, -2, 2]",[],match,1.0,,1.2024634352089574,0.33477555050770486,-0.009292308407327907,4th,3rd,2nd,1.2819335865261556,0.2944442428604455,-0.19401081510778814
perc,resp,1842,1,2.1.2left.bmp,2.1.2right.bmp,,ACC024,"[0, -2, 0]","[0, -2, 0]",[],match,1.0,,0.610544622086877,0.6955176721266428,-0.12520619787667875,3rd,4th,2nd,0.29046206732582686,1.2422056251434084,-0.19401081510778814
perc,resp,1453,1,1.1.2left.bmp,3.2.2right.bmp,,ACC024,"[-2, -2, 0]","[2, 0, 0]",[],non-match,0.3545027756320971,2,1.5950186446914174,0.5589323232655572,0.3183002766679267,4th,3rd,3rd,1.2819335865261556,0.2944442428604455,0.4335677678992648
perc,resp,1574,1,1.3.3left.bmp,1.3.3right.bmp,,ACC024,"[-2, 2, 2]","[-2, 2, 2]",[],match,1.0,,-1.0793981381541964,0.7064444875542188,1.0165585084943816,1st,4th,4th,-1.2548614456039358,1.2422056251434084,1.1528022448684567
perc,resp,1113,0,1.2.1left.bmp,1.3.2right.bmp,,ACC024,"[-2, 0, -2]","[-2, 2, 0]",[],non-match,0.5917517095361369,3,-0.5767106114274647,-0.14935221561811698,0.5357077864013771,2nd,2nd,3rd,-0.31753420824804696,-0.3074571110399906,0.4335677678992648
perc,resp,1858,1,2.1.3left.bmp,2.1.3right.bmp,,ACC024,"[0, -2, 2]","[0, -2, 2]",[],match,1.0,,-1.036446641384769,-1.9692757667379417,0.035591137468957194,1st,1st,2nd,-1.2548614456039358,-1.229192756963863,-0.19401081510778814
perc,resp,1736,1,1.2.3left.bmp,3.2.3right.bmp,,ACC024,"[-2, 0, 2]","[2, 0, 2]",[],non-match,0.42264973081037416,2,1.0330808947545542,1.041072066878646,0.14782186527039848,4th,4th,2nd,1.2819335865261556,1.2422056251434084,-0.19401081510778814
perc,resp,1570,0,2.3.1left.bmp,3.3.2right.bmp,,ACC024,"[0, 2, -2]","[2, 2, 0]",[],non-match,0.5917517095361369,3,-0.30291724839875517,-0.12600500417169913,0.3386557572604443,2nd,2nd,3rd,-0.31753420824804696,-0.3074571110399906,0.4335677678992648
perc,resp,1996,0,1.1.1left.bmp,1.3.1right.bmp,,ACC024,"[-2, -2, -2]","[-2, 2, -2]",[],non-match,0.42264973081037416,2,-0.8411622483625132,-0.3861276487145959,-0.016670280995711842,1st,2nd,2nd,-1.2548614456039358,-0.3074571110399906,-0.19401081510778814
perc,resp,2446,0,2.3.3left.bmp,2.3.3right.bmp,,ACC024,"[0, 2, 2]","[0, 2, 2]",[],match,1.0,,0.052673720037671345,0.869063172182298,0.3784581478299356,3rd,4th,3rd,0.29046206732582686,1.2422056251434084,0.4335677678992648
perc,resp,1388,1,3.1.2left.bmp,3.1.2right.bmp,,ACC024,"[2, -2, 0]","[2, -2, 0]",[],match,1.0,,-1.3758939563629131,-1.345430837378437,0.31607613316961425,1st,1st,3rd,-1.2548614456039358,-1.229192756963863,0.4335677678992648
perc,resp,1237,1,2.2.3left.bmp,1.1.3right.bmp,,ACC024,"[0, 0, 2]","[-2, -2, 2]",[],non-match,0.5917517095361369,3,1.6233106589826052,0.5908329151545594,0.4692491166664567,4th,3rd,3rd,1.2819335865261556,0.2944442428604455,0.4335677678992648
perc,resp,1680,1,3.1.1left.bmp,3.1.1right.bmp,,ACC024,"[2, -2, -2]","[2, -2, -2]",[],match,1.0,,-0.39334269319529624,0.6835930279168204,0.3309506472543032,2nd,4th,3rd,-0.31753420824804696,1.2422056251434084,0.4335677678992648
perc,resp,1522,1,1.2.1left.bmp,1.2.1right.bmp,,ACC024,"[-2, 0, -2]","[-2, 0, -2]",[],match,1.0,,-0.46849289797792654,0.4749541386957359,0.4199890337157799,2nd,3rd,3rd,-0.31753420824804696,0.2944442428604455,0.4335677678992648
perc,resp,945,0,1.3.2left.bmp,1.1.1right.bmp,,ACC024,"[-2, 2, 0]","[-2, -2, -2]",[],non-match,0.3545027756320971,2,0.31007360407508955,0.18171983808969028,0.04687016945286955,3rd,3rd,2nd,0.29046206732582686,0.2944442428604455,-0.19401081510778814
perc,resp,842,1,3.2.1left.bmp,3.2.1right.bmp,,ACC024,"[2, 0, -2]","[2, 0, -2]",[],match,1.0,,0.7682737111783308,0.8911990366748738,0.2033599810173095,4th,4th,3rd,1.2819335865261556,1.2422056251434084,0.4335677678992648
perc,resp,1060,1,3.1.3left.bmp,3.1.3right.bmp,,ACC024,"[2, -2, 2]","[2, -2, 2]",[],match,1.0,,-0.20015459798091997,-0.14990687011252196,0.3322361523997781,2nd,2nd,3rd,-0.31753420824804696,-0.3074571110399906,0.4335677678992648
perc,resp,997,1,2.1.3left.bmp,2.1.3right.bmp,,ACC024,"[0, -2, 2]","[0, -2, 2]",[],match,1.0,,0.16273467322370164,-0.9304774755238252,0.738526112314784,3rd,1st,4th,0.29046206732582686,-1.229192756963863,1.1528022448684567
perc,resp,990,1,1.1.3left.bmp,1.1.3right.bmp,,ACC024,"[-2, -2, 2]","[-2, -2, 2]",[],match,1.0,,1.176829673119218,-0.32737173249137846,0.8767903426734557,4th,2nd,4th,1.2819335865261556,-0.3074571110399906,1.1528022448684567
perc,resp,1131,1,3.2.3left.bmp,3.2.2right.bmp,,ACC024,"[2, 0, 2]","[2, 0, 0]",[],non-match,0.7113248654051871,4,0.6369432225301923,0.19367610161986523,0.48108377394023255,3rd,3rd,3rd,0.29046206732582686,0.2944442428604455,0.4335677678992648
perc,resp,1050,1,2.3.2left.bmp,3.2.1right.bmp,,ACC024,"[0, 2, 0]","[2, 0, -2]",[],non-match,0.5,3,0.8477487502089116,0.05211676843946266,0.5710169217983466,4th,3rd,3rd,1.2819335865261556,0.2944442428604455,0.4335677678992648
perc,resp,1119,0,1.3.3left.bmp,1.3.3right.bmp,,ACC024,"[-2, 2, 2]","[-2, 2, 2]",[],match,1.0,,0.9151305115844033,1.6750085487045576,0.4476218966973613,4th,4th,3rd,1.2819335865261556,1.2422056251434084,0.4335677678992648
perc,resp,1459,1,1.1.2left.bmp,1.1.2right.bmp,,ACC024,"[-2, -2, 0]","[-2, -2, 0]",[],match,1.0,,-0.5917892151352838,-1.623724521566677,0.25414024383968353,2nd,1st,3rd,-0.31753420824804696,-1.229192756963863,0.4335677678992648
perc,resp,1670,1,1.2.2left.bmp,2.2.2right.bmp,,ACC024,"[-2, 0, 0]","[0, 0, 0]",[],non-match,0.7113248654051871,4,1.3950404633950044,0.5431983050324316,0.720971255143466,4th,3rd,4th,1.2819335865261556,0.2944442428604455,1.1528022448684567
perc,resp,1343,1,2.1.2left.bmp,3.1.2right.bmp,,ACC024,"[0, -2, 0]","[2, -2, 0]",[],non-match,0.7113248654051871,4,0.8394302306041911,1.1323676538506935,0.519312196291801,4th,4th,3rd,1.2819335865261556,1.2422056251434084,0.4335677678992648
perc,resp,1111,0,3.2.2left.bmp,2.1.3right.bmp,,ACC024,"[2, 0, 0]","[0, -2, 2]",[],non-match,0.5,3,0.16918518844988542,1.027757732737142,0.9830190061567887,3rd,4th,4th,0.29046206732582686,1.2422056251434084,1.1528022448684567
perc,resp,1836,1,3.3.1left.bmp,3.1.3right.bmp,,ACC024,"[2, 2, -2]","[2, -2, 2]",[],non-match,0.18350341907227385,1,0.43690237065105764,0.18856674708528853,0.9122574827380949,3rd,3rd,4th,0.29046206732582686,0.2944442428604455,1.1528022448684567
perc,resp,1497,0,2.1.1left.bmp,2.1.1right.bmp,,ACC024,"[0, -2, -2]","[0, -2, -2]",[],match,1.0,,-0.006169436216715056,-0.18781301364597947,0.7831418099464725,2nd,2nd,4th,-0.31753420824804696,-0.3074571110399906,1.1528022448684567
perc,resp,1156,1,3.3.3left.bmp,3.1.1right.bmp,,ACC024,"[2, 2, 2]","[2, -2, -2]",[],non-match,0.18350341907227385,1,1.0794647762894298,-0.46118034401659336,0.9185163395232191,4th,2nd,4th,1.2819335865261556,-0.3074571110399906,1.1528022448684567
perc,resp,1338,0,2.2.1left.bmp,2.2.1right.bmp,,ACC024,"[0, 0, -2]","[0, 0, -2]",[],match,1.0,,0.24898887853171345,-1.1527353306258676,0.6689407537905633,3rd,1st,4th,0.29046206732582686,-1.229192756963863,1.1528022448684567
perc,resp,2476,1,1.3.1left.bmp,1.3.1right.bmp,,ACC024,"[-2, 2, -2]","[-2, 2, -2]",[],match,1.0,,-0.20776908991158413,0.2573611832059496,0.7481309685606597,2nd,3rd,4th,-0.31753420824804696,0.2944442428604455,1.1528022448684567
perc,resp,1691,0,2.2.2left.bmp,2.3.1right.bmp,,ACC024,"[0, 0, 0]","[0, 2, -2]",[],non-match,0.5917517095361369,3,0.43864392792275514,1.5972189359981908,0.9110253337223512,3rd,4th,4th,0.29046206732582686,1.2422056251434084,1.1528022448684567
perc,resp,2048,1,3.3.2left.bmp,2.1.3right.bmp,,ACC024,"[2, 2, 0]","[0, -2, 2]",[],non-match,0.29289321881345254,1,-0.3120243883435454,-0.8442425456601254,0.7337667025572882,2nd,1st,4th,-0.31753420824804696,-1.229192756963863,1.1528022448684567
perc,resp,1277,1,2.2.3left.bmp,1.1.2right.bmp,,ACC024,"[0, 0, 2]","[-2, -2, 0]",[],non-match,0.5,3,-0.5171892991385643,-0.7812074681436281,0.839945951131506,2nd,1st,4th,-0.31753420824804696,-1.229192756963863,1.1528022448684567
perc,resp,1278,1,1.1.1left.bmp,2.3.3right.bmp,,ACC024,"[-2, -2, -2]","[0, 2, 2]",[],non-match,0.1339745962155613,1,0.26470268898062055,0.13219371133893626,0.8436765950722726,3rd,3rd,4th,0.29046206732582686,0.2944442428604455,1.1528022448684567
perc,resp,1781,1,3.1.3left.bmp,2.2.1right.bmp,,ACC024,"[2, -2, 2]","[0, 0, -2]",[],non-match,0.29289321881345254,1,-0.5824406967968532,-1.1716387534289465,0.9205524269568157,2nd,1st,4th,-0.31753420824804696,-1.229192756963863,1.1528022448684567
perc,resp,1555,1,2.2.2left.bmp,1.2.1right.bmp,,ACC024,"[0, 0, 0]","[-2, 0, -2]",[],non-match,0.5917517095361369,3,0.13494775140351428,-0.8251527848521468,0.7865407293369435,3rd,1st,4th,0.29046206732582686,-1.229192756963863,1.1528022448684567
perc,resp,1354,0,2.1.1left.bmp,2.1.1right.bmp,,ACC024,"[0, -2, -2]","[0, -2, -2]",[],match,1.0,,1.3085778668325923,1.8222519227674923,0.5610444908001486,4th,4th,3rd,1.2819335865261556,1.2422056251434084,0.4335677678992648
perc,resp,1407,1,1.2.3left.bmp,2.1.3right.bmp,,ACC024,"[-2, 0, 2]","[0, -2, 2]",[],non-match,0.5917517095361369,3,-1.7310178015975028,-1.6736379654897025,0.3160032695285884,1st,1st,3rd,-1.2548614456039358,-1.229192756963863,0.4335677678992648
perc,resp,1488,1,2.2.1left.bmp,3.1.3right.bmp,,ACC024,"[0, 0, -2]","[2, -2, 2]",[],non-match,0.29289321881345254,1,1.7770778650199135,0.5065326867668375,0.38837419861524647,4th,3rd,3rd,1.2819335865261556,0.2944442428604455,0.4335677678992648
perc,resp,1298,1,1.1.3left.bmp,2.2.3right.bmp,,ACC024,"[-2, -2, 2]","[0, 0, 2]",[],non-match,0.5917517095361369,3,-0.4403560240143234,-0.9142837615179337,0.037186371875790956,2nd,1st,2nd,-0.31753420824804696,-1.229192756963863,-0.19401081510778814
perc,resp,1813,1,3.3.1left.bmp,3.1.1right.bmp,,ACC024,"[2, 2, -2]","[2, -2, -2]",[],non-match,0.42264973081037416,2,-0.09330098759360628,0.7657037223810463,0.2217490108820886,2nd,4th,3rd,-0.31753420824804696,1.2422056251434084,0.4335677678992648
perc,resp,1554,1,3.1.2left.bmp,3.2.2right.bmp,,ACC024,"[2, -2, 0]","[2, 0, 0]",[],non-match,0.7113248654051871,4,-0.25783664322404337,0.08549023299518581,0.6523238304738054,2nd,3rd,3rd,-0.31753420824804696,0.2944442428604455,0.4335677678992648
perc,resp,1770,0,2.1.2left.bmp,2.1.2right.bmp,,ACC024,"[0, -2, 0]","[0, -2, 0]",[],match,1.0,,-0.28363952027464406,0.18102176878526094,0.7951690265754416,2nd,3rd,4th,-0.31753420824804696,0.2944442428604455,1.1528022448684567
perc,resp,1299,1,2.3.2left.bmp,2.3.2right.bmp,,ACC024,"[0, 2, 0]","[0, 2, 0]",[],match,1.0,,0.22637543055481446,-0.46730242689802276,1.112693072843952,3rd,2nd,4th,0.29046206732582686,-0.3074571110399906,1.1528022448684567
perc,resp,1078,1,1.3.3left.bmp,1.3.3right.bmp,,ACC024,"[-2, 2, 2]","[-2, 2, 2]",[],match,1.0,,-0.10578274247396023,-1.3824201506353218,1.0107007373856443,2nd,1st,4th,-0.31753420824804696,-1.229192756963863,1.1528022448684567
perc,resp,1438,1,3.2.3left.bmp,3.2.3right.bmp,,ACC024,"[2, 0, 2]","[2, 0, 2]",[],match,1.0,,-1.0642047662021734,0.5026147513434749,0.8967294042734114,1st,3rd,4th,-1.2548614456039358,0.2944442428604455,1.1528022448684567
perc,resp,2013,0,3.2.2left.bmp,3.3.3right.bmp,,ACC024,"[2, 0, 0]","[2, 2, 2]",[],non-match,0.5917517095361369,3,1.2224301032114868,0.1283800988705529,1.045479018352557,4th,3rd,4th,1.2819335865261556,0.2944442428604455,1.1528022448684567
perc,resp,991,1,3.1.1left.bmp,1.2.3right.bmp,,ACC024,"[2, -2, -2]","[-2, 0, 2]",[],non-match,0.1339745962155613,1,-0.43486207067165766,-0.5957393000856731,1.0807335356709042,2nd,1st,4th,-0.31753420824804696,-1.229192756963863,1.1528022448684567
perc,resp,1412,0,2.3.3left.bmp,2.3.3right.bmp,,ACC024,"[0, 2, 2]","[0, 2, 2]",[],match,1.0,,-0.45469418136370543,0.03540457948838937,0.9997175750855207,2nd,3rd,4th,-0.31753420824804696,0.2944442428604455,1.1528022448684567
perc,resp,2865,1,1.2.2left.bmp,1.1.3right.bmp,,ACC024,"[-2, 0, 0]","[-2, -2, 2]",[],non-match,0.5917517095361369,3,-0.17548515197280742,1.1758026669721071,1.05941773960165,2nd,4th,4th,-0.31753420824804696,1.2422056251434084,1.1528022448684567
perc,resp,1113,1,3.3.3left.bmp,2.1.1right.bmp,,ACC024,"[2, 2, 2]","[0, -2, -2]",[],non-match,0.1339745962155613,1,0.0893723652390539,-0.11110819585419293,0.6543389675528429,3rd,2nd,3rd,0.29046206732582686,-0.3074571110399906,0.4335677678992648
perc,resp,1224,1,1.2.1left.bmp,3.2.3right.bmp,,ACC024,"[-2, 0, -2]","[2, 0, 2]",[],non-match,0.18350341907227385,1,-1.2373975386234937,-0.01580886444795751,0.5308739894545136,1st,3rd,3rd,-1.2548614456039358,0.2944442428604455,0.4335677678992648
perc,resp,857,1,1.3.2left.bmp,1.3.2right.bmp,,ACC024,"[-2, 2, 0]","[-2, 2, 0]",[],match,1.0,,1.159898548064644,0.7141183093841371,-0.17253754327858797,4th,4th,2nd,1.2819335865261556,1.2422056251434084,-0.19401081510778814
perc,resp,882,1,3.2.1left.bmp,3.2.1right.bmp,,ACC024,"[2, 0, -2]","[2, 0, -2]",[],match,1.0,,0.6702331036885484,1.302932980957654,-0.325946994076974,3rd,4th,2nd,0.29046206732582686,1.2422056251434084,-0.19401081510778814
perc,resp,921,0,1.1.2left.bmp,2.1.2right.bmp,,ACC024,"[-2, -2, 0]","[0, -2, 0]",[],non-match,0.7113248654051871,4,-0.6012501427976249,0.8438931530723988,0.4019336167211968,2nd,4th,3rd,-0.31753420824804696,1.2422056251434084,0.4335677678992648
perc,resp,867,1,3.3.2left.bmp,1.3.3right.bmp,,ACC024,"[2, 2, 0]","[-2, 2, 2]",[],non-match,0.3545027756320971,2,1.3591838911704957,-0.19061027038659806,0.618256297794839,4th,2nd,3rd,1.2819335865261556,-0.3074571110399906,0.4335677678992648
perc,resp,2686,1,2.3.1left.bmp,2.3.1right.bmp,,ACC024,"[0, 2, -2]","[0, 2, -2]",[],match,1.0,,0.041685058354604454,-1.0707202059474485,0.5262423024628767,3rd,1st,3rd,0.29046206732582686,-1.229192756963863,0.4335677678992648
perc,resp,2334,1,1.3.1left.bmp,1.3.1right.bmp,,ACC024,"[-2, 2, -2]","[-2, 2, -2]",[],match,1.0,,0.05242738983736884,0.6079235218433723,0.016385983475476287,3rd,4th,2nd,0.29046206732582686,1.2422056251434084,-0.19401081510778814
perc,resp,1122,1,2.1.3left.bmp,2.1.3right.bmp,,ACC024,"[0, -2, 2]","[0, -2, 2]",[],match,1.0,,0.3679363522727925,0.38420689730559276,0.5226113143109766,3rd,3rd,3rd,0.29046206732582686,0.2944442428604455,0.4335677678992648
perc,resp,868,1,3.1.2left.bmp,1.2.3right.bmp,,ACC024,"[2, -2, 0]","[-2, 0, 2]",[],non-match,0.29289321881345254,1,-0.09746712134850151,-1.1017154315137103,0.3042021673235529,2nd,1st,3rd,-0.31753420824804696,-1.229192756963863,0.4335677678992648
perc,resp,1167,0,3.3.1left.bmp,3.2.2right.bmp,,ACC024,"[2, 2, -2]","[2, 0, 0]",[],non-match,0.5917517095361369,3,-1.3682891585285002,-0.09844491808027873,0.528114037742969,1st,2nd,3rd,-1.2548614456039358,-0.3074571110399906,0.4335677678992648
perc,resp,2296,1,2.3.3left.bmp,2.3.3right.bmp,,ACC024,"[0, 2, 2]","[0, 2, 2]",[],match,1.0,,1.1982957967625443,-0.6616591213423204,0.3272371561041052,4th,1st,3rd,1.2819335865261556,-1.229192756963863,0.4335677678992648
perc,resp,1802,1,2.2.3left.bmp,2.2.3right.bmp,,ACC024,"[0, 0, 2]","[0, 0, 2]",[],match,1.0,,1.1834888931758871,0.24749691735696605,0.1605884332325064,4th,3rd,2nd,1.2819335865261556,0.2944442428604455,-0.19401081510778814
perc,resp,1634,1,2.2.2left.bmp,1.2.2right.bmp,,ACC024,"[0, 0, 0]","[-2, 0, 0]",[],non-match,0.7113248654051871,4,0.3771294400666486,-0.9084573654366479,0.19797035847896194,3rd,1st,2nd,0.29046206732582686,-1.229192756963863,-0.19401081510778814
perc,resp,1635,1,1.2.3left.bmp,1.2.3right.bmp,,ACC024,"[-2, 0, 2]","[-2, 0, 2]",[],match,1.0,,0.6449169525659798,0.17881106863909452,0.5194404811229835,3rd,3rd,3rd,0.29046206732582686,0.2944442428604455,0.4335677678992648
perc,resp,2113,1,3.1.3left.bmp,3.3.1right.bmp,,ACC024,"[2, -2, 2]","[2, 2, -2]",[],non-match,0.18350341907227385,1,2.2488974099881256,4.371116227635195,0.7254737078481133,4th,4th,4th,1.2819335865261556,1.2422056251434084,1.1528022448684567
perc,resp,990,1,3.1.1left.bmp,3.1.1right.bmp,,ACC024,"[2, -2, -2]","[2, -2, -2]",[],match,1.0,,-0.41262859346230163,-0.4373720749043966,0.3736663065389515,2nd,2nd,3rd,-0.31753420824804696,-0.3074571110399906,0.4335677678992648
perc,resp,849,1,3.2.1left.bmp,2.3.2right.bmp,,ACC024,"[2, 0, -2]","[0, 2, 0]",[],non-match,0.5,3,-0.07356963155176262,-0.5157338061890768,-0.31217795823921274,2nd,2nd,2nd,-0.31753420824804696,-0.3074571110399906,-0.19401081510778814
perc,resp,1138,0,1.3.2left.bmp,1.3.2right.bmp,,ACC024,"[-2, 2, 0]","[-2, 2, 0]",[],match,1.0,,-0.17293654020792942,0.43530998565347206,-0.44802589585540414,2nd,3rd,2nd,-0.31753420824804696,0.2944442428604455,-0.19401081510778814
perc,resp,995,1,1.3.1left.bmp,1.3.1right.bmp,,ACC024,"[-2, 2, -2]","[-2, 2, -2]",[],match,1.0,,0.2846591106410784,-0.8554676164700729,-0.6382536725094569,3rd,1st,2nd,0.29046206732582686,-1.229192756963863,-0.19401081510778814
perc,resp,1659,1,3.3.3left.bmp,3.3.3right.bmp,,ACC024,"[2, 2, 2]","[2, 2, 2]",[],match,1.0,,0.9369908708302721,0.9755163228538383,-0.8841681152646897,4th,4th,1st,1.2819335865261556,1.2422056251434084,-1.3923591976599365
perc,resp,1660,1,1.1.2left.bmp,1.1.2right.bmp,,ACC024,"[-2, -2, 0]","[-2, -2, 0]",[],match,1.0,,1.4165902367074046,0.8384701796046209,-0.7090131505113525,4th,4th,1st,1.2819335865261556,1.2422056251434084,-1.3923591976599365
perc,resp,1685,0,2.1.3left.bmp,2.3.3right.bmp,,ACC024,"[0, -2, 2]","[0, 2, 2]",[],non-match,0.42264973081037416,2,-1.391050045956839,-0.6314685730254143,-0.7606431143584274,1st,1st,1st,-1.2548614456039358,-1.229192756963863,-1.3923591976599365
perc,resp,1457,1,2.2.3left.bmp,3.1.3right.bmp,,ACC024,"[0, 0, 2]","[2, -2, 2]",[],non-match,0.5917517095361369,3,-0.673904406747665,-0.3124339536215445,-1.3183930284577996,1st,2nd,1st,-1.2548614456039358,-0.3074571110399906,-1.3923591976599365
perc,resp,1246,1,2.2.2left.bmp,2.2.2right.bmp,,ACC024,"[0, 0, 0]","[0, 0, 0]",[],match,1.0,,0.8188936847948891,0.5380749870315482,-1.2964954583522275,4th,3rd,1st,1.2819335865261556,0.2944442428604455,-1.3923591976599365
perc,resp,1194,1,3.3.1left.bmp,1.1.2right.bmp,,ACC024,"[2, 2, -2]","[-2, -2, 0]",[],non-match,0.1339745962155613,1,-0.1862938506497161,-0.08090006969143308,-1.4327445122885427,2nd,2nd,1st,-0.31753420824804696,-0.3074571110399906,-1.3923591976599365
perc,resp,2653,1,3.2.1left.bmp,3.2.1right.bmp,,ACC024,"[2, 0, -2]","[2, 0, -2]",[],match,1.0,,0.09390159698644843,0.5511620313052867,-1.3411626164439505,3rd,3rd,1st,0.29046206732582686,0.2944442428604455,-1.3923591976599365
perc,resp,1508,1,2.3.2left.bmp,2.1.1right.bmp,,ACC024,"[0, 2, 0]","[0, -2, -2]",[],non-match,0.3545027756320971,2,0.7703958592043885,-0.7827211130918564,-1.4758462250517876,4th,1st,1st,1.2819335865261556,-1.229192756963863,-1.3923591976599365
perc,resp,1681,1,2.2.1left.bmp,2.2.1right.bmp,,ACC024,"[0, 0, -2]","[0, 0, -2]",[],match,1.0,,0.22631573496230334,0.25274018595389136,-1.2862963680489232,3rd,3rd,1st,0.29046206732582686,0.2944442428604455,-1.3923591976599365
perc,resp,1602,0,1.3.1left.bmp,1.2.3right.bmp,,ACC024,"[-2, 2, -2]","[-2, 0, 2]",[],non-match,0.3545027756320971,2,-1.4343780147948804,0.778500706195465,-1.0266193772666865,1st,4th,1st,-1.2548614456039358,1.2422056251434084,-1.3923591976599365
perc,resp,1564,1,1.3.2left.bmp,2.1.2right.bmp,,ACC024,"[-2, 2, 0]","[0, -2, 0]",[],non-match,0.3545027756320971,2,1.0025042143309362,0.7491236533039138,-1.3155135063348973,4th,4th,1st,1.2819335865261556,1.2422056251434084,-1.3923591976599365
perc,resp,1757,1,1.1.3left.bmp,3.2.3right.bmp,,ACC024,"[-2, -2, 2]","[2, 0, 2]",[],non-match,0.3545027756320971,2,0.2205690841822025,-0.4432423603445149,-1.7405779731875404,3rd,2nd,1st,0.29046206732582686,-0.3074571110399906,-1.3923591976599365
perc,resp,2134,1,1.1.1left.bmp,1.1.1right.bmp,,ACC024,"[-2, -2, -2]","[-2, -2, -2]",[],match,1.0,,-0.7021045769446096,-0.004071179870812498,-1.9439338673821023,1st,3rd,1st,-1.2548614456039358,0.2944442428604455,-1.3923591976599365
perc,resp,2580,1,3.3.2left.bmp,3.3.2right.bmp,,ACC024,"[2, 2, 0]","[2, 2, 0]",[],match,1.0,,-0.7751459003002662,-0.31401868028408125,-2.3959012067756604,1st,2nd,1st,-1.2548614456039358,-0.3074571110399906,-1.3923591976599365
perc,resp,891,1,3.1.2left.bmp,1.3.3right.bmp,,ACC024,"[2, -2, 0]","[-2, 2, 2]",[],non-match,0.1339745962155613,1,0.7846303265850533,0.7094489990587112,-2.304672070191303,4th,4th,1st,1.2819335865261556,1.2422056251434084,-1.3923591976599365
perc,resp,2479,1,3.2.2left.bmp,3.3.3right.bmp,,ACC024,"[2, 0, 0]","[2, 2, 2]",[],non-match,0.5917517095361369,3,1.5808014477972634,2.3736243265192543,-2.0224792981987805,4th,4th,1st,1.2819335865261556,1.2422056251434084,-1.3923591976599365
perc,resp,1541,1,3.2.3left.bmp,3.2.3right.bmp,,ACC024,"[2, 0, 2]","[2, 0, 2]",[],match,1.0,,0.8012473168748356,0.2430241876745217,-1.920386280569881,4th,3rd,1st,1.2819335865261556,0.2944442428604455,-1.3923591976599365
perc,resp,2217,1,1.2.2left.bmp,1.2.2right.bmp,,ACC024,"[-2, 0, 0]","[-2, 0, 0]",[],match,1.0,,-0.007608447097906908,0.35140622089849394,-1.8531160520531804,2nd,3rd,1st,-0.31753420824804696,0.2944442428604455,-1.3923591976599365
perc,resp,1692,1,2.1.2left.bmp,2.1.2right.bmp,,ACC024,"[0, -2, 0]","[0, -2, 0]",[],match,1.0,,1.7873008507303785,0.7513121471181876,-1.9175189876265493,4th,4th,1st,1.2819335865261556,1.2422056251434084,-1.3923591976599365
perc,resp,1715,1,2.3.1left.bmp,1.2.3right.bmp,,ACC024,"[0, 2, -2]","[-2, 0, 2]",[],non-match,0.29289321881345254,1,0.7554466748091533,0.34394354124066706,-1.8248488005806525,3rd,3rd,1st,0.29046206732582686,0.2944442428604455,-1.3923591976599365
perc,resp,1125,1,1.3.3left.bmp,3.3.2right.bmp,,ACC024,"[-2, 2, 2]","[2, 2, 0]",[],non-match,0.3545027756320971,2,2.1387309613791197,1.299380851947713,-1.8286996771074095,4th,4th,1st,1.2819335865261556,1.2422056251434084,-1.3923591976599365
perc,resp,1668,0,3.1.1left.bmp,3.2.1right.bmp,,ACC024,"[2, -2, -2]","[2, 0, -2]",[],non-match,0.7113248654051871,4,-0.7010388479969305,-0.5036723161090363,-1.5055136346169158,1st,2nd,1st,-1.2548614456039358,-0.3074571110399906,-1.3923591976599365
perc,resp,2535,1,1.2.1left.bmp,1.2.1right.bmp,,ACC024,"[-2, 0, -2]","[-2, 0, -2]",[],match,1.0,,-0.8563449618021621,-0.17181703090389644,-1.6719896217625032,1st,2nd,1st,-1.2548614456039358,-0.3074571110399906,-1.3923591976599365
perc,resp,1891,1,3.1.3left.bmp,2.3.1right.bmp,,ACC024,"[2, -2, 2]","[0, 2, -2]",[],non-match,0.1339745962155613,1,0.056234658462272546,1.401390500005951,-1.9717760390554933,3rd,4th,1st,0.29046206732582686,1.2422056251434084,-1.3923591976599365
perc,resp,1835,1,2.1.1left.bmp,2.1.1right.bmp,,ACC024,"[0, -2, -2]","[0, -2, -2]",[],match,1.0,,-0.01266949616886562,-0.17310325597070747,-1.56734961865757,2nd,2nd,1st,-0.31753420824804696,-0.3074571110399906,-1.3923591976599365
perc,resp,1356,1,1.2.3left.bmp,1.2.3right.bmp,,ACC024,"[-2, 0, 2]","[-2, 0, 2]",[],match,1.0,,-0.878879883056936,-1.8478888708701444,-1.67983924116241,1st,1st,1st,-1.2548614456039358,-1.229192756963863,-1.3923591976599365
perc,resp,1383,1,2.3.3left.bmp,2.3.3right.bmp,,ACC024,"[0, 2, 2]","[0, 2, 2]",[],match,1.0,,-0.4626144052291781,0.9059503857176654,-1.7163492533205698,2nd,4th,1st,-0.31753420824804696,1.2422056251434084,-1.3923591976599365
perc,resp,1677,1,1.2.1left.bmp,1.1.3right.bmp,,ACC024,"[-2, 0, -2]","[-2, -2, 2]",[],non-match,0.3545027756320971,2,-0.5746324149196183,-0.6418584775718469,-1.3881125013130404,2nd,1st,1st,-0.31753420824804696,-1.229192756963863,-1.3923591976599365
perc,resp,1900,1,1.2.3left.bmp,1.2.3right.bmp,,ACC024,"[-2, 0, 2]","[-2, 0, 2]",[],match,1.0,,-0.09072201021546149,-0.6004263962787973,-1.0262184873800801,2nd,1st,1st,-0.31753420824804696,-1.229192756963863,-1.3923591976599365
perc,resp,1725,1,2.3.1left.bmp,2.3.1right.bmp,,ACC024,"[0, 2, -2]","[0, 2, -2]",[],match,1.0,,0.025041767788076597,-0.37831436123935597,-0.9745937089571696,3rd,2nd,1st,0.29046206732582686,-0.3074571110399906,-1.3923591976599365
perc,resp,1154,1,2.1.3left.bmp,2.1.3right.bmp,,ACC024,"[0, -2, 2]","[0, -2, 2]",[],match,1.0,,0.43748520196444374,0.5103001183857587,-1.3692066218400143,3rd,3rd,1st,0.29046206732582686,0.2944442428604455,-1.3923591976599365
perc,resp,1567,1,3.1.1left.bmp,3.1.1right.bmp,,ACC024,"[2, -2, -2]","[2, -2, -2]",[],match,1.0,,0.45351581013689163,0.19164768061487614,-1.0946329146239409,3rd,3rd,1st,0.29046206732582686,0.2944442428604455,-1.3923591976599365
perc,resp,2142,1,2.1.1left.bmp,2.1.1right.bmp,,ACC024,"[0, -2, -2]","[0, -2, -2]",[],match,1.0,,-0.39730764083546777,-0.39530721391299556,-0.6347226577869672,2nd,2nd,2nd,-0.31753420824804696,-0.3074571110399906,-0.19401081510778814
perc,resp,1152,1,1.3.1left.bmp,3.2.3right.bmp,,ACC024,"[-2, 2, -2]","[2, 0, 2]",[],non-match,0.1339745962155613,1,1.0234000991093521,-0.5236607581002473,0.14227864359544765,4th,2nd,2nd,1.2819335865261556,-0.3074571110399906,-0.19401081510778814
perc,resp,1453,1,2.2.3left.bmp,2.2.3right.bmp,,ACC024,"[0, 0, 2]","[0, 0, 2]",[],match,1.0,,0.1274854142590206,0.26527004371733764,0.1912046372132573,3rd,3rd,2nd,0.29046206732582686,0.2944442428604455,-0.19401081510778814
perc,resp,1182,1,1.3.2left.bmp,2.2.1right.bmp,,ACC024,"[-2, 2, 0]","[0, 0, -2]",[],non-match,0.5,3,2.48467904338401,1.3983399116629187,-0.28617347001399446,4th,4th,2nd,1.2819335865261556,1.2422056251434084,-0.19401081510778814
perc,resp,1051,1,3.1.2left.bmp,2.3.1right.bmp,,ACC024,"[2, -2, 0]","[0, 2, -2]",[],non-match,0.29289321881345254,1,1.1074830762716137,-0.17265177056011333,-0.39628491604329513,4th,2nd,2nd,1.2819335865261556,-0.3074571110399906,-0.19401081510778814
perc,resp,1694,1,1.3.3left.bmp,1.3.3right.bmp,,ACC024,"[-2, 2, 2]","[-2, 2, 2]",[],match,1.0,,-0.0265757003498928,-0.09312915387057133,-0.9058184348153476,2nd,2nd,1st,-0.31753420824804696,-0.3074571110399906,-1.3923591976599365
perc,resp,1476,1,3.1.3left.bmp,3.1.3right.bmp,,ACC024,"[2, -2, 2]","[2, -2, 2]",[],match,1.0,,-1.3726044440787546,-1.2334433240421112,-0.5970661289764236,1st,1st,2nd,-1.2548614456039358,-1.229192756963863,-0.19401081510778814
perc,resp,1817,1,3.3.2left.bmp,3.3.2right.bmp,,ACC024,"[2, 2, 0]","[2, 2, 0]",[],match,1.0,,-1.0613735978934469,-0.671609612245818,-0.9388786148456861,1st,1st,1st,-1.2548614456039358,-1.229192756963863,-1.3923591976599365
perc,resp,2255,1,2.2.2left.bmp,3.2.2right.bmp,,ACC024,"[0, 0, 0]","[2, 0, 0]",[],non-match,0.7113248654051871,4,0.6796957049925222,1.7868200820611826,-0.6844301183300834,3rd,4th,1st,0.29046206732582686,1.2422056251434084,-1.3923591976599365
perc,resp,1538,1,1.1.3left.bmp,1.1.2right.bmp,,ACC024,"[-2, -2, 2]","[-2, -2, 0]",[],non-match,0.7113248654051871,4,-0.36434679299467826,1.5229759397228873,-0.6111122641079169,2nd,4th,2nd,-0.31753420824804696,1.2422056251434084,-0.19401081510778814
perc,resp,1337,1,3.3.1left.bmp,1.3.1right.bmp,,ACC024,"[2, 2, -2]","[-2, 2, -2]",[],non-match,0.42264973081037416,2,0.9570458941730293,0.38590885402848707,-0.5279216015025878,4th,3rd,2nd,1.2819335865261556,0.2944442428604455,-0.19401081510778814
perc,resp,1326,1,3.2.1left.bmp,3.2.1right.bmp,,ACC024,"[2, 0, -2]","[2, 0, -2]",[],match,1.0,,0.36596218217814147,0.8159034498667793,-0.5843827455075237,3rd,4th,2nd,0.29046206732582686,1.2422056251434084,-0.19401081510778814
perc,resp,823,1,2.2.1left.bmp,1.2.3right.bmp,,ACC024,"[0, 0, -2]","[-2, 0, 2]",[],non-match,0.3545027756320971,2,1.1209421123720489,0.5315017047695606,-0.5552953947335905,4th,3rd,2nd,1.2819335865261556,0.2944442428604455,-0.19401081510778814
perc,resp,1090,1,1.1.1left.bmp,1.1.1right.bmp,,ACC024,"[-2, -2, -2]","[-2, -2, -2]",[],match,1.0,,0.022180482125789852,0.03607264164176043,-0.44390606935571014,3rd,3rd,2nd,0.29046206732582686,0.2944442428604455,-0.19401081510778814
perc,resp,2156,1,2.3.3left.bmp,1.2.2right.bmp,,ACC024,"[0, 2, 2]","[-2, 0, 0]",[],non-match,0.5,3,0.7787217211171613,1.6983183324706856,-0.6960749760046783,4th,4th,1st,1.2819335865261556,1.2422056251434084,-1.3923591976599365
perc,resp,2327,1,3.3.3left.bmp,2.2.3right.bmp,,ACC024,"[2, 2, 2]","[0, 0, 2]",[],non-match,0.5917517095361369,3,2.0004572863828782,1.3259072774941854,-0.5194773215539525,4th,4th,2nd,1.2819335865261556,1.2422056251434084,-0.19401081510778814
perc,resp,1419,1,1.1.2left.bmp,1.1.2right.bmp,,ACC024,"[-2, -2, 0]","[-2, -2, 0]",[],match,1.0,,-0.03799497892995326,1.3445658488353522,0.12608162136863785,2nd,4th,2nd,-0.31753420824804696,1.2422056251434084,-0.19401081510778814
perc,resp,1418,0,3.2.2left.bmp,3.2.2right.bmp,,ACC024,"[2, 0, 0]","[2, 0, 0]",[],match,1.0,,0.4364512343516907,0.8943721498842727,-0.12638153158398321,3rd,4th,2nd,0.29046206732582686,1.2422056251434084,-0.19401081510778814
perc,resp,1109,1,1.2.2left.bmp,1.2.2right.bmp,,ACC024,"[-2, 0, 0]","[-2, 0, 0]",[],match,1.0,,0.3160969631489713,0.37101633616152185,0.40976103999775526,3rd,3rd,3rd,0.29046206732582686,0.2944442428604455,0.4335677678992648
perc,resp,2334,0,2.1.2left.bmp,2.1.2right.bmp,,ACC024,"[0, -2, 0]","[0, -2, 0]",[],match,1.0,,0.3517220154288644,1.2922619283877987,0.5491094173822869,3rd,4th,3rd,0.29046206732582686,1.2422056251434084,0.4335677678992648
perc,resp,1014,0,2.3.2left.bmp,1.1.1right.bmp,,ACC024,"[0, 2, 0]","[-2, -2, -2]",[],non-match,0.29289321881345254,1,-0.1079491473396,1.6686183256656648,0.32091790855260194,2nd,4th,3rd,-0.31753420824804696,1.2422056251434084,0.4335677678992648
perc,resp,1786,1,3.2.3left.bmp,3.2.3right.bmp,,ACC024,"[2, 0, 2]","[2, 0, 2]",[],match,1.0,,-0.44643539875319405,-1.4130671898884533,0.3843555558086946,2nd,1st,3rd,-0.31753420824804696,-1.229192756963863,0.4335677678992648
perc,resp,1233,1,3.3.3left.bmp,3.3.3right.bmp,,ACC024,"[2, 2, 2]","[2, 2, 2]",[],match,1.0,,-2.453071321411492,-2.376338694266104,0.45419089283765046,1st,1st,3rd,-1.2548614456039358,-1.229192756963863,0.4335677678992648
perc,resp,800,1,3.1.2left.bmp,1.3.2right.bmp,,ACC024,"[2, -2, 0]","[-2, 2, 0]",[],non-match,0.18350341907227385,1,2.0392695089457513,1.491788628735688,0.6222019611879429,4th,4th,3rd,1.2819335865261556,1.2422056251434084,0.4335677678992648
perc,resp,1985,1,3.1.1left.bmp,2.3.2right.bmp,,ACC024,"[2, -2, -2]","[0, 2, 0]",[],non-match,0.29289321881345254,1,-0.49862860443263324,-1.2494889915015985,0.4137433185964452,2nd,1st,3rd,-0.31753420824804696,-1.229192756963863,0.4335677678992648
perc,resp,911,1,1.2.3left.bmp,2.2.1right.bmp,,ACC024,"[-2, 0, 2]","[0, 0, -2]",[],non-match,0.3545027756320971,2,2.277050340535108,2.454459379028004,0.31605445458754594,4th,4th,3rd,1.2819335865261556,1.2422056251434084,0.4335677678992648
perc,resp,1019,1,2.2.3left.bmp,1.1.3right.bmp,,ACC024,"[0, 0, 2]","[-2, -2, 2]",[],non-match,0.5917517095361369,3,2.0346776851411916,2.0009690018919377,0.3666389777176338,4th,4th,3rd,1.2819335865261556,1.2422056251434084,0.4335677678992648
perc,resp,1812,0,2.1.3left.bmp,2.1.3right.bmp,,ACC024,"[0, -2, 2]","[0, -2, 2]",[],match,1.0,,1.4832923818047374,1.6750692910831304,0.16329037729283832,4th,4th,2nd,1.2819335865261556,1.2422056251434084,-0.19401081510778814
perc,resp,1132,1,2.2.2left.bmp,3.3.2right.bmp,,ACC024,"[0, 0, 0]","[2, 2, 0]",[],non-match,0.5917517095361369,3,1.67314714512533,0.3697411362524658,0.05934414684523204,4th,3rd,2nd,1.2819335865261556,0.2944442428604455,-0.19401081510778814
perc,resp,1896,1,3.2.2left.bmp,3.2.2right.bmp,,ACC024,"[2, 0, 0]","[2, 0, 0]",[],match,1.0,,1.3301426461900652,0.979645530462945,0.3889868768893636,4th,4th,3rd,1.2819335865261556,1.2422056251434084,0.4335677678992648
perc,resp,1154,1,1.1.1left.bmp,2.1.2right.bmp,,ACC024,"[-2, -2, -2]","[0, -2, 0]",[],non-match,0.5917517095361369,3,0.1592747938814132,0.6847655430429225,1.0641777709146778,3rd,4th,4th,0.29046206732582686,1.2422056251434084,1.1528022448684567
