mode,type,rt,acc,item_1,item_2,item_cue,subj_idx,item_1_number,item_2_number,item_cue_number,trial_type,similarity,similarity_bin,ams,pams,slps,ams_quantile,pams_quantile,slps_quantile,ams_bin,pam_bin,slp_bin
perc,resp,1711,1,1.2.3left.bmp,3.2.3right.bmp,,ACC030,"[-2, 0, 2]","[2, 0, 2]",[],non-match,0.42264973081037416,2,-0.4312892977736895,0.08196593442411829,2.440801135302338,2nd,3rd,4th,-0.30667519516102976,0.2555294960193204,1.3814772207315937
perc,resp,1549,0,2.3.1left.bmp,3.3.2right.bmp,,ACC030,"[0, 2, -2]","[2, 2, 0]",[],non-match,0.5917517095361369,3,-0.9243372517131306,1.144835071663798,2.443437706884645,1st,4th,4th,-1.2720988656471657,1.265710930763565,1.3814772207315937
perc,resp,1516,0,1.1.1left.bmp,1.3.1right.bmp,,ACC030,"[-2, -2, -2]","[-2, 2, -2]",[],non-match,0.42264973081037416,2,-0.9840220764583612,-1.9820525009670815,2.2656199997430733,1st,1st,4th,-1.2720988656471657,-1.1737199921102874,1.3814772207315937
perc,resp,1654,1,2.3.3left.bmp,2.3.3right.bmp,,ACC030,"[0, 2, 2]","[0, 2, 2]",[],match,1.0,,-0.46862330980738887,-0.9712345801156624,2.1212067834629567,2nd,1st,4th,-0.30667519516102976,-1.1737199921102874,1.3814772207315937
perc,resp,1832,1,3.1.2left.bmp,3.1.2right.bmp,,ACC030,"[2, -2, 0]","[2, -2, 0]",[],match,1.0,,-1.3356959719484254,-0.45320436762963806,2.4309923754872287,1st,2nd,4th,-1.2720988656471657,-0.3302598465533287,1.3814772207315937
perc,resp,1882,1,2.2.3left.bmp,1.1.3right.bmp,,ACC030,"[0, 0, 2]","[-2, -2, 2]",[],non-match,0.5917517095361369,3,-1.3559210927050735,-0.010396547648493923,2.9139585195362456,1st,2nd,4th,-1.2720988656471657,-0.3302598465533287,1.3814772207315937
perc,resp,1406,1,3.1.1left.bmp,3.1.1right.bmp,,ACC030,"[2, -2, -2]","[2, -2, -2]",[],match,1.0,,-0.5925922919172161,0.09937086695360901,2.860411381371751,2nd,3rd,4th,-0.30667519516102976,0.2555294960193204,1.3814772207315937
perc,resp,1280,1,1.2.1left.bmp,1.2.1right.bmp,,ACC030,"[-2, 0, -2]","[-2, 0, -2]",[],match,1.0,,-0.40824630185801897,-0.17444905797730623,2.9528760745782052,2nd,2nd,4th,-0.30667519516102976,-0.3302598465533287,1.3814772207315937
perc,resp,1565,1,1.3.2left.bmp,1.1.1right.bmp,,ACC030,"[-2, 2, 0]","[-2, -2, -2]",[],non-match,0.3545027756320971,2,1.9282611085466765,1.0716933680567113,2.9787256722373563,4th,4th,4th,1.2136134628715478,1.265710930763565,1.3814772207315937
perc,resp,1089,1,3.2.1left.bmp,3.2.1right.bmp,,ACC030,"[2, 0, -2]","[2, 0, -2]",[],match,1.0,,-1.4232523278896863,-1.0157487782609345,2.957574945653152,1st,1st,4th,-1.2720988656471657,-1.1737199921102874,1.3814772207315937
perc,resp,1654,1,3.1.3left.bmp,3.1.3right.bmp,,ACC030,"[2, -2, 2]","[2, -2, 2]",[],match,1.0,,-1.8652400907050846,-0.28960478054616823,2.765527944662554,1st,2nd,4th,-1.2720988656471657,-0.3302598465533287,1.3814772207315937
perc,resp,1600,1,2.1.3left.bmp,2.1.3right.bmp,,ACC030,"[0, -2, 2]","[0, -2, 2]",[],match,1.0,,0.27721449453732344,-1.0442431296137789,2.568283554393485,3rd,1st,4th,0.38386793419616494,-1.1737199921102874,1.3814772207315937
perc,resp,1485,1,1.1.3left.bmp,1.1.3right.bmp,,ACC030,"[-2, -2, 2]","[-2, -2, 2]",[],match,1.0,,0.379898753350969,0.15546201233216042,2.4253510950438177,3rd,3rd,4th,0.38386793419616494,0.2555294960193204,1.3814772207315937
perc,resp,1865,0,3.2.3left.bmp,3.2.2right.bmp,,ACC030,"[2, 0, 2]","[2, 0, 0]",[],non-match,0.7113248654051871,4,-0.8575576540846997,-0.282630395558572,2.2935926308834604,1st,2nd,4th,-1.2720988656471657,-0.3302598465533287,1.3814772207315937
perc,resp,1279,1,2.3.2left.bmp,3.2.1right.bmp,,ACC030,"[0, 2, 0]","[2, 0, -2]",[],non-match,0.5,3,-0.8408585394571123,-0.9370881746832133,2.0891771645389703,1st,1st,4th,-1.2720988656471657,-1.1737199921102874,1.3814772207315937
perc,resp,1414,1,1.3.3left.bmp,1.3.3right.bmp,,ACC030,"[-2, 2, 2]","[-2, 2, 2]",[],match,1.0,,-0.34535263496746155,-1.832724592829851,2.0028884968155727,2nd,1st,4th,-0.30667519516102976,-1.1737199921102874,1.3814772207315937
perc,resp,1933,1,1.1.2left.bmp,1.1.2right.bmp,,ACC030,"[-2, -2, 0]","[-2, -2, 0]",[],match,1.0,,0.042807873554402597,0.4143511777130657,2.037361278362925,2nd,3rd,4th,-0.30667519516102976,0.2555294960193204,1.3814772207315937
perc,resp,1338,1,1.2.2left.bmp,2.2.2right.bmp,,ACC030,"[-2, 0, 0]","[0, 0, 0]",[],non-match,0.7113248654051871,4,-0.8599213511630558,-1.5091449782137878,2.2598262554036426,1st,1st,4th,-1.2720988656471657,-1.1737199921102874,1.3814772207315937
perc,resp,1846,0,2.1.2left.bmp,3.1.2right.bmp,,ACC030,"[0, -2, 0]","[2, -2, 0]",[],non-match,0.7113248654051871,4,-0.49504502092245023,0.38040700275247535,2.1227505109544476,2nd,3rd,4th,-0.30667519516102976,0.2555294960193204,1.3814772207315937
perc,resp,1361,1,3.2.2left.bmp,2.1.3right.bmp,,ACC030,"[2, 0, 0]","[0, -2, 2]",[],non-match,0.5,3,0.5765752913855696,0.7697363882133793,2.0478412980584983,3rd,4th,4th,0.38386793419616494,1.265710930763565,1.3814772207315937
perc,resp,1325,1,3.3.1left.bmp,3.1.3right.bmp,,ACC030,"[2, 2, -2]","[2, -2, 2]",[],non-match,0.18350341907227385,1,-0.98785719794448,-0.8006450428374925,1.953047125420395,1st,1st,4th,-1.2720988656471657,-1.1737199921102874,1.3814772207315937
perc,resp,1398,1,2.1.1left.bmp,2.1.1right.bmp,,ACC030,"[0, -2, -2]","[0, -2, -2]",[],match,1.0,,1.2514771121748542,-0.6545812063554847,1.9329407845469242,4th,1st,4th,1.2136134628715478,-1.1737199921102874,1.3814772207315937
perc,resp,1706,1,3.3.3left.bmp,3.1.1right.bmp,,ACC030,"[2, 2, 2]","[2, -2, -2]",[],non-match,0.18350341907227385,1,-0.456732107031702,-0.8532603493644372,1.8628236227242565,2nd,1st,4th,-0.30667519516102976,-1.1737199921102874,1.3814772207315937
perc,resp,1361,1,2.2.1left.bmp,2.2.1right.bmp,,ACC030,"[0, 0, -2]","[0, 0, -2]",[],match,1.0,,-0.4249653860830679,1.1924848678022144,1.8302145089812174,2nd,4th,4th,-0.30667519516102976,1.265710930763565,1.3814772207315937
perc,resp,2031,1,1.3.1left.bmp,1.3.1right.bmp,,ACC030,"[-2, 2, -2]","[-2, 2, -2]",[],match,1.0,,0.725665454586575,2.098055588899759,1.9230010861229312,4th,4th,4th,1.2136134628715478,1.265710930763565,1.3814772207315937
perc,resp,1923,0,2.2.2left.bmp,2.3.1right.bmp,,ACC030,"[0, 0, 0]","[0, 2, -2]",[],non-match,0.5917517095361369,3,1.8553012808666367,1.276016661134775,1.9417917556137005,4th,4th,4th,1.2136134628715478,1.265710930763565,1.3814772207315937
perc,resp,1436,1,3.3.2left.bmp,2.1.3right.bmp,,ACC030,"[2, 2, 0]","[0, -2, 2]",[],non-match,0.29289321881345254,1,0.574556144895207,0.03743852385452607,2.013862117614557,3rd,3rd,4th,0.38386793419616494,0.2555294960193204,1.3814772207315937
perc,resp,1117,1,1.1.1left.bmp,2.3.3right.bmp,,ACC030,"[-2, -2, -2]","[0, 2, 2]",[],non-match,0.1339745962155613,1,-0.8030990279438768,0.11101916797652844,1.62415029097375,1st,3rd,4th,-1.2720988656471657,0.2555294960193204,1.3814772207315937
perc,resp,1389,1,2.2.2left.bmp,1.2.1right.bmp,,ACC030,"[0, 0, 0]","[-2, 0, -2]",[],non-match,0.5917517095361369,3,0.6990901143907016,-0.8286765155758465,1.6054563989014352,4th,1st,4th,1.2136134628715478,-1.1737199921102874,1.3814772207315937
perc,resp,1420,1,2.1.1left.bmp,2.1.1right.bmp,,ACC030,"[0, -2, -2]","[0, -2, -2]",[],match,1.0,,-1.5607398665268266,0.8154185546210418,1.6882582625694107,1st,4th,4th,-1.2720988656471657,1.265710930763565,1.3814772207315937
perc,resp,1555,1,1.2.3left.bmp,2.1.3right.bmp,,ACC030,"[-2, 0, 2]","[0, -2, 2]",[],non-match,0.5917517095361369,3,-1.0039796238858092,1.4128444604064117,1.5556590502942085,1st,4th,4th,-1.2720988656471657,1.265710930763565,1.3814772207315937
perc,resp,1429,1,2.2.1left.bmp,3.1.3right.bmp,,ACC030,"[0, 0, -2]","[2, -2, 2]",[],non-match,0.29289321881345254,1,-1.8638444907959828,-3.0512598340786043,1.275388704332592,1st,1st,4th,-1.2720988656471657,-1.1737199921102874,1.3814772207315937
perc,resp,2046,1,1.1.3left.bmp,2.2.3right.bmp,,ACC030,"[-2, -2, 2]","[0, 0, 2]",[],non-match,0.5917517095361369,3,-0.18278257874316808,1.8706631015353765,1.3192869111730392,2nd,4th,4th,-0.30667519516102976,1.265710930763565,1.3814772207315937
perc,resp,1571,1,3.3.1left.bmp,3.1.1right.bmp,,ACC030,"[2, 2, -2]","[2, -2, -2]",[],non-match,0.42264973081037416,2,0.4576879518877557,1.2748567810865121,1.2635211031316544,3rd,4th,4th,0.38386793419616494,1.265710930763565,1.3814772207315937
perc,resp,1505,0,3.1.2left.bmp,3.2.2right.bmp,,ACC030,"[2, -2, 0]","[2, 0, 0]",[],non-match,0.7113248654051871,4,-0.7183127288243596,-1.5429610646653522,1.3511535451497403,2nd,1st,4th,-0.30667519516102976,-1.1737199921102874,1.3814772207315937
perc,resp,1542,1,2.1.2left.bmp,2.1.2right.bmp,,ACC030,"[0, -2, 0]","[0, -2, 0]",[],match,1.0,,0.5539700072119634,-0.43070667349183944,1.2117450575984041,3rd,2nd,4th,0.38386793419616494,-0.3302598465533287,1.3814772207315937
perc,resp,1214,1,2.3.2left.bmp,2.3.2right.bmp,,ACC030,"[0, 2, 0]","[0, 2, 0]",[],match,1.0,,-1.4792434207707885,-0.9330895324256989,0.8933286695046345,1st,1st,4th,-1.2720988656471657,-1.1737199921102874,1.3814772207315937
perc,resp,1163,1,1.3.3left.bmp,1.3.3right.bmp,,ACC030,"[-2, 2, 2]","[-2, 2, 2]",[],match,1.0,,1.3902757405628001,-0.36889637367341827,0.8673990416690089,4th,2nd,4th,1.2136134628715478,-0.3302598465533287,1.3814772207315937
perc,resp,1266,1,3.2.3left.bmp,3.2.3right.bmp,,ACC030,"[2, 0, 2]","[2, 0, 2]",[],match,1.0,,-0.9356014442054829,-1.4558158072476335,1.1586838038844987,1st,1st,4th,-1.2720988656471657,-1.1737199921102874,1.3814772207315937
perc,resp,1212,0,3.2.2left.bmp,3.3.3right.bmp,,ACC030,"[2, 0, 0]","[2, 2, 2]",[],non-match,0.5917517095361369,3,0.1918909327951175,0.19121104799386185,0.9566657958294777,3rd,3rd,4th,0.38386793419616494,0.2555294960193204,1.3814772207315937
perc,resp,1003,1,3.1.1left.bmp,1.2.3right.bmp,,ACC030,"[2, -2, -2]","[-2, 0, 2]",[],non-match,0.1339745962155613,1,-0.25860062254134,-1.0789736029063477,0.971504702176392,2nd,1st,4th,-0.30667519516102976,-1.1737199921102874,1.3814772207315937
perc,resp,1294,1,2.3.3left.bmp,2.3.3right.bmp,,ACC030,"[0, 2, 2]","[0, 2, 2]",[],match,1.0,,0.5562889642311047,1.483518103245522,0.9130719360267878,3rd,4th,4th,0.38386793419616494,1.265710930763565,1.3814772207315937
perc,resp,1316,0,1.2.2left.bmp,1.1.3right.bmp,,ACC030,"[-2, 0, 0]","[-2, -2, 2]",[],non-match,0.5917517095361369,3,-1.3489593033607556,-1.3480249729983358,0.8457057246721149,1st,1st,4th,-1.2720988656471657,-1.1737199921102874,1.3814772207315937
perc,resp,1450,1,3.3.3left.bmp,2.1.1right.bmp,,ACC030,"[2, 2, 2]","[0, -2, -2]",[],non-match,0.1339745962155613,1,-1.3139530344500696,-2.48222576195066,0.8363224298193299,1st,1st,4th,-1.2720988656471657,-1.1737199921102874,1.3814772207315937
perc,resp,1261,1,1.2.1left.bmp,3.2.3right.bmp,,ACC030,"[-2, 0, -2]","[2, 0, 2]",[],non-match,0.18350341907227385,1,-0.3038050623834741,0.15848355478406004,0.4866254595255386,2nd,3rd,4th,-0.30667519516102976,0.2555294960193204,1.3814772207315937
perc,resp,1252,1,1.3.2left.bmp,1.3.2right.bmp,,ACC030,"[-2, 2, 0]","[-2, 2, 0]",[],match,1.0,,0.20782032682559914,-1.0541464486760954,0.2925584075340811,3rd,1st,3rd,0.38386793419616494,-1.1737199921102874,0.0755593790348966
perc,resp,1285,1,3.2.1left.bmp,3.2.1right.bmp,,ACC030,"[2, 0, -2]","[2, 0, -2]",[],match,1.0,,-0.6389946863466868,-0.7668784736720033,-0.006128326198345928,2nd,1st,3rd,-0.30667519516102976,-1.1737199921102874,0.0755593790348966
perc,resp,1124,1,1.1.2left.bmp,2.1.2right.bmp,,ACC030,"[-2, -2, 0]","[0, -2, 0]",[],non-match,0.7113248654051871,4,-1.5300579105041145,-0.7390302500582758,-0.3667975032819154,1st,1st,2nd,-1.2720988656471657,-1.1737199921102874,-0.40225477327529285
perc,resp,1215,1,3.3.2left.bmp,1.3.3right.bmp,,ACC030,"[2, 2, 0]","[-2, 2, 2]",[],non-match,0.3545027756320971,2,-1.239896697996585,-1.142401344600803,-0.3600865114282362,1st,1st,2nd,-1.2720988656471657,-1.1737199921102874,-0.40225477327529285
perc,resp,1189,1,2.3.1left.bmp,2.3.1right.bmp,,ACC030,"[0, 2, -2]","[0, 2, -2]",[],match,1.0,,-1.4086867697830847,-0.06268670126920843,-0.4548050218219814,1st,2nd,2nd,-1.2720988656471657,-0.3302598465533287,-0.40225477327529285
perc,resp,1195,1,1.3.1left.bmp,1.3.1right.bmp,,ACC030,"[-2, 2, -2]","[-2, 2, -2]",[],match,1.0,,0.8855155142057551,0.4071337444028128,-0.4791097875715882,4th,3rd,2nd,1.2136134628715478,0.2555294960193204,-0.40225477327529285
perc,resp,1026,1,2.1.3left.bmp,2.1.3right.bmp,,ACC030,"[0, -2, 2]","[0, -2, 2]",[],match,1.0,,0.4621753141123976,1.0231923501780942,-0.625629748561162,3rd,4th,2nd,0.38386793419616494,1.265710930763565,-0.40225477327529285
perc,resp,873,1,3.1.2left.bmp,1.2.3right.bmp,,ACC030,"[2, -2, 0]","[-2, 0, 2]",[],non-match,0.29289321881345254,1,0.6165891878676235,-0.8143768879145379,-0.5516920645457664,3rd,1st,2nd,0.38386793419616494,-1.1737199921102874,-0.40225477327529285
perc,resp,892,0,3.3.1left.bmp,3.2.2right.bmp,,ACC030,"[2, 2, -2]","[2, 0, 0]",[],non-match,0.5917517095361369,3,-0.23123930634602347,0.5683782377835281,-0.5847811514848559,2nd,3rd,2nd,-0.30667519516102976,0.2555294960193204,-0.40225477327529285
perc,resp,1090,1,2.3.3left.bmp,2.3.3right.bmp,,ACC030,"[0, 2, 2]","[0, 2, 2]",[],match,1.0,,0.7372064002046342,-0.42083798052633786,-0.6863067921382757,4th,2nd,1st,1.2136134628715478,-0.3302598465533287,-1.0394951333536442
perc,resp,827,1,2.2.3left.bmp,2.2.3right.bmp,,ACC030,"[0, 0, 2]","[0, 0, 2]",[],match,1.0,,1.1634212572539477,0.049365709179879584,-0.8485370222150741,4th,3rd,1st,1.2136134628715478,0.2555294960193204,-1.0394951333536442
perc,resp,1070,1,2.2.2left.bmp,1.2.2right.bmp,,ACC030,"[0, 0, 0]","[-2, 0, 0]",[],non-match,0.7113248654051871,4,0.5314065957219224,0.6966327980128213,-1.0109564838931344,3rd,4th,1st,0.38386793419616494,1.265710930763565,-1.0394951333536442
perc,resp,886,1,1.2.3left.bmp,1.2.3right.bmp,,ACC030,"[-2, 0, 2]","[-2, 0, 2]",[],match,1.0,,0.06353862532167265,-0.31440197238071205,-0.8316295644690179,3rd,2nd,1st,0.38386793419616494,-0.3302598465533287,-1.0394951333536442
perc,resp,1289,1,3.1.3left.bmp,3.3.1right.bmp,,ACC030,"[2, -2, 2]","[2, 2, -2]",[],non-match,0.18350341907227385,1,0.01553544717693021,-1.066978613897762,-0.8999725946910403,2nd,1st,1st,-0.30667519516102976,-1.1737199921102874,-1.0394951333536442
perc,resp,1019,0,3.1.1left.bmp,3.1.1right.bmp,,ACC030,"[2, -2, -2]","[2, -2, -2]",[],match,1.0,,0.33963051385126325,-1.0577880582392951,-0.8274534995982484,3rd,1st,1st,0.38386793419616494,-1.1737199921102874,-1.0394951333536442
perc,resp,887,1,3.2.1left.bmp,2.3.2right.bmp,,ACC030,"[2, 0, -2]","[0, 2, 0]",[],non-match,0.5,3,-0.8597869333139327,0.8506834361484834,-0.8734480906313347,1st,4th,1st,-1.2720988656471657,1.265710930763565,-1.0394951333536442
perc,resp,1202,0,1.2.2left.bmp,1.3.3right.bmp,,ACC030,"[-2, 0, 0]","[-2, 2, 2]",[],non-match,0.5917517095361369,3,0.8842289030337367,1.863710117660936,-0.9134483121440937,4th,4th,1st,1.2136134628715478,1.265710930763565,-1.0394951333536442
perc,resp,1582,1,2.3.1left.bmp,2.3.1right.bmp,,ACC030,"[0, 2, -2]","[0, 2, -2]",[],match,1.0,,0.3192862783747552,0.4489103918630264,-0.8697063973300466,3rd,3rd,1st,0.38386793419616494,0.2555294960193204,-1.0394951333536442
perc,resp,1061,1,1.1.2left.bmp,1.1.2right.bmp,,ACC030,"[-2, -2, 0]","[-2, -2, 0]",[],match,1.0,,-1.2489554118792372,1.402678697216029,-0.7240852598266696,1st,4th,1st,-1.2720988656471657,1.265710930763565,-1.0394951333536442
perc,resp,1214,0,1.2.1left.bmp,1.2.1right.bmp,,ACC030,"[-2, 0, -2]","[-2, 0, -2]",[],match,1.0,,-1.6079097904611643,-0.1921757272728988,-0.903571043337837,1st,2nd,1st,-1.2720988656471657,-0.3302598465533287,-1.0394951333536442
perc,resp,1275,1,3.3.2left.bmp,3.3.2right.bmp,,ACC030,"[2, 2, 0]","[2, 2, 0]",[],match,1.0,,-1.4405215475981226,-0.4088268988184219,-0.8583961463284775,1st,2nd,1st,-1.2720988656471657,-0.3302598465533287,-1.0394951333536442
perc,resp,1184,1,1.2.3left.bmp,1.2.3right.bmp,,ACC030,"[-2, 0, 2]","[-2, 0, 2]",[],match,1.0,,0.030787663860412477,0.14843106008302814,-0.982171542725614,2nd,3rd,1st,-0.30667519516102976,0.2555294960193204,-1.0394951333536442
perc,resp,1205,1,2.1.1left.bmp,2.1.1right.bmp,,ACC030,"[0, -2, -2]","[0, -2, -2]",[],match,1.0,,-0.49240743210523785,0.006096844823432365,-1.0207589577710208,2nd,3rd,1st,-0.30667519516102976,0.2555294960193204,-1.0394951333536442
perc,resp,1415,1,2.1.2left.bmp,2.1.2right.bmp,,ACC030,"[0, -2, 0]","[0, -2, 0]",[],match,1.0,,0.5781991534788867,0.4313849231735192,-1.412652130693165,3rd,3rd,1st,0.38386793419616494,0.2555294960193204,-1.0394951333536442
perc,resp,1749,0,2.2.2left.bmp,1.2.2right.bmp,,ACC030,"[0, 0, 0]","[-2, 0, 0]",[],non-match,0.7113248654051871,4,-0.554078259728958,-0.27915383663821314,-1.2387044362258517,2nd,2nd,1st,-0.30667519516102976,-0.3302598465533287,-1.0394951333536442
perc,resp,1675,0,2.2.1left.bmp,3.2.3right.bmp,,ACC030,"[0, 0, -2]","[2, 0, 2]",[],non-match,0.3545027756320971,2,-1.3707624272924561,-0.8415001362607463,-1.1850073183357543,1st,1st,1st,-1.2720988656471657,-1.1737199921102874,-1.0394951333536442
perc,resp,1184,1,3.1.1left.bmp,1.1.1right.bmp,,ACC030,"[2, -2, -2]","[-2, -2, -2]",[],non-match,0.42264973081037416,2,1.0900271034937996,0.5679222165679721,-1.2872205508391719,4th,3rd,1st,1.2136134628715478,0.2555294960193204,-1.0394951333536442
perc,resp,1253,1,2.3.3left.bmp,2.3.3right.bmp,,ACC030,"[0, 2, 2]","[0, 2, 2]",[],match,1.0,,-0.373487432545336,-0.6114826633776886,-1.2938498496000777,2nd,2nd,1st,-0.30667519516102976,-0.3302598465533287,-1.0394951333536442
perc,resp,1084,1,3.3.1left.bmp,1.2.3right.bmp,,ACC030,"[2, 2, -2]","[-2, 0, 2]",[],non-match,0.1339745962155613,1,0.9429716450814724,-0.053459673291136565,-1.046647472895585,4th,2nd,1st,1.2136134628715478,-0.3302598465533287,-1.0394951333536442
perc,resp,1566,1,1.3.3left.bmp,2.2.2right.bmp,,ACC030,"[-2, 2, 2]","[0, 0, 0]",[],non-match,0.5,3,-1.926442494191144,0.6491167672045269,-1.0463586361749024,1st,4th,1st,-1.2720988656471657,1.265710930763565,-1.0394951333536442
perc,resp,1357,1,1.3.1left.bmp,1.1.2right.bmp,,ACC030,"[-2, 2, -2]","[-2, -2, 0]",[],non-match,0.3545027756320971,2,-0.2341558130759784,0.2860913258157305,-0.8225542002485887,2nd,3rd,1st,-0.30667519516102976,0.2555294960193204,-1.0394951333536442
perc,resp,1089,1,3.1.3left.bmp,1.2.2right.bmp,,ACC030,"[2, -2, 2]","[-2, 0, 0]",[],non-match,0.29289321881345254,1,1.4072683100992767,0.887041281567557,-0.8436695269651426,4th,4th,1st,1.2136134628715478,1.265710930763565,-1.0394951333536442
perc,resp,1267,0,1.1.1left.bmp,1.1.1right.bmp,,ACC030,"[-2, -2, -2]","[-2, -2, -2]",[],match,1.0,,-1.3272098567554367,0.3358643535185859,-0.9145463620902533,1st,3rd,1st,-1.2720988656471657,0.2555294960193204,-1.0394951333536442
perc,resp,847,1,3.2.3left.bmp,1.3.2right.bmp,,ACC030,"[2, 0, 2]","[-2, 2, 0]",[],non-match,0.29289321881345254,1,-1.1564017846107333,-0.733851565827428,-0.748365103071189,1st,1st,1st,-1.2720988656471657,-1.1737199921102874,-1.0394951333536442
perc,resp,1075,1,3.3.3left.bmp,2.1.3right.bmp,,ACC030,"[2, 2, 2]","[0, -2, 2]",[],non-match,0.3545027756320971,2,-1.3232272994501297,-0.3719042850563745,-0.7450338813285301,1st,2nd,1st,-1.2720988656471657,-0.3302598465533287,-1.0394951333536442
perc,resp,1164,1,1.1.3left.bmp,3.3.2right.bmp,,ACC030,"[-2, -2, 2]","[2, 2, 0]",[],non-match,0.1339745962155613,1,1.6984491766238696,0.644699831984932,-0.43791666253301786,4th,4th,2nd,1.2136134628715478,1.265710930763565,-0.40225477327529285
perc,resp,1155,0,3.2.1left.bmp,3.3.1right.bmp,,ACC030,"[2, 0, -2]","[2, 2, -2]",[],non-match,0.7113248654051871,4,-1.838565783197622,0.3003239033541288,-0.31236448580256715,1st,3rd,2nd,-1.2720988656471657,0.2555294960193204,-0.40225477327529285
perc,resp,972,0,2.3.2left.bmp,2.3.2right.bmp,,ACC030,"[0, 2, 0]","[0, 2, 0]",[],match,1.0,,-1.3434104753570526,0.9148076685302702,-0.2559323933173056,1st,4th,2nd,-1.2720988656471657,1.265710930763565,-0.40225477327529285
perc,resp,1063,1,1.3.2left.bmp,1.3.2right.bmp,,ACC030,"[-2, 2, 0]","[-2, 2, 0]",[],match,1.0,,0.47798271047705954,-0.431727563525079,-0.2394068700355368,3rd,2nd,2nd,0.38386793419616494,-0.3302598465533287,-0.40225477327529285
perc,resp,1162,1,3.1.2left.bmp,3.1.2right.bmp,,ACC030,"[2, -2, 0]","[2, -2, 0]",[],match,1.0,,0.15303191369254698,0.2039215006641191,-0.09192652935031036,3rd,3rd,3rd,0.38386793419616494,0.2555294960193204,0.0755593790348966
perc,resp,1091,1,3.2.2left.bmp,1.3.1right.bmp,,ACC030,"[2, 0, 0]","[-2, 2, -2]",[],non-match,0.29289321881345254,1,0.4535130710951834,-0.6462679958617296,-0.21056318766436713,3rd,2nd,2nd,0.38386793419616494,-0.3302598465533287,-0.40225477327529285
perc,resp,1154,1,2.1.3left.bmp,2.1.3right.bmp,,ACC030,"[0, -2, 2]","[0, -2, 2]",[],match,1.0,,0.19429946357288955,-0.4091598050230805,-0.09352659432885845,3rd,2nd,3rd,0.38386793419616494,-0.3302598465533287,0.0755593790348966
perc,resp,1103,1,2.2.3left.bmp,2.2.3right.bmp,,ACC030,"[0, 0, 2]","[0, 0, 2]",[],match,1.0,,-1.1373874672572597,-0.9474985937916072,0.04499602797496644,1st,1st,3rd,-1.2720988656471657,-1.1737199921102874,0.0755593790348966
perc,resp,1071,1,3.2.2left.bmp,3.2.2right.bmp,,ACC030,"[2, 0, 0]","[2, 0, 0]",[],match,1.0,,-0.11919555072659337,-0.18098013180011677,0.15220540088869855,2nd,2nd,3rd,-0.30667519516102976,-0.3302598465533287,0.0755593790348966
perc,resp,1020,1,2.2.1left.bmp,2.2.1right.bmp,,ACC030,"[0, 0, -2]","[0, 0, -2]",[],match,1.0,,1.4781041988510641,-0.0750295839599764,-0.13918189312482224,4th,2nd,3rd,1.2136134628715478,-0.3302598465533287,0.0755593790348966
perc,resp,838,0,3.1.1left.bmp,3.1.1right.bmp,,ACC030,"[2, -2, -2]","[2, -2, -2]",[],match,1.0,,-2.024030992956367,-0.5202764610095773,-0.2787782831362518,1st,2nd,2nd,-1.2720988656471657,-0.3302598465533287,-0.40225477327529285
perc,resp,1449,1,1.1.3left.bmp,1.3.1right.bmp,,ACC030,"[-2, -2, 2]","[-2, 2, -2]",[],non-match,0.18350341907227385,1,0.17103237075067185,-1.913577039639368,-0.3229166892254939,3rd,1st,2nd,0.38386793419616494,-1.1737199921102874,-0.40225477327529285
perc,resp,1198,1,3.1.3left.bmp,3.1.3right.bmp,,ACC030,"[2, -2, 2]","[2, -2, 2]",[],match,1.0,,0.895287849367789,1.3561169082169025,-0.43833173432329164,4th,4th,2nd,1.2136134628715478,1.265710930763565,-0.40225477327529285
perc,resp,1543,0,1.1.1left.bmp,2.1.2right.bmp,,ACC030,"[-2, -2, -2]","[0, -2, 0]",[],non-match,0.5917517095361369,3,0.5441205486482812,-0.6999835506967569,-0.19828758784023137,3rd,1st,2nd,0.38386793419616494,-1.1737199921102874,-0.40225477327529285
perc,resp,1305,1,1.3.2left.bmp,1.3.2right.bmp,,ACC030,"[-2, 2, 0]","[-2, 2, 0]",[],match,1.0,,0.9439100249516968,0.6876042075863191,0.16456951850254647,4th,4th,3rd,1.2136134628715478,1.265710930763565,0.0755593790348966
perc,resp,1376,1,2.1.3left.bmp,2.2.1right.bmp,,ACC030,"[0, -2, 2]","[0, 0, -2]",[],non-match,0.3545027756320971,2,1.3864554329420604,1.767607933403377,0.4174963927662061,4th,4th,4th,1.2136134628715478,1.265710930763565,1.3814772207315937
perc,resp,1015,1,2.3.2left.bmp,3.1.2right.bmp,,ACC030,"[0, 2, 0]","[2, -2, 0]",[],non-match,0.3545027756320971,2,0.7387032572958819,-1.3772161834457806,0.19731320297384602,4th,1st,3rd,1.2136134628715478,-1.1737199921102874,0.0755593790348966
perc,resp,1034,1,1.2.3left.bmp,3.3.1right.bmp,,ACC030,"[-2, 0, 2]","[2, 2, -2]",[],non-match,0.1339745962155613,1,1.3256675320333864,0.8210345550256654,0.34132244967526454,4th,4th,4th,1.2136134628715478,1.265710930763565,1.3814772207315937
perc,resp,1063,1,2.2.2left.bmp,2.2.2right.bmp,,ACC030,"[0, 0, 0]","[0, 0, 0]",[],match,1.0,,1.3062218909647105,1.1710676786920504,0.8026821833809954,4th,4th,4th,1.2136134628715478,1.265710930763565,1.3814772207315937
perc,resp,981,0,2.3.3left.bmp,2.2.3right.bmp,,ACC030,"[0, 2, 2]","[0, 0, 2]",[],non-match,0.7113248654051871,4,-0.18603962503400845,0.13569749822955002,0.6892199459484497,2nd,3rd,4th,-0.30667519516102976,0.2555294960193204,1.3814772207315937
perc,resp,1090,0,3.3.2left.bmp,3.2.1right.bmp,,ACC030,"[2, 2, 0]","[2, 0, -2]",[],non-match,0.5917517095361369,3,-0.6950832570241514,0.7133003466481507,0.40847911284449884,2nd,4th,4th,-0.30667519516102976,1.265710930763565,1.3814772207315937
perc,resp,1009,1,3.2.3left.bmp,2.2.1right.bmp,,ACC030,"[2, 0, 2]","[0, 0, -2]",[],non-match,0.3545027756320971,2,-0.5254135346823385,0.8824868299620143,0.2596306249961859,2nd,4th,3rd,-0.30667519516102976,1.265710930763565,0.0755593790348966
perc,resp,1077,1,1.3.1left.bmp,1.3.1right.bmp,,ACC030,"[-2, 2, -2]","[-2, 2, -2]",[],match,1.0,,0.015287793440617231,0.21531017503728933,0.3778525131090266,2nd,3rd,4th,-0.30667519516102976,0.2555294960193204,1.3814772207315937
perc,resp,1204,1,2.1.1left.bmp,1.2.1right.bmp,,ACC030,"[0, -2, -2]","[-2, 0, -2]",[],non-match,0.5917517095361369,3,0.3768624064249497,0.9331639291023489,0.26838157964323606,3rd,4th,3rd,0.38386793419616494,1.265710930763565,0.0755593790348966
perc,resp,1005,1,3.2.1left.bmp,1.2.2right.bmp,,ACC030,"[2, 0, -2]","[-2, 0, 0]",[],non-match,0.3545027756320971,2,-0.8432440843472019,0.1167699384583699,0.33878785511711795,1st,3rd,4th,-1.2720988656471657,0.2555294960193204,1.3814772207315937
perc,resp,789,1,2.3.1left.bmp,1.2.3right.bmp,,ACC030,"[0, 2, -2]","[-2, 0, 2]",[],non-match,0.29289321881345254,1,1.0463642598109069,2.4852004532233334,0.21819823559738702,4th,4th,3rd,1.2136134628715478,1.265710930763565,0.0755593790348966
perc,resp,1210,0,3.3.3left.bmp,3.1.3right.bmp,,ACC030,"[2, 2, 2]","[2, -2, 2]",[],non-match,0.42264973081037416,2,0.0018008010705689544,0.5303783006929849,0.2735907439740221,2nd,3rd,3rd,-0.30667519516102976,0.2555294960193204,0.0755593790348966
perc,resp,1191,1,3.1.2left.bmp,3.1.2right.bmp,,ACC030,"[2, -2, 0]","[2, -2, 0]",[],match,1.0,,0.2557104204146332,-0.9362542848304275,0.11431067900402098,3rd,1st,3rd,0.38386793419616494,-1.1737199921102874,0.0755593790348966
perc,resp,1212,1,2.1.2left.bmp,3.2.2right.bmp,,ACC030,"[0, -2, 0]","[2, 0, 0]",[],non-match,0.5917517095361369,3,0.7081073475158426,0.801472463971441,-0.07851233272589912,4th,4th,3rd,1.2136134628715478,1.265710930763565,0.0755593790348966
perc,resp,830,1,3.3.1left.bmp,1.1.3right.bmp,,ACC030,"[2, 2, -2]","[-2, -2, 2]",[],non-match,0.0,1,0.26929880021239266,-0.49592487451235556,-0.026965620081368664,3rd,2nd,3rd,0.38386793419616494,-0.3302598465533287,0.0755593790348966
perc,resp,1148,1,1.2.1left.bmp,3.3.3right.bmp,,ACC030,"[-2, 0, -2]","[2, 2, 2]",[],non-match,0.1339745962155613,1,-0.14576682782584316,1.5767085304172652,-0.11574578602522756,2nd,4th,3rd,-0.30667519516102976,1.265710930763565,0.0755593790348966
perc,resp,1231,1,2.2.3left.bmp,1.1.1right.bmp,,ACC030,"[0, 0, 2]","[-2, -2, -2]",[],non-match,0.29289321881345254,1,-0.7184732582151084,-0.4108685114270514,-0.24877723768637558,2nd,2nd,2nd,-0.30667519516102976,-0.3302598465533287,-0.40225477327529285
perc,resp,1120,1,1.2.2left.bmp,2.3.1right.bmp,,ACC030,"[-2, 0, 0]","[0, 2, -2]",[],non-match,0.5,3,1.2397899211063759,2.2450618781583342,-0.42270416413484246,4th,4th,2nd,1.2136134628715478,1.265710930763565,-0.40225477327529285
perc,resp,1067,1,1.3.3left.bmp,1.3.3right.bmp,,ACC030,"[-2, 2, 2]","[-2, 2, 2]",[],match,1.0,,0.8607249494448609,3.3587842467043765,-0.4549403524314446,4th,4th,2nd,1.2136134628715478,1.265710930763565,-0.40225477327529285
perc,resp,904,1,1.1.2left.bmp,1.1.2right.bmp,,ACC030,"[-2, -2, 0]","[-2, -2, 0]",[],match,1.0,,-0.25934420529498375,0.9392198077858445,-0.5286884105217576,2nd,4th,2nd,-0.30667519516102976,1.265710930763565,-0.40225477327529285
perc,resp,1242,1,2.3.3left.bmp,2.3.3right.bmp,,ACC030,"[0, 2, 2]","[0, 2, 2]",[],match,1.0,,-0.008780442205407732,-0.1290034592735277,-0.1877532826131343,2nd,2nd,2nd,-0.30667519516102976,-0.3302598465533287,-0.40225477327529285
perc,resp,1008,0,3.3.2left.bmp,3.2.2right.bmp,,ACC030,"[2, 2, 0]","[2, 0, 0]",[],non-match,0.7113248654051871,4,0.5686923399458018,1.0669614111307766,0.1180827376197515,3rd,4th,3rd,0.38386793419616494,1.265710930763565,0.0755593790348966
perc,resp,1085,0,1.3.2left.bmp,1.2.1right.bmp,,ACC030,"[-2, 2, 0]","[-2, 0, -2]",[],non-match,0.5917517095361369,3,-0.9024677573376245,-0.11713451578820448,0.14419421285524056,1st,2nd,3rd,-1.2720988656471657,-0.3302598465533287,0.0755593790348966
perc,resp,1043,0,2.2.1left.bmp,2.2.1right.bmp,,ACC030,"[0, 0, -2]","[0, 0, -2]",[],match,1.0,,-1.1819500109846068,-0.7784657195630225,0.10896296736955866,1st,1st,3rd,-1.2720988656471657,-1.1737199921102874,0.0755593790348966
perc,resp,1367,0,2.1.2left.bmp,2.1.2right.bmp,,ACC030,"[0, -2, 0]","[0, -2, 0]",[],match,1.0,,1.5080102296825482,-0.21664158700656874,0.22309635697416313,4th,2nd,3rd,1.2136134628715478,-0.3302598465533287,0.0755593790348966
perc,resp,1689,1,1.1.2left.bmp,2.1.1right.bmp,,ACC030,"[-2, -2, 0]","[0, -2, -2]",[],non-match,0.5917517095361369,3,0.5061893119272536,-1.2702655773288694,0.37272991848932463,3rd,1st,4th,0.38386793419616494,-1.1737199921102874,1.3814772207315937
perc,resp,1510,1,2.2.3left.bmp,2.2.3right.bmp,,ACC030,"[0, 0, 2]","[0, 0, 2]",[],match,1.0,,0.9692203832131399,-0.6838221601571017,0.26427702161376543,4th,1st,3rd,1.2136134628715478,-1.1737199921102874,0.0755593790348966
perc,resp,1040,1,3.2.1left.bmp,2.3.2right.bmp,,ACC030,"[2, 0, -2]","[0, 2, 0]",[],non-match,0.5,3,0.43512921723563347,-1.1134791133239983,0.46969828108140943,3rd,1st,4th,0.38386793419616494,-1.1737199921102874,1.3814772207315937
perc,resp,1400,1,2.3.1left.bmp,3.3.3right.bmp,,ACC030,"[0, 2, -2]","[2, 2, 2]",[],non-match,0.3545027756320971,2,0.20180767734590402,-0.056657448383771736,0.4124293133376843,3rd,2nd,4th,0.38386793419616494,-0.3302598465533287,1.3814772207315937
perc,resp,1405,1,3.1.2left.bmp,3.1.2right.bmp,,ACC030,"[2, -2, 0]","[2, -2, 0]",[],match,1.0,,-0.3470318287304643,-0.6921901963507592,0.22047286924709877,2nd,1st,3rd,-0.30667519516102976,-1.1737199921102874,0.0755593790348966
perc,resp,1445,1,1.1.1left.bmp,1.1.1right.bmp,,ACC030,"[-2, -2, -2]","[-2, -2, -2]",[],match,1.0,,1.078833885192604,1.04071547445771,0.14096333344637077,4th,4th,3rd,1.2136134628715478,1.265710930763565,0.0755593790348966
perc,resp,1386,0,2.2.2left.bmp,2.2.2right.bmp,,ACC030,"[0, 0, 0]","[0, 0, 0]",[],match,1.0,,0.26352660591008403,0.11092853978841893,-0.5259248696149781,3rd,3rd,2nd,0.38386793419616494,0.2555294960193204,-0.40225477327529285
perc,resp,1157,1,1.3.3left.bmp,1.3.3right.bmp,,ACC030,"[-2, 2, 2]","[-2, 2, 2]",[],match,1.0,,-0.9935098610505573,0.23031312566618645,-0.5296093975276953,1st,3rd,2nd,-1.2720988656471657,0.2555294960193204,-0.40225477327529285
perc,resp,1398,0,3.3.3left.bmp,3.3.3right.bmp,,ACC030,"[2, 2, 2]","[2, 2, 2]",[],match,1.0,,0.2789339311402185,-0.11026639955185451,-0.7039849676627002,3rd,2nd,1st,0.38386793419616494,-0.3302598465533287,-1.0394951333536442
perc,resp,874,1,3.3.1left.bmp,1.2.3right.bmp,,ACC030,"[2, 2, -2]","[-2, 0, 2]",[],non-match,0.1339745962155613,1,-0.02481005412465862,0.6955001801024446,-0.5685528092419875,2nd,4th,2nd,-0.30667519516102976,1.265710930763565,-0.40225477327529285
perc,resp,1387,1,3.1.3left.bmp,3.1.3right.bmp,,ACC030,"[2, -2, 2]","[2, -2, 2]",[],match,1.0,,0.7755086537625939,-0.8041598826222306,-0.49267291396281493,4th,1st,2nd,1.2136134628715478,-1.1737199921102874,-0.40225477327529285
perc,resp,1164,1,3.3.3left.bmp,3.3.3right.bmp,,ACC030,"[2, 2, 2]","[2, 2, 2]",[],match,1.0,,0.04829963513868539,0.5338791075099412,-0.7467107040217694,3rd,3rd,1st,0.38386793419616494,0.2555294960193204,-1.0394951333536442
perc,resp,1073,1,1.1.2left.bmp,1.1.2right.bmp,,ACC030,"[-2, -2, 0]","[-2, -2, 0]",[],match,1.0,,-0.9304879668811568,-1.2753334547007524,-0.9296359448374609,1st,1st,1st,-1.2720988656471657,-1.1737199921102874,-1.0394951333536442
perc,resp,1143,0,2.1.3left.bmp,2.3.3right.bmp,,ACC030,"[0, -2, 2]","[0, 2, 2]",[],non-match,0.42264973081037416,2,-0.6552619883862465,0.8310262960189247,-0.6077034969817742,2nd,4th,2nd,-0.30667519516102976,1.265710930763565,-0.40225477327529285
perc,resp,1204,1,2.2.3left.bmp,3.1.3right.bmp,,ACC030,"[0, 0, 2]","[2, -2, 2]",[],non-match,0.5917517095361369,3,-1.6441076357998667,0.09223220581572653,-0.7654389354513564,1st,3rd,1st,-1.2720988656471657,0.2555294960193204,-1.0394951333536442
perc,resp,1235,0,2.2.2left.bmp,2.2.2right.bmp,,ACC030,"[0, 0, 0]","[0, 0, 0]",[],match,1.0,,-0.43355149497609363,-1.0674987882154334,-0.5918484758558107,2nd,1st,2nd,-0.30667519516102976,-1.1737199921102874,-0.40225477327529285
perc,resp,1052,1,3.3.1left.bmp,1.1.2right.bmp,,ACC030,"[2, 2, -2]","[-2, -2, 0]",[],non-match,0.1339745962155613,1,0.07388657403028048,0.7734798749457232,-0.3780517671098675,3rd,4th,2nd,0.38386793419616494,1.265710930763565,-0.40225477327529285
perc,resp,1203,0,3.2.1left.bmp,3.2.1right.bmp,,ACC030,"[2, 0, -2]","[2, 0, -2]",[],match,1.0,,-0.10252342118152338,0.8705801079858605,-0.03366353060613065,2nd,4th,3rd,-0.30667519516102976,1.265710930763565,0.0755593790348966
perc,resp,1898,1,2.3.2left.bmp,2.1.1right.bmp,,ACC030,"[0, 2, 0]","[0, -2, -2]",[],non-match,0.3545027756320971,2,1.2502810152566757,-1.081910478669578,0.12140356662425714,4th,1st,3rd,1.2136134628715478,-1.1737199921102874,0.0755593790348966
perc,resp,1097,1,2.2.1left.bmp,2.2.1right.bmp,,ACC030,"[0, 0, -2]","[0, 0, -2]",[],match,1.0,,-1.3908928194573675,0.42411772139041704,-0.11248636298463124,1st,3rd,3rd,-1.2720988656471657,0.2555294960193204,0.0755593790348966
perc,resp,1520,1,1.3.1left.bmp,1.2.3right.bmp,,ACC030,"[-2, 2, -2]","[-2, 0, 2]",[],non-match,0.3545027756320971,2,-0.8559123906925266,-0.042803526534495005,-0.13821130871884835,1st,2nd,3rd,-1.2720988656471657,-0.3302598465533287,0.0755593790348966
perc,resp,1393,1,1.3.2left.bmp,2.1.2right.bmp,,ACC030,"[-2, 2, 0]","[0, -2, 0]",[],non-match,0.3545027756320971,2,-0.9787637087755445,0.022120283586730228,-0.12989121701625772,1st,3rd,3rd,-1.2720988656471657,0.2555294960193204,0.0755593790348966
perc,resp,1404,1,1.1.3left.bmp,3.2.3right.bmp,,ACC030,"[-2, -2, 2]","[2, 0, 2]",[],non-match,0.3545027756320971,2,0.21565698748783604,0.5432156864131067,-0.17206249921443736,3rd,3rd,2nd,0.38386793419616494,0.2555294960193204,-0.40225477327529285
perc,resp,1196,1,1.1.1left.bmp,1.1.1right.bmp,,ACC030,"[-2, -2, -2]","[-2, -2, -2]",[],match,1.0,,-0.764095053561627,-0.38584776336352433,0.08385298283807362,1st,2nd,3rd,-1.2720988656471657,-0.3302598465533287,0.0755593790348966
perc,resp,1133,1,3.3.2left.bmp,3.3.2right.bmp,,ACC030,"[2, 2, 0]","[2, 2, 0]",[],match,1.0,,0.05194422757854185,-0.8920264898450284,-0.2911563896012692,3rd,1st,2nd,0.38386793419616494,-1.1737199921102874,-0.40225477327529285
perc,resp,882,1,3.1.2left.bmp,1.3.3right.bmp,,ACC030,"[2, -2, 0]","[-2, 2, 2]",[],non-match,0.1339745962155613,1,0.8085690537733053,2.0488541953117037,-0.45619692572891946,4th,4th,2nd,1.2136134628715478,1.265710930763565,-0.40225477327529285
perc,resp,1008,0,3.2.2left.bmp,3.3.3right.bmp,,ACC030,"[2, 0, 0]","[2, 2, 2]",[],non-match,0.5917517095361369,3,-0.8897082863242783,0.6009492583788272,-0.31873167031430577,1st,3rd,2nd,-1.2720988656471657,0.2555294960193204,-0.40225477327529285
perc,resp,1157,1,3.2.3left.bmp,3.2.3right.bmp,,ACC030,"[2, 0, 2]","[2, 0, 2]",[],match,1.0,,0.5292249306408497,0.22238613995634676,-0.29298931252940336,3rd,3rd,2nd,0.38386793419616494,0.2555294960193204,-0.40225477327529285
perc,resp,1286,1,1.2.2left.bmp,1.2.2right.bmp,,ACC030,"[-2, 0, 0]","[-2, 0, 0]",[],match,1.0,,0.26175150261354624,-0.5719250501175713,-0.2777662074410806,3rd,2nd,2nd,0.38386793419616494,-0.3302598465533287,-0.40225477327529285
perc,resp,1035,1,2.1.2left.bmp,2.1.2right.bmp,,ACC030,"[0, -2, 0]","[0, -2, 0]",[],match,1.0,,1.9523768539125999,1.7581438855852287,-0.618199738108591,4th,4th,2nd,1.2136134628715478,1.265710930763565,-0.40225477327529285
perc,resp,1094,1,2.3.1left.bmp,1.2.3right.bmp,,ACC030,"[0, 2, -2]","[-2, 0, 2]",[],non-match,0.29289321881345254,1,-0.7824196210629027,-0.2181298853891255,-0.6346459887444185,1st,2nd,2nd,-1.2720988656471657,-0.3302598465533287,-0.40225477327529285
perc,resp,1083,1,1.3.3left.bmp,3.3.2right.bmp,,ACC030,"[-2, 2, 2]","[2, 2, 0]",[],non-match,0.3545027756320971,2,1.4767068698520962,-0.5970849556539715,-0.3011184933861285,4th,2nd,2nd,1.2136134628715478,-0.3302598465533287,-0.40225477327529285
perc,resp,1162,1,3.1.1left.bmp,3.2.1right.bmp,,ACC030,"[2, -2, -2]","[2, 0, -2]",[],non-match,0.7113248654051871,4,2.9141705054872666,1.3348619522712635,-0.5989728316525044,4th,4th,2nd,1.2136134628715478,1.265710930763565,-0.40225477327529285
perc,resp,1272,1,1.2.1left.bmp,1.2.1right.bmp,,ACC030,"[-2, 0, -2]","[-2, 0, -2]",[],match,1.0,,0.4321278398121913,-0.316559867719983,-0.5258243420966032,3rd,2nd,2nd,0.38386793419616494,-0.3302598465533287,-0.40225477327529285
perc,resp,1023,1,3.1.3left.bmp,2.3.1right.bmp,,ACC030,"[2, -2, 2]","[0, 2, -2]",[],non-match,0.1339745962155613,1,0.0008692781992429255,-0.2175427111858989,-0.5892307165039357,2nd,2nd,2nd,-0.30667519516102976,-0.3302598465533287,-0.40225477327529285
perc,resp,1092,1,2.1.1left.bmp,2.1.1right.bmp,,ACC030,"[0, -2, -2]","[0, -2, -2]",[],match,1.0,,-0.9292853131096459,1.3433440942435186,-0.45281249486644365,1st,4th,2nd,-1.2720988656471657,1.265710930763565,-0.40225477327529285
perc,resp,1049,1,1.2.3left.bmp,1.2.3right.bmp,,ACC030,"[-2, 0, 2]","[-2, 0, 2]",[],match,1.0,,0.3598626474403472,-0.48574280092743805,-0.17201077621280278,3rd,2nd,2nd,0.38386793419616494,-0.3302598465533287,-0.40225477327529285
perc,resp,1208,1,2.3.3left.bmp,2.3.3right.bmp,,ACC030,"[0, 2, 2]","[0, 2, 2]",[],match,1.0,,-0.08062544157120813,0.7857529946964201,0.0014246622005613684,2nd,4th,3rd,-0.30667519516102976,1.265710930763565,0.0755593790348966
perc,resp,875,0,1.2.1left.bmp,1.1.3right.bmp,,ACC030,"[-2, 0, -2]","[-2, -2, 2]",[],non-match,0.3545027756320971,2,1.1594477263162044,-0.1345513378250043,0.05071734756101949,4th,2nd,3rd,1.2136134628715478,-0.3302598465533287,0.0755593790348966
perc,resp,951,1,1.2.3left.bmp,1.2.3right.bmp,,ACC030,"[-2, 0, 2]","[-2, 0, 2]",[],match,1.0,,0.5341609662560415,0.19381803179372273,0.15537220664173618,3rd,3rd,3rd,0.38386793419616494,0.2555294960193204,0.0755593790348966
perc,resp,980,1,2.3.1left.bmp,2.3.1right.bmp,,ACC030,"[0, 2, -2]","[0, 2, -2]",[],match,1.0,,-0.701523359254804,-0.6241109444812332,0.012463630937615546,2nd,2nd,3rd,-0.30667519516102976,-0.3302598465533287,0.0755593790348966
perc,resp,1109,1,2.1.3left.bmp,2.1.3right.bmp,,ACC030,"[0, -2, 2]","[0, -2, 2]",[],match,1.0,,-0.34012979718085284,2.3624111143510413,0.24806841478121316,2nd,4th,3rd,-0.30667519516102976,1.265710930763565,0.0755593790348966
perc,resp,970,1,3.1.1left.bmp,3.1.1right.bmp,,ACC030,"[2, -2, -2]","[2, -2, -2]",[],match,1.0,,-1.0413802880807226,1.7649816584592626,0.26959891674408343,1st,4th,3rd,-1.2720988656471657,1.265710930763565,0.0755593790348966
perc,resp,927,1,2.1.1left.bmp,2.1.1right.bmp,,ACC030,"[0, -2, -2]","[0, -2, -2]",[],match,1.0,,-0.29979866752487244,-0.6126373019952649,0.44837442894180674,2nd,2nd,4th,-0.30667519516102976,-0.3302598465533287,1.3814772207315937
perc,resp,1036,1,1.3.1left.bmp,3.2.3right.bmp,,ACC030,"[-2, 2, -2]","[2, 0, 2]",[],non-match,0.1339745962155613,1,-0.0005892686363739175,-0.18190925493187068,0.5527519048631575,2nd,2nd,4th,-0.30667519516102976,-0.3302598465533287,1.3814772207315937
perc,resp,1216,1,2.2.3left.bmp,2.2.3right.bmp,,ACC030,"[0, 0, 2]","[0, 0, 2]",[],match,1.0,,1.2612328094909395,1.6212075736271636,0.46428343907275504,4th,4th,4th,1.2136134628715478,1.265710930763565,1.3814772207315937
perc,resp,952,1,1.3.2left.bmp,2.2.1right.bmp,,ACC030,"[-2, 2, 0]","[0, 0, -2]",[],non-match,0.5,3,-0.09720501288921193,2.2562243504685005,0.4026023684170913,2nd,4th,4th,-0.30667519516102976,1.265710930763565,1.3814772207315937
perc,resp,1091,1,3.1.2left.bmp,2.3.1right.bmp,,ACC030,"[2, -2, 0]","[0, 2, -2]",[],non-match,0.29289321881345254,1,-0.1409846109041513,-0.5997984761376373,0.008304486701483151,2nd,2nd,3rd,-0.30667519516102976,-0.3302598465533287,0.0755593790348966
perc,resp,1110,1,1.3.3left.bmp,1.3.3right.bmp,,ACC030,"[-2, 2, 2]","[-2, 2, 2]",[],match,1.0,,-1.0706856262849926,-0.21706237509060575,0.017141987149579485,1st,2nd,3rd,-1.2720988656471657,-0.3302598465533287,0.0755593790348966
perc,resp,1159,1,3.1.3left.bmp,3.1.3right.bmp,,ACC030,"[2, -2, 2]","[2, -2, 2]",[],match,1.0,,1.8313881749265524,-0.3574715284047728,-0.06821920186993834,4th,2nd,3rd,1.2136134628715478,-0.3302598465533287,0.0755593790348966
perc,resp,1058,1,3.3.2left.bmp,3.3.2right.bmp,,ACC030,"[2, 2, 0]","[2, 2, 0]",[],match,1.0,,-0.530657509605628,1.294961301606597,0.028333871398298058,2nd,4th,3rd,-0.30667519516102976,1.265710930763565,0.0755593790348966
perc,resp,1301,1,2.2.2left.bmp,3.2.2right.bmp,,ACC030,"[0, 0, 0]","[2, 0, 0]",[],non-match,0.7113248654051871,4,0.6867568035714104,1.0005455515711672,-0.17595190168398467,4th,4th,2nd,1.2136134628715478,1.265710930763565,-0.40225477327529285
perc,resp,958,0,1.1.3left.bmp,1.1.2right.bmp,,ACC030,"[-2, -2, 2]","[-2, -2, 0]",[],non-match,0.7113248654051871,4,0.25320946051615534,0.15768665637021229,0.005310930461764463,3rd,3rd,3rd,0.38386793419616494,0.2555294960193204,0.0755593790348966
perc,resp,987,1,3.3.1left.bmp,1.3.1right.bmp,,ACC030,"[2, 2, -2]","[-2, 2, -2]",[],non-match,0.42264973081037416,2,-0.4676058837581963,0.38694174390218833,-0.22480660720559084,2nd,3rd,2nd,-0.30667519516102976,0.2555294960193204,-0.40225477327529285
perc,resp,974,0,3.2.1left.bmp,3.2.1right.bmp,,ACC030,"[2, 0, -2]","[2, 0, -2]",[],match,1.0,,1.1890938259908859,0.06834407566257518,-0.2426331286109859,4th,3rd,2nd,1.2136134628715478,0.2555294960193204,-0.40225477327529285
perc,resp,973,1,2.2.1left.bmp,1.2.3right.bmp,,ACC030,"[0, 0, -2]","[-2, 0, 2]",[],non-match,0.3545027756320971,2,0.5609428600086759,-0.7705130123275111,-0.24088024417236165,3rd,1st,2nd,0.38386793419616494,-1.1737199921102874,-0.40225477327529285
perc,resp,1001,1,1.1.1left.bmp,1.1.1right.bmp,,ACC030,"[-2, -2, -2]","[-2, -2, -2]",[],match,1.0,,0.7877257111907465,0.17428708789949143,-0.04395903320933662,4th,3rd,3rd,1.2136134628715478,0.2555294960193204,0.0755593790348966
perc,resp,1292,0,2.3.3left.bmp,1.2.2right.bmp,,ACC030,"[0, 2, 2]","[-2, 0, 0]",[],non-match,0.5,3,0.005489593046160503,0.16466891187673105,0.13760992416110387,2nd,3rd,3rd,-0.30667519516102976,0.2555294960193204,0.0755593790348966
perc,resp,1303,0,3.3.3left.bmp,2.2.3right.bmp,,ACC030,"[2, 2, 2]","[0, 0, 2]",[],non-match,0.5917517095361369,3,0.3103916455241423,0.7437290454841748,0.10079745306914457,3rd,4th,3rd,0.38386793419616494,1.265710930763565,0.0755593790348966
perc,resp,1092,1,1.1.2left.bmp,1.1.2right.bmp,,ACC030,"[-2, -2, 0]","[-2, -2, 0]",[],match,1.0,,1.3405992355767635,-0.06806005525001399,0.24655237479937103,4th,2nd,3rd,1.2136134628715478,-0.3302598465533287,0.0755593790348966
perc,resp,1100,1,3.2.2left.bmp,3.2.2right.bmp,,ACC030,"[2, 0, 0]","[2, 0, 0]",[],match,1.0,,0.882080348927072,-0.8586152662360207,-0.05868000629215937,4th,1st,3rd,1.2136134628715478,-1.1737199921102874,0.0755593790348966
perc,resp,1029,1,1.2.2left.bmp,1.2.2right.bmp,,ACC030,"[-2, 0, 0]","[-2, 0, 0]",[],match,1.0,,0.3288426742037172,0.030391428668709836,-0.14102891340961674,3rd,3rd,3rd,0.38386793419616494,0.2555294960193204,0.0755593790348966
perc,resp,966,1,2.1.2left.bmp,2.1.2right.bmp,,ACC030,"[0, -2, 0]","[0, -2, 0]",[],match,1.0,,0.8219477613127328,-0.16479023993448957,-0.42588913001507483,4th,2nd,2nd,1.2136134628715478,-0.3302598465533287,-0.40225477327529285
perc,resp,1247,0,2.3.2left.bmp,1.1.1right.bmp,,ACC030,"[0, 2, 0]","[-2, -2, -2]",[],non-match,0.29289321881345254,1,-0.5786286262165541,0.8598342038219262,-0.3679834698421432,2nd,4th,2nd,-0.30667519516102976,1.265710930763565,-0.40225477327529285
perc,resp,1246,1,3.2.3left.bmp,3.2.3right.bmp,,ACC030,"[2, 0, 2]","[2, 0, 2]",[],match,1.0,,-1.141025856463731,0.5851110949801333,-0.5626256900512311,1st,3rd,2nd,-1.2720988656471657,0.2555294960193204,-0.40225477327529285
perc,resp,1097,1,3.3.3left.bmp,3.3.3right.bmp,,ACC030,"[2, 2, 2]","[2, 2, 2]",[],match,1.0,,0.3405651553555735,-0.4637383371393384,-0.43257379890986997,3rd,2nd,2nd,0.38386793419616494,-0.3302598465533287,-0.40225477327529285
perc,resp,844,1,3.1.2left.bmp,1.3.2right.bmp,,ACC030,"[2, -2, 0]","[-2, 2, 0]",[],non-match,0.18350341907227385,1,0.6078637485607444,0.05111145726014361,-0.5540135953158858,3rd,3rd,2nd,0.38386793419616494,0.2555294960193204,-0.40225477327529285
perc,resp,933,1,3.1.1left.bmp,2.3.2right.bmp,,ACC030,"[2, -2, -2]","[0, 2, 0]",[],non-match,0.29289321881345254,1,-1.2354831973393385,-0.2388507512698065,-0.7186904762822981,1st,2nd,1st,-1.2720988656471657,-0.3302598465533287,-1.0394951333536442
perc,resp,959,1,1.2.3left.bmp,2.2.1right.bmp,,ACC030,"[-2, 0, 2]","[0, 0, -2]",[],non-match,0.3545027756320971,2,-0.8275152782769543,-0.8366833786798621,-1.076930976302398,1st,1st,1st,-1.2720988656471657,-1.1737199921102874,-1.0394951333536442
perc,resp,938,1,2.2.3left.bmp,1.1.3right.bmp,,ACC030,"[0, 0, 2]","[-2, -2, 2]",[],non-match,0.5917517095361369,3,0.2770669185442301,1.1148885844509806,-1.208186549767612,3rd,4th,1st,0.38386793419616494,1.265710930763565,-1.0394951333536442
perc,resp,1117,1,2.1.3left.bmp,2.1.3right.bmp,,ACC030,"[0, -2, 2]","[0, -2, 2]",[],match,1.0,,0.2574590973313777,0.4690904023816323,-1.1581411499030125,3rd,3rd,1st,0.38386793419616494,0.2555294960193204,-1.0394951333536442
perc,resp,1288,0,2.2.2left.bmp,3.3.2right.bmp,,ACC030,"[0, 0, 0]","[2, 2, 0]",[],non-match,0.5917517095361369,3,0.5072241043589265,0.8825566933767943,-1.1317182875200296,3rd,4th,1st,0.38386793419616494,1.265710930763565,-1.0394951333536442
perc,resp,1037,1,3.2.2left.bmp,3.2.2right.bmp,,ACC030,"[2, 0, 0]","[2, 0, 0]",[],match,1.0,,1.5776288489670163,-0.4525835343986766,-1.180036835542337,4th,2nd,1st,1.2136134628715478,-0.3302598465533287,-1.0394951333536442
perc,resp,1042,0,1.1.1left.bmp,2.1.2right.bmp,,ACC030,"[-2, -2, -2]","[0, -2, 0]",[],non-match,0.5917517095361369,3,1.1101208759003545,-0.4386652082605108,-1.229384197990838,4th,2nd,1st,1.2136134628715478,-0.3302598465533287,-1.0394951333536442
perc,resp,908,1,1.2.2left.bmp,1.2.2right.bmp,,ACC030,"[-2, 0, 0]","[-2, 0, 0]",[],match,1.0,,1.1802045713255203,-0.7310475846135024,-1.3542732286993697,4th,1st,1st,1.2136134628715478,-1.1737199921102874,-1.0394951333536442
perc,resp,1409,1,3.2.3left.bmp,3.3.3right.bmp,,ACC030,"[2, 0, 2]","[2, 2, 2]",[],non-match,0.7113248654051871,4,-0.02173067384785643,-0.6379419246051389,-1.1442141275352258,2nd,2nd,1st,-0.30667519516102976,-0.3302598465533287,-1.0394951333536442
perc,resp,1330,1,2.3.2left.bmp,2.3.2right.bmp,,ACC030,"[0, 2, 0]","[0, 2, 0]",[],match,1.0,,-1.540184086167136,2.602752112464425,-1.1785340028361642,1st,4th,1st,-1.2720988656471657,1.265710930763565,-1.0394951333536442
perc,resp,1403,1,3.3.1left.bmp,2.2.2right.bmp,,ACC030,"[2, 2, -2]","[0, 0, 0]",[],non-match,0.5,3,-0.11137146964404693,0.24227504174951053,-1.4138355307182386,2nd,3rd,1st,-0.30667519516102976,0.2555294960193204,-1.0394951333536442
perc,resp,1324,0,2.1.1left.bmp,2.1.1right.bmp,,ACC030,"[0, -2, -2]","[0, -2, -2]",[],match,1.0,,-1.2682201818276821,-1.7078006101406804,-1.4185877765090689,1st,1st,1st,-1.2720988656471657,-1.1737199921102874,-1.0394951333536442
perc,resp,911,1,3.1.3left.bmp,1.3.3right.bmp,,ACC030,"[2, -2, 2]","[-2, 2, 2]",[],non-match,0.18350341907227385,1,1.295583814092376,-0.006808662749836028,-1.3702417869676569,4th,3rd,1st,1.2136134628715478,0.2555294960193204,-1.0394951333536442
perc,resp,1431,1,3.3.2left.bmp,2.1.3right.bmp,,ACC030,"[2, 2, 0]","[0, -2, 2]",[],non-match,0.29289321881345254,1,2.3054978071813457,0.41663985763273814,-1.4655867754560727,4th,3rd,1st,1.2136134628715478,0.2555294960193204,-1.0394951333536442
perc,resp,1425,0,1.3.2left.bmp,1.3.2right.bmp,,ACC030,"[-2, 2, 0]","[-2, 2, 0]",[],match,1.0,,-0.282320384673641,-0.5276677490591036,-1.343253252960314,2nd,2nd,1st,-0.30667519516102976,-0.3302598465533287,-1.0394951333536442
perc,resp,1319,1,1.3.3left.bmp,1.3.3right.bmp,,ACC030,"[-2, 2, 2]","[-2, 2, 2]",[],match,1.0,,-0.006148582153531635,0.00854782489076839,-1.4682117461726953,2nd,3rd,1st,-0.30667519516102976,0.2555294960193204,-1.0394951333536442
perc,resp,1046,1,3.2.2left.bmp,3.2.2right.bmp,,ACC030,"[2, 0, 0]","[2, 0, 0]",[],match,1.0,,-1.4322055094292647,0.5841050752039234,-1.0705724773924659,1st,3rd,1st,-1.2720988656471657,0.2555294960193204,-1.0394951333536442
perc,resp,1035,1,2.3.1left.bmp,3.3.1right.bmp,,ACC030,"[0, 2, -2]","[2, 2, -2]",[],non-match,0.7113248654051871,4,0.01331310201977166,-0.1086628901688923,-1.0911553157330312,2nd,2nd,1st,-0.30667519516102976,-0.3302598465533287,-1.0394951333536442
perc,resp,881,1,3.1.3left.bmp,1.3.2right.bmp,,ACC030,"[2, -2, 2]","[-2, 2, 0]",[],non-match,0.1339745962155613,1,1.3335496751192883,-0.9615325160832319,-0.839913291743148,4th,1st,1st,1.2136134628715478,-1.1737199921102874,-1.0394951333536442
perc,resp,758,1,3.2.1left.bmp,2.3.3right.bmp,,ACC030,"[2, 0, -2]","[0, 2, 2]",[],non-match,0.29289321881345254,1,0.6809043150437315,1.4290649635669141,-1.0735228421578034,3rd,4th,1st,0.38386793419616494,1.265710930763565,-1.0394951333536442
perc,resp,905,1,1.3.1left.bmp,1.3.1right.bmp,,ACC030,"[-2, 2, -2]","[-2, 2, -2]",[],match,1.0,,-0.5896711255848613,-0.8529007336327952,-1.0708687435441866,2nd,1st,1st,-0.30667519516102976,-1.1737199921102874,-1.0394951333536442
perc,resp,812,1,2.1.2left.bmp,3.1.2right.bmp,,ACC030,"[0, -2, 0]","[2, -2, 0]",[],non-match,0.7113248654051871,4,-1.2993009968968328,-1.314738245927484,-1.3654471868160358,1st,1st,1st,-1.2720988656471657,-1.1737199921102874,-1.0394951333536442
perc,resp,1040,1,2.2.3left.bmp,2.2.3right.bmp,,ACC030,"[0, 0, 2]","[0, 0, 2]",[],match,1.0,,-0.34032674834798016,0.2585357347938749,-1.2894672268275051,2nd,3rd,1st,-0.30667519516102976,0.2555294960193204,-1.0394951333536442
perc,resp,1079,1,1.2.1left.bmp,1.2.1right.bmp,,ACC030,"[-2, 0, -2]","[-2, 0, -2]",[],match,1.0,,-0.9486408614121655,-0.2965812420110965,-1.36929934633455,1st,2nd,1st,-1.2720988656471657,-0.3302598465533287,-1.0394951333536442
perc,resp,1300,1,3.1.1left.bmp,3.1.1right.bmp,,ACC030,"[2, -2, -2]","[2, -2, -2]",[],match,1.0,,0.5318451696241757,1.6335267107948834,-1.4056711928471672,3rd,4th,1st,0.38386793419616494,1.265710930763565,-1.0394951333536442
perc,resp,1261,1,2.2.1left.bmp,1.1.2right.bmp,,ACC030,"[0, 0, -2]","[-2, -2, 0]",[],non-match,0.5,3,-0.18435791460659173,0.5730965301489502,-1.3849077067134732,2nd,3rd,1st,-0.30667519516102976,0.2555294960193204,-1.0394951333536442
perc,resp,1522,1,2.1.1left.bmp,1.1.1right.bmp,,ACC030,"[0, -2, -2]","[-2, -2, -2]",[],non-match,0.7113248654051871,4,0.4609182075718302,1.43851534682455,-1.3142267901829703,3rd,4th,1st,0.38386793419616494,1.265710930763565,-1.0394951333536442
perc,resp,1356,1,2.3.3left.bmp,2.3.3right.bmp,,ACC030,"[0, 2, 2]","[0, 2, 2]",[],match,1.0,,-0.44460215352690535,-1.64775092028666,-1.2104571172864598,2nd,1st,1st,-0.30667519516102976,-1.1737199921102874,-1.0394951333536442
perc,resp,1234,1,1.1.3left.bmp,1.3.1right.bmp,,ACC030,"[-2, -2, 2]","[-2, 2, -2]",[],non-match,0.18350341907227385,1,0.13699868026977463,0.16306714405540332,-1.2180969365016527,3rd,3rd,1st,0.38386793419616494,0.2555294960193204,-1.0394951333536442
perc,resp,1073,1,1.1.2left.bmp,1.1.2right.bmp,,ACC030,"[-2, -2, 0]","[-2, -2, 0]",[],match,1.0,,-0.8964150151435007,-0.8459268845103175,-1.1114770881168754,1st,1st,1st,-1.2720988656471657,-1.1737199921102874,-1.0394951333536442
perc,resp,1384,1,3.1.2left.bmp,3.1.2right.bmp,,ACC030,"[2, -2, 0]","[2, -2, 0]",[],match,1.0,,0.7480085884216308,-0.02277124733065324,-0.9935144950237467,4th,2nd,1st,1.2136134628715478,-0.3302598465533287,-1.0394951333536442
perc,resp,1185,1,1.2.2left.bmp,2.3.1right.bmp,,ACC030,"[-2, 0, 0]","[0, 2, -2]",[],non-match,0.5,3,-1.019985089116886,0.3035998477708765,-1.026591203804338,1st,3rd,1st,-1.2720988656471657,0.2555294960193204,-1.0394951333536442
perc,resp,1273,1,3.2.3left.bmp,3.2.3right.bmp,,ACC030,"[2, 0, 2]","[2, 0, 2]",[],match,1.0,,-1.4400834273941712,-1.1404734358719335,-0.8491954364672328,1st,1st,1st,-1.2720988656471657,-1.1737199921102874,-1.0394951333536442
perc,resp,1125,1,3.3.3left.bmp,1.3.3right.bmp,,ACC030,"[2, 2, 2]","[-2, 2, 2]",[],non-match,0.42264973081037416,2,-0.7943153813783307,-0.17505389898364682,-0.6452826413262299,1st,2nd,1st,-1.2720988656471657,-0.3302598465533287,-1.0394951333536442
perc,resp,1548,0,1.2.3left.bmp,1.2.1right.bmp,,ACC030,"[-2, 0, 2]","[-2, 0, -2]",[],non-match,0.42264973081037416,2,-1.2641498749654916,0.37131464437691186,-0.7894816738652817,1st,3rd,1st,-1.2720988656471657,0.2555294960193204,-1.0394951333536442
perc,resp,1127,1,1.1.1left.bmp,3.1.2right.bmp,,ACC030,"[-2, -2, -2]","[2, -2, 0]",[],non-match,0.3545027756320971,2,0.028521828615817757,-0.8496122633689109,-0.6356248215196159,2nd,1st,2nd,-0.30667519516102976,-1.1737199921102874,-0.40225477327529285
perc,resp,1276,1,1.3.2left.bmp,1.3.2right.bmp,,ACC030,"[-2, 2, 0]","[-2, 2, 0]",[],match,1.0,,-0.6555611159594343,-1.5971030257952648,-0.6425155965224066,2nd,1st,1st,-0.30667519516102976,-1.1737199921102874,-1.0394951333536442
perc,resp,1157,1,3.3.1left.bmp,3.3.1right.bmp,,ACC030,"[2, 2, -2]","[2, 2, -2]",[],match,1.0,,1.1110254758711569,0.14372743702521626,-0.6218612753838103,4th,3rd,2nd,1.2136134628715478,0.2555294960193204,-0.40225477327529285
perc,resp,1156,1,3.3.2left.bmp,3.3.2right.bmp,,ACC030,"[2, 2, 0]","[2, 2, 0]",[],match,1.0,,0.11714484174146897,-0.9884130175309125,-0.6683386707638034,3rd,1st,1st,0.38386793419616494,-1.1737199921102874,-1.0394951333536442
perc,resp,1327,1,2.3.2left.bmp,1.1.2right.bmp,,ACC030,"[0, 2, 0]","[-2, -2, 0]",[],non-match,0.3545027756320971,2,-0.04563160536585928,-0.8009767433456353,-0.7869173398704605,2nd,1st,1st,-0.30667519516102976,-1.1737199921102874,-1.0394951333536442
perc,resp,1508,1,2.1.3left.bmp,3.2.1right.bmp,,ACC030,"[0, -2, 2]","[2, 0, -2]",[],non-match,0.29289321881345254,1,-0.8568417594989507,-1.0110525819587444,-0.6214678616830255,1st,1st,2nd,-1.2720988656471657,-1.1737199921102874,-0.40225477327529285
perc,resp,1268,1,2.2.2left.bmp,2.2.2right.bmp,,ACC030,"[0, 0, 0]","[0, 0, 0]",[],match,1.0,,-3.286913316454986,-1.6464861111499467,-0.30190830693831466,1st,1st,2nd,-1.2720988656471657,-1.1737199921102874,-0.40225477327529285
perc,resp,1070,1,3.3.3left.bmp,3.2.2right.bmp,,ACC030,"[2, 2, 2]","[2, 0, 0]",[],non-match,0.5917517095361369,3,-0.314019322647186,0.6398631134283967,-0.30740035751615563,2nd,4th,2nd,-0.30667519516102976,1.265710930763565,-0.40225477327529285
perc,resp,1098,1,2.3.3left.bmp,2.3.3right.bmp,,ACC030,"[0, 2, 2]","[0, 2, 2]",[],match,1.0,,0.652593363389596,0.8128149869613086,-0.3452144465119344,3rd,4th,2nd,0.38386793419616494,1.265710930763565,-0.40225477327529285
perc,resp,1277,1,1.3.1left.bmp,1.3.1right.bmp,,ACC030,"[-2, 2, -2]","[-2, 2, -2]",[],match,1.0,,0.5623777528213121,1.6010360029841693,-0.2438656147049796,3rd,4th,2nd,0.38386793419616494,1.265710930763565,-0.40225477327529285
perc,resp,1086,1,2.1.1left.bmp,1.1.3right.bmp,,ACC030,"[0, -2, -2]","[-2, -2, 2]",[],non-match,0.3545027756320971,2,-0.6098060831896875,-0.2591030031046543,-0.3945551888988651,2nd,2nd,2nd,-0.30667519516102976,-0.3302598465533287,-0.40225477327529285
perc,resp,1105,1,1.2.2left.bmp,2.2.1right.bmp,,ACC030,"[-2, 0, 0]","[0, 0, -2]",[],non-match,0.5917517095361369,3,1.3113416916794338,-0.6928367845989619,-0.13728166211871226,4th,1st,3rd,1.2136134628715478,-1.1737199921102874,0.0755593790348966
perc,resp,1076,1,1.3.2left.bmp,2.1.2right.bmp,,ACC030,"[-2, 2, 0]","[0, -2, 0]",[],non-match,0.3545027756320971,2,-0.36468991603077816,-0.9466632972928863,-0.1281297354541242,2nd,1st,3rd,-0.30667519516102976,-1.1737199921102874,0.0755593790348966
perc,resp,983,1,1.3.3left.bmp,1.3.3right.bmp,,ACC030,"[-2, 2, 2]","[-2, 2, 2]",[],match,1.0,,0.7621513273863879,0.33561953014272505,-0.06551388563131995,4th,3rd,3rd,1.2136134628715478,0.2555294960193204,0.0755593790348966
perc,resp,1204,0,3.1.1left.bmp,3.1.1right.bmp,,ACC030,"[2, -2, -2]","[2, -2, -2]",[],match,1.0,,0.5137850704980771,-0.36590333254749097,0.040287142192224346,3rd,2nd,3rd,0.38386793419616494,-0.3302598465533287,0.0755593790348966
perc,resp,1415,0,2.2.1left.bmp,2.2.2right.bmp,,ACC030,"[0, 0, -2]","[0, 0, 0]",[],non-match,0.7113248654051871,4,0.3627441859189359,-0.3192107589679633,0.16330209387456732,3rd,2nd,3rd,0.38386793419616494,-0.3302598465533287,0.0755593790348966
perc,resp,1518,1,2.1.3left.bmp,3.1.2right.bmp,,ACC030,"[0, -2, 2]","[2, -2, 0]",[],non-match,0.5917517095361369,3,0.7149769809424261,-0.7883227239706339,0.10941647343206845,4th,1st,3rd,1.2136134628715478,-1.1737199921102874,0.0755593790348966
perc,resp,1200,0,2.2.3left.bmp,2.3.2right.bmp,,ACC030,"[0, 0, 2]","[0, 2, 0]",[],non-match,0.5917517095361369,3,1.3283689108877044,0.9740081042738206,0.310619831718541,4th,4th,4th,1.2136134628715478,1.265710930763565,1.3814772207315937
perc,resp,1259,1,3.3.1left.bmp,3.3.1right.bmp,,ACC030,"[2, 2, -2]","[2, 2, -2]",[],match,1.0,,-0.7453509796089907,-0.7896259479380054,-0.04811650488151461,1st,1st,3rd,-1.2720988656471657,-1.1737199921102874,0.0755593790348966
perc,resp,1058,1,2.3.1left.bmp,2.3.1right.bmp,,ACC030,"[0, 2, -2]","[0, 2, -2]",[],match,1.0,,0.6828263818794321,0.23361760490047556,-0.014324538200146675,4th,3rd,3rd,1.2136134628715478,0.2555294960193204,0.0755593790348966
perc,resp,1077,1,3.1.3left.bmp,3.1.3right.bmp,,ACC030,"[2, -2, 2]","[2, -2, 2]",[],match,1.0,,0.3315043683900776,-0.29630493655954426,-0.12530171785909203,3rd,2nd,3rd,0.38386793419616494,-0.3302598465533287,0.0755593790348966
perc,resp,1591,1,2.3.2left.bmp,2.3.3right.bmp,,ACC030,"[0, 2, 0]","[0, 2, 2]",[],non-match,0.7113248654051871,4,1.3027032331032051,-1.5630564336139656,0.06736839358102101,4th,1st,3rd,1.2136134628715478,-1.1737199921102874,0.0755593790348966
perc,resp,1070,1,1.1.3left.bmp,1.2.1right.bmp,,ACC030,"[-2, -2, 2]","[-2, 0, -2]",[],non-match,0.3545027756320971,2,1.3493325798486175,-0.2924050107042663,0.16516506397922218,4th,2nd,3rd,1.2136134628715478,-0.3302598465533287,0.0755593790348966
perc,resp,1695,1,3.2.3left.bmp,3.2.3right.bmp,,ACC030,"[2, 0, 2]","[2, 0, 2]",[],match,1.0,,-0.840826581218734,-0.7719934904284996,0.12623482781921205,1st,1st,3rd,-1.2720988656471657,-1.1737199921102874,0.0755593790348966
perc,resp,1244,1,1.2.3left.bmp,2.2.3right.bmp,,ACC030,"[-2, 0, 2]","[0, 0, 2]",[],non-match,0.7113248654051871,4,1.1856559632914057,-0.5007532536679897,0.30788399053210874,4th,2nd,4th,1.2136134628715478,-0.3302598465533287,1.3814772207315937
perc,resp,1083,1,2.2.2left.bmp,3.3.1right.bmp,,ACC030,"[0, 0, 0]","[2, 2, -2]",[],non-match,0.5,3,0.412412291106984,0.027461318202596105,0.09186539803316533,3rd,3rd,3rd,0.38386793419616494,0.2555294960193204,0.0755593790348966
perc,resp,1102,1,1.2.1left.bmp,2.2.1right.bmp,,ACC030,"[-2, 0, -2]","[0, 0, -2]",[],non-match,0.7113248654051871,4,-0.7361473199388486,0.2078578318558622,0.24222565430951792,2nd,3rd,3rd,-0.30667519516102976,0.2555294960193204,0.0755593790348966
perc,resp,1073,1,3.3.2left.bmp,2.1.1right.bmp,,ACC030,"[2, 2, 0]","[0, -2, -2]",[],non-match,0.29289321881345254,1,0.5411125410403552,1.4947767633443976,0.4308753858389915,3rd,4th,4th,0.38386793419616494,1.265710930763565,1.3814772207315937
perc,resp,1040,1,3.2.1left.bmp,3.2.1right.bmp,,ACC030,"[2, 0, -2]","[2, 0, -2]",[],match,1.0,,-1.581325526677086,-1.31343853857495,0.37270648222907904,1st,1st,4th,-1.2720988656471657,-1.1737199921102874,1.3814772207315937
perc,resp,1207,0,3.2.2left.bmp,3.2.2right.bmp,,ACC030,"[2, 0, 0]","[2, 0, 0]",[],match,1.0,,0.4585578648205719,0.9447929389810148,0.585812110274372,3rd,4th,4th,0.38386793419616494,1.265710930763565,1.3814772207315937
perc,resp,976,1,3.1.2left.bmp,3.1.3right.bmp,,ACC030,"[2, -2, 0]","[2, -2, 2]",[],non-match,0.7113248654051871,4,-0.14467796052156562,-0.45168103706498136,0.5938986227261982,2nd,2nd,4th,-0.30667519516102976,-0.3302598465533287,1.3814772207315937
perc,resp,942,0,1.1.2left.bmp,1.1.2right.bmp,,ACC030,"[-2, -2, 0]","[-2, -2, 0]",[],match,1.0,,1.0597642938487524,-0.2921508766719778,0.6340170834458293,4th,2nd,4th,1.2136134628715478,-0.3302598465533287,1.3814772207315937
perc,resp,1112,1,2.1.2left.bmp,2.1.2right.bmp,,ACC030,"[0, -2, 0]","[0, -2, 0]",[],match,1.0,,0.4422754037416258,1.269576433195278,0.5671454054671338,3rd,4th,4th,0.38386793419616494,1.265710930763565,1.3814772207315937
perc,resp,1051,1,1.1.1left.bmp,3.2.1right.bmp,,ACC030,"[-2, -2, -2]","[2, 0, -2]",[],non-match,0.3545027756320971,2,1.133020922524155,0.8286090084708931,0.37896927884101295,4th,4th,4th,1.2136134628715478,1.265710930763565,1.3814772207315937
perc,resp,1028,1,1.2.3left.bmp,1.2.3right.bmp,,ACC030,"[-2, 0, 2]","[-2, 0, 2]",[],match,1.0,,0.5501212757082845,-0.7776565464888119,0.14324447655712147,3rd,1st,3rd,0.38386793419616494,-1.1737199921102874,0.0755593790348966
perc,resp,975,1,1.1.3left.bmp,1.1.3right.bmp,,ACC030,"[-2, -2, 2]","[-2, -2, 2]",[],match,1.0,,-0.7644299271523693,0.09383008861494742,0.2830562746546181,1st,3rd,3rd,-1.2720988656471657,0.2555294960193204,0.0755593790348966
perc,resp,1176,1,2.1.2left.bmp,2.1.2right.bmp,,ACC030,"[0, -2, 0]","[0, -2, 0]",[],match,1.0,,1.663681390483065,-0.49788282517941185,0.2599825530355064,4th,2nd,3rd,1.2136134628715478,-0.3302598465533287,0.0755593790348966
perc,resp,963,1,1.1.2left.bmp,3.2.2right.bmp,,ACC030,"[-2, -2, 0]","[2, 0, 0]",[],non-match,0.3545027756320971,2,2.71159737329281,-0.6358371468957057,0.27209088799282444,4th,2nd,3rd,1.2136134628715478,-0.3302598465533287,0.0755593790348966
perc,resp,982,1,1.3.3left.bmp,1.3.3right.bmp,,ACC030,"[-2, 2, 2]","[-2, 2, 2]",[],match,1.0,,-0.17496444402465477,-0.5925419581653288,0.08490454570963196,2nd,2nd,3rd,-0.30667519516102976,-0.3302598465533287,0.0755593790348966
perc,resp,1207,0,1.2.1left.bmp,1.3.2right.bmp,,ACC030,"[-2, 0, -2]","[-2, 2, 0]",[],non-match,0.5917517095361369,3,-0.5391807041377388,0.8669305985986142,0.03914226021709134,2nd,4th,3rd,-0.30667519516102976,1.265710930763565,0.0755593790348966
perc,resp,1106,1,2.1.3left.bmp,2.1.3right.bmp,,ACC030,"[0, -2, 2]","[0, -2, 2]",[],match,1.0,,0.8893228296505161,0.12510612416906638,0.1537897527875926,4th,3rd,3rd,1.2136134628715478,0.2555294960193204,0.0755593790348966
perc,resp,1177,1,2.1.1left.bmp,1.1.1right.bmp,,ACC030,"[0, -2, -2]","[-2, -2, -2]",[],non-match,0.7113248654051871,4,0.2588165520114185,0.08342573148070272,-0.3011656700021013,3rd,3rd,2nd,0.38386793419616494,0.2555294960193204,-0.40225477327529285
perc,resp,1438,1,2.3.2left.bmp,2.3.2right.bmp,,ACC030,"[0, 2, 0]","[0, 2, 0]",[],match,1.0,,-4.865361050868065,-5.359812830777434,-0.24563831934175798,1st,1st,2nd,-1.2720988656471657,-1.1737199921102874,-0.40225477327529285
perc,resp,1067,1,2.2.3left.bmp,3.1.1right.bmp,,ACC030,"[0, 0, 2]","[2, -2, -2]",[],non-match,0.29289321881345254,1,0.8203203924005417,0.40422319301351284,-0.23924562610287048,4th,3rd,2nd,1.2136134628715478,0.2555294960193204,-0.40225477327529285
perc,resp,904,1,3.3.3left.bmp,3.3.3right.bmp,,ACC030,"[2, 2, 2]","[2, 2, 2]",[],match,1.0,,1.0256339584540541,0.047177202545733404,-0.2775938659532959,4th,3rd,2nd,1.2136134628715478,0.2555294960193204,-0.40225477327529285
perc,resp,890,1,3.1.3left.bmp,1.1.3right.bmp,,ACC030,"[2, -2, 2]","[-2, -2, 2]",[],non-match,0.42264973081037416,2,1.3017751030112055,-1.349262813048399,-0.3422935926448713,4th,1st,2nd,1.2136134628715478,-1.1737199921102874,-0.40225477327529285
perc,resp,1019,1,3.2.3left.bmp,3.2.3right.bmp,,ACC030,"[2, 0, 2]","[2, 0, 2]",[],match,1.0,,0.5830775615338447,0.22125003892270215,-0.6334048857787292,3rd,3rd,2nd,0.38386793419616494,0.2555294960193204,-0.40225477327529285
perc,resp,927,1,3.2.2left.bmp,3.2.2right.bmp,,ACC030,"[2, 0, 0]","[2, 0, 0]",[],match,1.0,,0.6666777705176109,0.602885740949587,-0.31808873153496864,3rd,3rd,2nd,0.38386793419616494,0.2555294960193204,-0.40225477327529285
perc,resp,895,1,3.3.1left.bmp,3.3.1right.bmp,,ACC030,"[2, 2, -2]","[2, 2, -2]",[],match,1.0,,-0.37338518878194715,-0.2705942956479521,-0.43903398857839465,2nd,2nd,2nd,-0.30667519516102976,-0.3302598465533287,-0.40225477327529285
perc,resp,1265,1,2.3.1left.bmp,3.2.1right.bmp,,ACC030,"[0, 2, -2]","[2, 0, -2]",[],non-match,0.5917517095361369,3,0.05181200954504356,0.4824166310557982,-0.6675954528559125,3rd,3rd,1st,0.38386793419616494,0.2555294960193204,-1.0394951333536442
perc,resp,1184,1,2.2.2left.bmp,2.2.2right.bmp,,ACC030,"[0, 0, 0]","[0, 0, 0]",[],match,1.0,,1.3391768528573933,0.009751846828140046,-0.5012592171622005,4th,3rd,2nd,1.2136134628715478,0.2555294960193204,-0.40225477327529285
