mode,type,rt,acc,item_1,item_2,item_cue,subj_idx,item_1_number,item_2_number,item_cue_number,trial_type,similarity,similarity_bin,ams,pams,slps,ams_quantile,pams_quantile,slps_quantile,ams_bin,pam_bin,slp_bin
perc,resp,1396,1,1.3.3left.bmp,1.3.3right.bmp,,ACC020,"[-2, 2, 2]","[-2, 2, 2]",[],match,1.0,,0.2607592033790585,1.9932298642232342,1.5845928055552123,3rd,4th,4th,0.31150369568263414,1.3011067738253426,1.215863286247705
perc,resp,1309,0,3.2.2left.bmp,3.2.2right.bmp,,ACC020,"[2, 0, 0]","[2, 0, 0]",[],match,1.0,,0.47993458473815426,-0.18133005099984384,0.9825819605984781,3rd,2nd,4th,0.31150369568263414,-0.3882757721312387,1.215863286247705
perc,resp,1725,1,2.3.1left.bmp,3.3.1right.bmp,,ACC020,"[0, 2, -2]","[2, 2, -2]",[],non-match,0.7113248654051871,4,-0.5935579315142687,0.9473254805694193,0.7941552805773862,2nd,4th,3rd,-0.32827222213067775,1.3011067738253426,0.5168278400459945
perc,resp,1218,1,3.1.3left.bmp,1.3.2right.bmp,,ACC020,"[2, -2, 2]","[-2, 2, 0]",[],non-match,0.1339745962155613,1,0.7421989483760597,1.069402742667911,0.6185246475031178,4th,4th,3rd,1.2514167760449184,1.3011067738253426,0.5168278400459945
perc,resp,1261,1,3.2.1left.bmp,2.3.3right.bmp,,ACC020,"[2, 0, -2]","[0, 2, 2]",[],non-match,0.29289321881345254,1,-0.001840147617772101,0.008968217268811213,0.7455945547008447,2nd,3rd,3rd,-0.32827222213067775,0.306075103404768,0.5168278400459945
perc,resp,1346,0,1.3.1left.bmp,1.3.1right.bmp,,ACC020,"[-2, 2, -2]","[-2, 2, -2]",[],match,1.0,,-0.5838264336198135,-0.7482574274833608,0.6520240856692121,2nd,1st,3rd,-0.32827222213067775,-1.2201707307715886,0.5168278400459945
perc,resp,2165,0,2.1.2left.bmp,3.1.2right.bmp,,ACC020,"[0, -2, 0]","[2, -2, 0]",[],non-match,0.7113248654051871,4,-1.3878084585610724,0.4696474692268979,0.35035536608334134,1st,3rd,3rd,-1.234906226926845,0.306075103404768,0.5168278400459945
perc,resp,1350,1,2.2.3left.bmp,2.2.3right.bmp,,ACC020,"[0, 0, 2]","[0, 0, 2]",[],match,1.0,,0.8754278022578497,0.2625879178680692,0.19208664509289058,4th,3rd,3rd,1.2514167760449184,0.306075103404768,0.5168278400459945
perc,resp,1255,1,1.2.1left.bmp,1.2.1right.bmp,,ACC020,"[-2, 0, -2]","[-2, 0, -2]",[],match,1.0,,0.0872856801349186,1.0764803034143533,0.15132254559703814,3rd,4th,2nd,0.31150369568263414,1.3011067738253426,-0.394388281659207
perc,resp,1540,1,3.1.1left.bmp,3.1.1right.bmp,,ACC020,"[2, -2, -2]","[2, -2, -2]",[],match,1.0,,-1.6865233173341763,-1.0627597518526501,0.42605828428195375,1st,1st,3rd,-1.234906226926845,-1.2201707307715886,0.5168278400459945
perc,resp,1222,1,2.2.1left.bmp,1.1.2right.bmp,,ACC020,"[0, 0, -2]","[-2, -2, 0]",[],non-match,0.5,3,0.7746892189243554,0.6053312711206847,0.23956300941203668,4th,3rd,3rd,1.2514167760449184,0.306075103404768,0.5168278400459945
perc,resp,1467,1,2.1.1left.bmp,1.1.1right.bmp,,ACC020,"[0, -2, -2]","[-2, -2, -2]",[],non-match,0.7113248654051871,4,0.034268881999887056,0.7242187189548926,0.5823833474123719,3rd,4th,3rd,0.31150369568263414,1.3011067738253426,0.5168278400459945
perc,resp,1410,0,1.1.3left.bmp,1.3.1right.bmp,,ACC020,"[-2, -2, 2]","[-2, 2, -2]",[],non-match,0.18350341907227385,1,-0.9293682389141681,0.3858944074809088,0.5433381814803347,1st,3rd,3rd,-1.234906226926845,0.306075103404768,0.5168278400459945
perc,resp,1137,1,1.1.2left.bmp,1.1.2right.bmp,,ACC020,"[-2, -2, 0]","[-2, -2, 0]",[],match,1.0,,-1.2328810296049109,-0.297421087191076,0.710560917100117,1st,2nd,3rd,-1.234906226926845,-0.3882757721312387,0.5168278400459945
perc,resp,2164,1,3.1.2left.bmp,3.1.2right.bmp,,ACC020,"[2, -2, 0]","[2, -2, 0]",[],match,1.0,,-0.21333460666409523,0.3139602126081334,0.7351579826847616,2nd,3rd,3rd,-0.32827222213067775,0.306075103404768,0.5168278400459945
perc,resp,1248,1,1.2.2left.bmp,2.3.1right.bmp,,ACC020,"[-2, 0, 0]","[0, 2, -2]",[],non-match,0.5,3,-0.6826301059859465,0.8661198963270259,0.7863201885853306,1st,4th,3rd,-1.234906226926845,1.3011067738253426,0.5168278400459945
perc,resp,1573,0,3.2.3left.bmp,3.2.3right.bmp,,ACC020,"[2, 0, 2]","[2, 0, 2]",[],match,1.0,,-0.059503348985084414,1.536655460003942,0.6951551501482406,2nd,4th,3rd,-0.32827222213067775,1.3011067738253426,0.5168278400459945
perc,resp,1436,1,3.3.3left.bmp,1.3.3right.bmp,,ACC020,"[2, 2, 2]","[-2, 2, 2]",[],non-match,0.42264973081037416,2,1.0005657856582708,0.004973115759564385,0.592578201538397,4th,3rd,3rd,1.2514167760449184,0.306075103404768,0.5168278400459945
perc,resp,2387,1,1.2.3left.bmp,1.2.1right.bmp,,ACC020,"[-2, 0, 2]","[-2, 0, -2]",[],non-match,0.42264973081037416,2,-2.8374984275761017,-1.8879311155918328,0.6774870847634259,1st,1st,3rd,-1.234906226926845,-1.2201707307715886,0.5168278400459945
perc,resp,887,1,1.1.1left.bmp,3.1.2right.bmp,,ACC020,"[-2, -2, -2]","[2, -2, 0]",[],non-match,0.3545027756320971,2,1.191004613363033,-0.10561103098410583,0.6945727738049035,4th,2nd,3rd,1.2514167760449184,-0.3882757721312387,0.5168278400459945
perc,resp,1190,0,3.3.1left.bmp,3.3.1right.bmp,,ACC020,"[2, 2, -2]","[2, 2, -2]",[],match,1.0,,1.586435393777333,2.11596480663153,0.9038430074195064,4th,4th,4th,1.2514167760449184,1.3011067738253426,1.215863286247705
perc,resp,1481,1,2.3.2left.bmp,1.1.2right.bmp,,ACC020,"[0, 2, 0]","[-2, -2, 0]",[],non-match,0.3545027756320971,2,-1.7023074134744287,-1.39158927555588,1.0924333093745608,1st,1st,4th,-1.234906226926845,-1.2201707307715886,1.215863286247705
perc,resp,937,1,2.1.3left.bmp,3.2.1right.bmp,,ACC020,"[0, -2, 2]","[2, 0, -2]",[],non-match,0.29289321881345254,1,1.8080418030818697,0.7973723772653061,1.2514559512968844,4th,4th,4th,1.2514167760449184,1.3011067738253426,1.215863286247705
perc,resp,2238,1,2.2.2left.bmp,2.2.2right.bmp,,ACC020,"[0, 0, 0]","[0, 0, 0]",[],match,1.0,,-0.5403215032103621,-0.08403825001163122,1.3132148973680313,2nd,3rd,4th,-0.32827222213067775,0.306075103404768,1.215863286247705
perc,resp,1887,0,3.3.3left.bmp,3.2.2right.bmp,,ACC020,"[2, 2, 2]","[2, 0, 0]",[],non-match,0.5917517095361369,3,-0.14704462306386337,0.22433470633858327,1.3007919149561966,2nd,3rd,4th,-0.32827222213067775,0.306075103404768,1.215863286247705
perc,resp,1538,1,2.3.3left.bmp,2.3.3right.bmp,,ACC020,"[0, 2, 2]","[0, 2, 2]",[],match,1.0,,-0.9840490974854301,-1.1432523654554523,1.4526386203652046,1st,1st,4th,-1.234906226926845,-1.2201707307715886,1.215863286247705
perc,resp,1895,1,1.3.1left.bmp,1.3.1right.bmp,,ACC020,"[-2, 2, -2]","[-2, 2, -2]",[],match,1.0,,-1.4055968202616944,-1.0307321916037733,1.4423062770077812,1st,1st,4th,-1.234906226926845,-1.2201707307715886,1.215863286247705
perc,resp,1115,1,2.1.1left.bmp,1.1.3right.bmp,,ACC020,"[0, -2, -2]","[-2, -2, 2]",[],non-match,0.3545027756320971,2,1.4422516079990824,0.4730555305323314,1.4428255679509054,4th,3rd,4th,1.2514167760449184,0.306075103404768,1.215863286247705
perc,resp,1256,1,1.2.2left.bmp,2.2.1right.bmp,,ACC020,"[-2, 0, 0]","[0, 0, -2]",[],non-match,0.5917517095361369,3,-0.19051437147439124,-0.5996330605876141,1.424660692129069,2nd,2nd,4th,-0.32827222213067775,-0.3882757721312387,1.215863286247705
perc,resp,915,1,1.3.2left.bmp,2.1.2right.bmp,,ACC020,"[-2, 2, 0]","[0, -2, 0]",[],non-match,0.3545027756320971,2,-0.6689786470937342,0.33902230595294763,1.3929723919075778,1st,3rd,4th,-1.234906226926845,0.306075103404768,1.215863286247705
perc,resp,1173,1,1.3.3left.bmp,1.3.3right.bmp,,ACC020,"[-2, 2, 2]","[-2, 2, 2]",[],match,1.0,,1.6868554138527485,1.0867338791942196,1.4001681889904416,4th,4th,4th,1.2514167760449184,1.3011067738253426,1.215863286247705
perc,resp,932,1,3.1.1left.bmp,3.1.1right.bmp,,ACC020,"[2, -2, -2]","[2, -2, -2]",[],match,1.0,,-1.1228264493482898,-0.29069971597766703,1.298799937484577,1st,2nd,4th,-1.234906226926845,-0.3882757721312387,1.215863286247705
perc,resp,2119,1,2.2.1left.bmp,2.2.2right.bmp,,ACC020,"[0, 0, -2]","[0, 0, 0]",[],non-match,0.7113248654051871,4,-1.9126271336915426,-0.7360884985334171,1.3496709585426547,1st,1st,4th,-1.234906226926845,-1.2201707307715886,1.215863286247705
perc,resp,1431,1,2.1.3left.bmp,3.1.2right.bmp,,ACC020,"[0, -2, 2]","[2, -2, 0]",[],non-match,0.5917517095361369,3,0.08583024710103287,2.0843319878282567,1.4288400613416072,3rd,4th,4th,0.31150369568263414,1.3011067738253426,1.215863286247705
perc,resp,1040,1,2.2.3left.bmp,2.3.2right.bmp,,ACC020,"[0, 0, 2]","[0, 2, 0]",[],non-match,0.5917517095361369,3,0.3585467778819095,-0.6531960704059845,1.5456937242039614,3rd,2nd,4th,0.31150369568263414,-0.3882757721312387,1.215863286247705
perc,resp,939,1,3.3.1left.bmp,3.3.1right.bmp,,ACC020,"[2, 2, -2]","[2, 2, -2]",[],match,1.0,,-0.4369525481359919,-0.6264402584690597,1.3903718263419953,2nd,2nd,4th,-0.32827222213067775,-0.3882757721312387,1.215863286247705
perc,resp,987,1,2.3.1left.bmp,2.3.1right.bmp,,ACC020,"[0, 2, -2]","[0, 2, -2]",[],match,1.0,,-0.15502533415149525,1.2734104720710568,1.4744875267511128,2nd,4th,4th,-0.32827222213067775,1.3011067738253426,1.215863286247705
perc,resp,1309,1,3.1.3left.bmp,3.1.3right.bmp,,ACC020,"[2, -2, 2]","[2, -2, 2]",[],match,1.0,,-1.5628929841035986,1.2150010677594916,1.3914761431987777,1st,4th,4th,-1.234906226926845,1.3011067738253426,1.215863286247705
perc,resp,1048,0,2.3.2left.bmp,2.3.3right.bmp,,ACC020,"[0, 2, 0]","[0, 2, 2]",[],non-match,0.7113248654051871,4,-1.195739115597035,-0.12924851564694262,1.0184672972055255,1st,2nd,4th,-1.234906226926845,-0.3882757721312387,1.215863286247705
perc,resp,1686,1,1.1.3left.bmp,1.2.1right.bmp,,ACC020,"[-2, -2, 2]","[-2, 0, -2]",[],non-match,0.3545027756320971,2,-0.7089686542614159,-1.116126838746583,1.1445146199106282,1st,1st,4th,-1.234906226926845,-1.2201707307715886,1.215863286247705
perc,resp,1202,1,3.2.3left.bmp,3.2.3right.bmp,,ACC020,"[2, 0, 2]","[2, 0, 2]",[],match,1.0,,-0.714905234618813,-1.0339971419328406,1.070993081977629,1st,1st,4th,-1.234906226926845,-1.2201707307715886,1.215863286247705
perc,resp,1355,0,1.2.3left.bmp,2.2.3right.bmp,,ACC020,"[-2, 0, 2]","[0, 0, 2]",[],non-match,0.7113248654051871,4,0.019735982568612396,1.50553973873254,1.0781343645670385,3rd,4th,4th,0.31150369568263414,1.3011067738253426,1.215863286247705
perc,resp,880,1,2.2.2left.bmp,3.3.1right.bmp,,ACC020,"[0, 0, 0]","[2, 2, -2]",[],non-match,0.5,3,-0.2919386342642653,0.5939468558443363,1.3834682498480932,2nd,3rd,4th,-0.32827222213067775,0.306075103404768,1.215863286247705
perc,resp,1411,1,1.2.1left.bmp,2.2.1right.bmp,,ACC020,"[-2, 0, -2]","[0, 0, -2]",[],non-match,0.7113248654051871,4,-0.550914409725927,-0.2213196491403269,1.2293683694399264,2nd,2nd,4th,-0.32827222213067775,-0.3882757721312387,1.215863286247705
perc,resp,1080,1,3.3.2left.bmp,2.1.1right.bmp,,ACC020,"[2, 2, 0]","[0, -2, -2]",[],non-match,0.29289321881345254,1,1.124615576610272,2.2232137241113468,1.0339197598593983,4th,4th,4th,1.2514167760449184,1.3011067738253426,1.215863286247705
perc,resp,1227,1,3.2.1left.bmp,3.2.1right.bmp,,ACC020,"[2, 0, -2]","[2, 0, -2]",[],match,1.0,,0.5120391599341935,1.1075590606810684,1.278440933370768,3rd,4th,4th,0.31150369568263414,1.3011067738253426,1.215863286247705
perc,resp,923,1,3.2.2left.bmp,3.2.2right.bmp,,ACC020,"[2, 0, 0]","[2, 0, 0]",[],match,1.0,,1.022075606033212,-0.144326641289202,0.9892466298404391,4th,2nd,4th,1.2514167760449184,-0.3882757721312387,1.215863286247705
perc,resp,1087,0,3.1.2left.bmp,3.1.3right.bmp,,ACC020,"[2, -2, 0]","[2, -2, 2]",[],non-match,0.7113248654051871,4,-0.41518809388844097,0.10553737694706986,0.7005931597643245,2nd,3rd,3rd,-0.32827222213067775,0.306075103404768,0.5168278400459945
perc,resp,1017,1,1.1.2left.bmp,1.1.2right.bmp,,ACC020,"[-2, -2, 0]","[-2, -2, 0]",[],match,1.0,,-0.19529545799131862,1.0770064675888837,0.5118062855980358,2nd,4th,3rd,-0.32827222213067775,1.3011067738253426,0.5168278400459945
perc,resp,1002,1,2.1.2left.bmp,2.1.2right.bmp,,ACC020,"[0, -2, 0]","[0, -2, 0]",[],match,1.0,,0.03599336965299827,0.8905268500146496,0.5618288228207722,3rd,4th,3rd,0.31150369568263414,1.3011067738253426,0.5168278400459945
perc,resp,1046,1,1.1.1left.bmp,3.2.1right.bmp,,ACC020,"[-2, -2, -2]","[2, 0, -2]",[],non-match,0.3545027756320971,2,0.5963405600405884,0.2860813823994373,0.7015053566740433,3rd,3rd,3rd,0.31150369568263414,0.306075103404768,0.5168278400459945
perc,resp,1004,1,1.2.3left.bmp,1.2.3right.bmp,,ACC020,"[-2, 0, 2]","[-2, 0, 2]",[],match,1.0,,-0.5614855383002968,-1.2055267375549128,0.6938036102433768,2nd,1st,3rd,-0.32827222213067775,-1.2201707307715886,0.5168278400459945
perc,resp,1017,1,1.1.3left.bmp,1.1.3right.bmp,,ACC020,"[-2, -2, 2]","[-2, -2, 2]",[],match,1.0,,0.3956258341061028,1.4132270688823845,1.0343152851855264,3rd,4th,4th,0.31150369568263414,1.3011067738253426,1.215863286247705
perc,resp,1403,1,2.1.2left.bmp,2.1.2right.bmp,,ACC020,"[0, -2, 0]","[0, -2, 0]",[],match,1.0,,0.49992771372519107,0.8367316195657569,0.9997315408135136,3rd,4th,4th,0.31150369568263414,1.3011067738253426,1.215863286247705
perc,resp,1303,1,1.1.2left.bmp,3.2.2right.bmp,,ACC020,"[-2, -2, 0]","[2, 0, 0]",[],non-match,0.3545027756320971,2,0.718341009171954,-0.5408712777219356,0.9709785791040327,4th,2nd,4th,1.2514167760449184,-0.3882757721312387,1.215863286247705
perc,resp,1342,1,1.3.3left.bmp,1.3.3right.bmp,,ACC020,"[-2, 2, 2]","[-2, 2, 2]",[],match,1.0,,0.47846723436059985,-1.5951676782570163,0.8025538396228399,3rd,1st,3rd,0.31150369568263414,-1.2201707307715886,0.5168278400459945
perc,resp,1233,1,1.2.1left.bmp,1.3.2right.bmp,,ACC020,"[-2, 0, -2]","[-2, 2, 0]",[],non-match,0.5917517095361369,3,-0.25013349018435066,2.039734467823197,0.7586996489984232,2nd,4th,3rd,-0.32827222213067775,1.3011067738253426,0.5168278400459945
perc,resp,1389,1,2.1.3left.bmp,2.1.3right.bmp,,ACC020,"[0, -2, 2]","[0, -2, 2]",[],match,1.0,,0.6044517980092479,-0.4902639186853294,1.1064551873136914,3rd,2nd,4th,0.31150369568263414,-0.3882757721312387,1.215863286247705
perc,resp,1373,1,2.1.1left.bmp,1.1.1right.bmp,,ACC020,"[0, -2, -2]","[-2, -2, -2]",[],non-match,0.7113248654051871,4,-1.1026173436158206,-0.31732321471183184,1.3224112114513442,1st,2nd,4th,-1.234906226926845,-0.3882757721312387,1.215863286247705
perc,resp,894,0,2.3.2left.bmp,2.3.2right.bmp,,ACC020,"[0, 2, 0]","[0, 2, 0]",[],match,1.0,,-0.47207934881994457,1.4713109707591479,1.400459722100551,2nd,4th,4th,-0.32827222213067775,1.3011067738253426,1.215863286247705
perc,resp,907,1,2.2.3left.bmp,3.1.1right.bmp,,ACC020,"[0, 0, 2]","[2, -2, -2]",[],non-match,0.29289321881345254,1,0.5537640321496207,0.9488941093828658,1.2595488548718117,3rd,4th,4th,0.31150369568263414,1.3011067738253426,1.215863286247705
perc,resp,1062,0,1.2.2left.bmp,1.3.3right.bmp,,ACC020,"[-2, 0, 0]","[-2, 2, 2]",[],non-match,0.5917517095361369,3,-1.9291278524918303,-0.9434748786971625,1.5452223762603856,1st,1st,4th,-1.234906226926845,-1.2201707307715886,1.215863286247705
perc,resp,1524,1,2.3.1left.bmp,2.3.1right.bmp,,ACC020,"[0, 2, -2]","[0, 2, -2]",[],match,1.0,,0.328634322194018,-0.2929758418188248,1.2054256357333204,3rd,2nd,4th,0.31150369568263414,-0.3882757721312387,1.215863286247705
perc,resp,952,1,1.1.2left.bmp,1.1.2right.bmp,,ACC020,"[-2, -2, 0]","[-2, -2, 0]",[],match,1.0,,-0.5791787812262971,-0.8541173801428613,1.1019731414444052,2nd,1st,4th,-0.32827222213067775,-1.2201707307715886,1.215863286247705
perc,resp,950,1,1.2.1left.bmp,1.2.1right.bmp,,ACC020,"[-2, 0, -2]","[-2, 0, -2]",[],match,1.0,,-1.6438464222115476,-0.7748952422968337,0.9351578133403057,1st,1st,4th,-1.234906226926845,-1.2201707307715886,1.215863286247705
perc,resp,1359,1,3.3.2left.bmp,3.3.2right.bmp,,ACC020,"[2, 2, 0]","[2, 2, 0]",[],match,1.0,,0.6179314407027284,-1.0387965841694087,0.9487152605204126,3rd,1st,4th,0.31150369568263414,-1.2201707307715886,1.215863286247705
perc,resp,938,1,1.2.3left.bmp,1.2.3right.bmp,,ACC020,"[-2, 0, 2]","[-2, 0, 2]",[],match,1.0,,-0.568042220483735,-0.6282672118732116,0.9866947730407855,2nd,2nd,4th,-0.32827222213067775,-0.3882757721312387,1.215863286247705
perc,resp,1488,0,2.1.1left.bmp,2.1.1right.bmp,,ACC020,"[0, -2, -2]","[0, -2, -2]",[],match,1.0,,-0.5155240073501227,-0.12966206913064476,0.8282114390928463,2nd,2nd,3rd,-0.32827222213067775,-0.3882757721312387,0.5168278400459945
perc,resp,1399,1,2.1.2left.bmp,2.1.2right.bmp,,ACC020,"[0, -2, 0]","[0, -2, 0]",[],match,1.0,,-0.28807357489307517,-1.1240378207294248,0.8959240200846045,2nd,1st,4th,-0.32827222213067775,-1.2201707307715886,1.215863286247705
perc,resp,1341,1,2.2.2left.bmp,1.2.2right.bmp,,ACC020,"[0, 0, 0]","[-2, 0, 0]",[],non-match,0.7113248654051871,4,0.7477447972368713,0.14148213158547646,0.8599245724728609,4th,3rd,3rd,1.2514167760449184,0.306075103404768,0.5168278400459945
perc,resp,1908,0,2.2.1left.bmp,3.2.3right.bmp,,ACC020,"[0, 0, -2]","[2, 0, 2]",[],non-match,0.3545027756320971,2,-1.0250238320248537,0.4299572944693932,0.8877034280560749,1st,3rd,4th,-1.234906226926845,0.306075103404768,1.215863286247705
perc,resp,1097,1,3.1.1left.bmp,1.1.1right.bmp,,ACC020,"[2, -2, -2]","[-2, -2, -2]",[],non-match,0.42264973081037416,2,-0.10245129151980936,-1.1197578547730083,0.6430329717911396,2nd,1st,3rd,-0.32827222213067775,-1.2201707307715886,0.5168278400459945
perc,resp,1176,1,2.3.3left.bmp,2.3.3right.bmp,,ACC020,"[0, 2, 2]","[0, 2, 2]",[],match,1.0,,-0.8525618075454314,-0.4479782431081669,0.6157417927800195,1st,2nd,3rd,-1.234906226926845,-0.3882757721312387,0.5168278400459945
perc,resp,903,1,3.3.1left.bmp,1.2.3right.bmp,,ACC020,"[2, 2, -2]","[-2, 0, 2]",[],non-match,0.1339745962155613,1,0.83871342412852,-1.022453275796652,0.39529887508591854,4th,1st,3rd,1.2514167760449184,-1.2201707307715886,0.5168278400459945
perc,resp,1142,1,1.3.3left.bmp,2.2.2right.bmp,,ACC020,"[-2, 2, 2]","[0, 0, 0]",[],non-match,0.5,3,0.44003971037884876,0.519908352990463,0.2267807555187655,3rd,3rd,3rd,0.31150369568263414,0.306075103404768,0.5168278400459945
perc,resp,769,1,1.3.1left.bmp,1.1.2right.bmp,,ACC020,"[-2, 2, -2]","[-2, -2, 0]",[],non-match,0.3545027756320971,2,1.3171832730513153,0.28118569426387346,0.1818216902227748,4th,3rd,2nd,1.2514167760449184,0.306075103404768,-0.394388281659207
perc,resp,1226,1,3.1.3left.bmp,1.2.2right.bmp,,ACC020,"[2, -2, 2]","[-2, 0, 0]",[],non-match,0.29289321881345254,1,1.5591172514672904,-0.36250124893065716,-0.1974677297276338,4th,2nd,2nd,1.2514167760449184,-0.3882757721312387,-0.394388281659207
perc,resp,653,0,1.1.1left.bmp,1.1.1right.bmp,,ACC020,"[-2, -2, -2]","[-2, -2, -2]",[],match,1.0,,-0.432383170302321,-0.40552954232165483,-0.003592164114438037,2nd,2nd,2nd,-0.32827222213067775,-0.3882757721312387,-0.394388281659207
perc,resp,1323,1,3.2.3left.bmp,1.3.2right.bmp,,ACC020,"[2, 0, 2]","[-2, 2, 0]",[],non-match,0.29289321881345254,1,1.2034283867919142,-0.8920910451598136,0.19395673270567707,4th,1st,3rd,1.2514167760449184,-1.2201707307715886,0.5168278400459945
perc,resp,880,1,3.3.3left.bmp,2.1.3right.bmp,,ACC020,"[2, 2, 2]","[0, -2, 2]",[],non-match,0.3545027756320971,2,-0.721971603923977,-0.3446207834559918,-0.16217080782616267,1st,2nd,2nd,-1.234906226926845,-0.3882757721312387,-0.394388281659207
perc,resp,967,1,1.1.3left.bmp,3.3.2right.bmp,,ACC020,"[-2, -2, 2]","[2, 2, 0]",[],non-match,0.1339745962155613,1,1.4814528200574215,-0.09131961095102925,-0.22048469960453573,4th,2nd,2nd,1.2514167760449184,-0.3882757721312387,-0.394388281659207
perc,resp,1632,1,2.3.2left.bmp,2.3.2right.bmp,,ACC020,"[0, 2, 0]","[0, 2, 0]",[],match,1.0,,0.031011062078843497,-1.018589814964474,-0.13857873876375365,3rd,1st,2nd,0.31150369568263414,-1.2201707307715886,-0.394388281659207
perc,resp,1263,1,1.3.2left.bmp,1.3.2right.bmp,,ACC020,"[-2, 2, 0]","[-2, 2, 0]",[],match,1.0,,0.24274827225477946,-0.8152698302603893,-0.32782784056526515,3rd,1st,2nd,0.31150369568263414,-1.2201707307715886,-0.394388281659207
perc,resp,1586,0,3.1.2left.bmp,3.1.2right.bmp,,ACC020,"[2, -2, 0]","[2, -2, 0]",[],match,1.0,,-1.2164487583400179,-0.7785523186938138,-0.3105083731408918,1st,1st,2nd,-1.234906226926845,-1.2201707307715886,-0.394388281659207
perc,resp,1287,1,3.2.2left.bmp,1.3.1right.bmp,,ACC020,"[2, 0, 0]","[-2, 2, -2]",[],non-match,0.29289321881345254,1,0.6393736805834073,0.45969259448760047,-0.2598857313074904,3rd,3rd,2nd,0.31150369568263414,0.306075103404768,-0.394388281659207
perc,resp,2224,1,2.1.3left.bmp,2.1.3right.bmp,,ACC020,"[0, -2, 2]","[0, -2, 2]",[],match,1.0,,0.5294584212859926,0.13697516329973833,-0.4410162420957976,3rd,3rd,2nd,0.31150369568263414,0.306075103404768,-0.394388281659207
perc,resp,1144,1,2.2.3left.bmp,2.2.3right.bmp,,ACC020,"[0, 0, 2]","[0, 0, 2]",[],match,1.0,,-1.4524306560336293,-1.9407726205441256,-0.6012541260476628,1st,1st,2nd,-1.234906226926845,-1.2201707307715886,-0.394388281659207
perc,resp,1153,0,3.2.2left.bmp,3.2.2right.bmp,,ACC020,"[2, 0, 0]","[2, 0, 0]",[],match,1.0,,-0.5753031481413394,0.07641639178572891,-0.6662468849537795,2nd,3rd,2nd,-0.32827222213067775,0.306075103404768,-0.394388281659207
perc,resp,1182,1,2.2.1left.bmp,2.2.1right.bmp,,ACC020,"[0, 0, -2]","[0, 0, -2]",[],match,1.0,,0.06291662296301352,0.43127205728838724,-0.7566028677528828,3rd,3rd,2nd,0.31150369568263414,0.306075103404768,-0.394388281659207
perc,resp,1521,1,3.1.1left.bmp,3.1.1right.bmp,,ACC020,"[2, -2, -2]","[2, -2, -2]",[],match,1.0,,0.7769250244025702,-0.4200311889042979,-0.4653498050448321,4th,2nd,2nd,1.2514167760449184,-0.3882757721312387,-0.394388281659207
perc,resp,1532,1,1.1.3left.bmp,1.3.1right.bmp,,ACC020,"[-2, -2, 2]","[-2, 2, -2]",[],non-match,0.18350341907227385,1,-0.489992534689825,-0.840442753348367,-0.8812799645183857,2nd,1st,1st,-0.32827222213067775,-1.2201707307715886,-1.3364191591208494
perc,resp,1705,1,3.1.3left.bmp,3.1.3right.bmp,,ACC020,"[2, -2, 2]","[2, -2, 2]",[],match,1.0,,0.3066531929964998,0.6982020376615491,-0.7501033256151054,3rd,3rd,2nd,0.31150369568263414,0.306075103404768,-0.394388281659207
perc,resp,1191,0,1.1.1left.bmp,2.1.2right.bmp,,ACC020,"[-2, -2, -2]","[0, -2, 0]",[],non-match,0.5917517095361369,3,0.30451602958996443,-0.10931542703600786,-0.9410536750379828,3rd,2nd,1st,0.31150369568263414,-0.3882757721312387,-1.3364191591208494
perc,resp,1430,1,1.3.2left.bmp,1.3.2right.bmp,,ACC020,"[-2, 2, 0]","[-2, 2, 0]",[],match,1.0,,0.25461256151949496,-0.5067533768542446,-1.3005374161660563,3rd,2nd,1st,0.31150369568263414,-0.3882757721312387,-1.3364191591208494
perc,resp,1067,1,2.1.3left.bmp,2.2.1right.bmp,,ACC020,"[0, -2, 2]","[0, 0, -2]",[],non-match,0.3545027756320971,2,0.5662569730181309,0.7888806693476469,-1.0492342615072388,3rd,4th,1st,0.31150369568263414,1.3011067738253426,-1.3364191591208494
perc,resp,1048,1,2.3.2left.bmp,3.1.2right.bmp,,ACC020,"[0, 2, 0]","[2, -2, 0]",[],non-match,0.3545027756320971,2,0.7966298475975553,0.005979612728152048,-0.7774204755163512,4th,3rd,2nd,1.2514167760449184,0.306075103404768,-0.394388281659207
perc,resp,621,1,1.2.3left.bmp,3.3.1right.bmp,,ACC020,"[-2, 0, 2]","[2, 2, -2]",[],non-match,0.1339745962155613,1,1.65648296678796,-0.34034645924287865,-1.118601848271887,4th,2nd,1st,1.2514167760449184,-0.3882757721312387,-1.3364191591208494
perc,resp,1339,1,2.2.2left.bmp,2.2.2right.bmp,,ACC020,"[0, 0, 0]","[0, 0, 0]",[],match,1.0,,0.5199031015073861,1.109775904627917,-0.787483574516263,3rd,4th,2nd,0.31150369568263414,1.3011067738253426,-0.394388281659207
perc,resp,1050,0,2.3.3left.bmp,2.2.3right.bmp,,ACC020,"[0, 2, 2]","[0, 0, 2]",[],non-match,0.7113248654051871,4,0.7988979415272256,-0.5567445030903448,-0.703975625841668,4th,2nd,2nd,1.2514167760449184,-0.3882757721312387,-0.394388281659207
perc,resp,1016,1,3.3.2left.bmp,3.2.1right.bmp,,ACC020,"[2, 2, 0]","[2, 0, -2]",[],non-match,0.5917517095361369,3,-0.28789724120877097,-0.2090361168308395,-0.6679880824211781,2nd,2nd,2nd,-0.32827222213067775,-0.3882757721312387,-0.394388281659207
perc,resp,1367,0,3.2.3left.bmp,2.2.1right.bmp,,ACC020,"[2, 0, 2]","[0, 0, -2]",[],non-match,0.3545027756320971,2,0.0768574329589154,1.2170379239045435,-0.7602752460790702,3rd,4th,2nd,0.31150369568263414,1.3011067738253426,-0.394388281659207
perc,resp,1062,1,1.3.1left.bmp,1.3.1right.bmp,,ACC020,"[-2, 2, -2]","[-2, 2, -2]",[],match,1.0,,0.6530312013664593,0.7336764228494805,-0.780491188728367,4th,4th,2nd,1.2514167760449184,1.3011067738253426,-0.394388281659207
perc,resp,959,1,2.1.1left.bmp,1.2.1right.bmp,,ACC020,"[0, -2, -2]","[-2, 0, -2]",[],non-match,0.5917517095361369,3,1.5824291731704492,0.8734624820127318,-0.8385361834686152,4th,4th,2nd,1.2514167760449184,1.3011067738253426,-0.394388281659207
perc,resp,745,1,3.2.1left.bmp,1.2.2right.bmp,,ACC020,"[2, 0, -2]","[-2, 0, 0]",[],non-match,0.3545027756320971,2,1.955201121988813,-0.238284059897765,-0.9097807438339726,4th,2nd,1st,1.2514167760449184,-0.3882757721312387,-1.3364191591208494
perc,resp,1052,1,2.3.1left.bmp,1.2.3right.bmp,,ACC020,"[0, 2, -2]","[-2, 0, 2]",[],non-match,0.29289321881345254,1,-0.49138243195453163,-1.6085725833298117,-0.9704837321324067,2nd,1st,1st,-0.32827222213067775,-1.2201707307715886,-1.3364191591208494
perc,resp,1061,0,3.3.3left.bmp,3.1.3right.bmp,,ACC020,"[2, 2, 2]","[2, -2, 2]",[],non-match,0.42264973081037416,2,0.7733765773843948,-0.9017292101150194,-0.7906579761311091,4th,1st,2nd,1.2514167760449184,-1.2201707307715886,-0.394388281659207
perc,resp,1392,1,3.1.2left.bmp,3.1.2right.bmp,,ACC020,"[2, -2, 0]","[2, -2, 0]",[],match,1.0,,-0.6127304397537177,3.2606569374955776,-0.7549368226267162,2nd,4th,2nd,-0.32827222213067775,1.3011067738253426,-0.394388281659207
perc,resp,901,1,2.1.2left.bmp,3.2.2right.bmp,,ACC020,"[0, -2, 0]","[2, 0, 0]",[],non-match,0.5917517095361369,3,-0.4651802349328871,-0.11223052700939562,-0.8130971169405351,2nd,2nd,2nd,-0.32827222213067775,-0.3882757721312387,-0.394388281659207
perc,resp,998,1,3.3.1left.bmp,1.1.3right.bmp,,ACC020,"[2, 2, -2]","[-2, -2, 2]",[],non-match,0.0,1,0.5642151389677087,-0.5078690471601244,-1.0189412104505475,3rd,2nd,1st,0.31150369568263414,-0.3882757721312387,-1.3364191591208494
perc,resp,725,1,1.2.1left.bmp,3.3.3right.bmp,,ACC020,"[-2, 0, -2]","[2, 2, 2]",[],non-match,0.1339745962155613,1,0.04129791137962209,0.9715274384628567,-1.2716565000181907,3rd,4th,1st,0.31150369568263414,1.3011067738253426,-1.3364191591208494
perc,resp,700,1,2.2.3left.bmp,1.1.1right.bmp,,ACC020,"[0, 0, 2]","[-2, -2, -2]",[],non-match,0.29289321881345254,1,0.15539312300263902,-0.11010190846996011,-1.454581973664773,3rd,2nd,1st,0.31150369568263414,-0.3882757721312387,-1.3364191591208494
perc,resp,734,1,1.2.2left.bmp,2.3.1right.bmp,,ACC020,"[-2, 0, 0]","[0, 2, -2]",[],non-match,0.5,3,0.07387719573935986,-0.6087940062936326,-1.6144782155985837,3rd,2nd,1st,0.31150369568263414,-0.3882757721312387,-1.3364191591208494
perc,resp,1023,1,1.3.3left.bmp,1.3.3right.bmp,,ACC020,"[-2, 2, 2]","[-2, 2, 2]",[],match,1.0,,-0.10348754613055099,0.6180506748034977,-1.5184554746997763,2nd,3rd,1st,-0.32827222213067775,0.306075103404768,-1.3364191591208494
perc,resp,890,1,1.1.2left.bmp,1.1.2right.bmp,,ACC020,"[-2, -2, 0]","[-2, -2, 0]",[],match,1.0,,1.4179724294047928,1.0372125744246967,-1.3679573108861525,4th,4th,1st,1.2514167760449184,1.3011067738253426,-1.3364191591208494
perc,resp,998,1,2.3.3left.bmp,2.3.3right.bmp,,ACC020,"[0, 2, 2]","[0, 2, 2]",[],match,1.0,,-0.4616256148017668,0.01733097461216897,-1.1500819213492537,2nd,3rd,1st,-0.32827222213067775,0.306075103404768,-1.3364191591208494
perc,resp,855,0,3.3.2left.bmp,3.2.2right.bmp,,ACC020,"[2, 2, 0]","[2, 0, 0]",[],non-match,0.7113248654051871,4,-1.1071417080705828,-0.6637187311876239,-1.5117261713048387,1st,2nd,1st,-1.234906226926845,-0.3882757721312387,-1.3364191591208494
perc,resp,1395,1,1.3.2left.bmp,1.2.1right.bmp,,ACC020,"[-2, 2, 0]","[-2, 0, -2]",[],non-match,0.5917517095361369,3,1.216572551291752,2.296978235016733,-1.5816692405651773,4th,4th,1st,1.2514167760449184,1.3011067738253426,-1.3364191591208494
perc,resp,1222,1,2.2.1left.bmp,2.2.1right.bmp,,ACC020,"[0, 0, -2]","[0, 0, -2]",[],match,1.0,,-1.161642354213125,-0.5175443006618117,-1.53447809944339,1st,2nd,1st,-1.234906226926845,-0.3882757721312387,-1.3364191591208494
perc,resp,1111,1,2.1.2left.bmp,2.1.2right.bmp,,ACC020,"[0, -2, 0]","[0, -2, 0]",[],match,1.0,,-0.48559175637202856,-1.3221492496282221,-1.4609773635221759,2nd,1st,1st,-0.32827222213067775,-1.2201707307715886,-1.3364191591208494
perc,resp,1068,1,1.1.2left.bmp,2.1.1right.bmp,,ACC020,"[-2, -2, 0]","[0, -2, -2]",[],non-match,0.5917517095361369,3,0.3145992252852932,-0.08434591806142272,-1.257756109850563,3rd,3rd,1st,0.31150369568263414,0.306075103404768,-1.3364191591208494
perc,resp,1085,0,2.2.3left.bmp,2.2.3right.bmp,,ACC020,"[0, 0, 2]","[0, 0, 2]",[],match,1.0,,-0.0836507095558993,0.7432783959591277,-1.402135223445051,2nd,4th,1st,-0.32827222213067775,1.3011067738253426,-1.3364191591208494
perc,resp,1036,1,3.2.1left.bmp,2.3.2right.bmp,,ACC020,"[2, 0, -2]","[0, 2, 0]",[],non-match,0.5,3,-0.49842551094021786,1.4133502656257682,-1.2806916549336758,2nd,4th,1st,-0.32827222213067775,1.3011067738253426,-1.3364191591208494
perc,resp,1307,1,2.3.1left.bmp,3.3.3right.bmp,,ACC020,"[0, 2, -2]","[2, 2, 2]",[],non-match,0.3545027756320971,2,-0.7128351918846751,1.5864718790103438,-1.3638720557818078,1st,4th,1st,-1.234906226926845,1.3011067738253426,-1.3364191591208494
perc,resp,1196,0,3.1.2left.bmp,3.1.2right.bmp,,ACC020,"[2, -2, 0]","[2, -2, 0]",[],match,1.0,,-0.7955783927568287,1.448113915699324,-1.4983707436965732,1st,4th,1st,-1.234906226926845,1.3011067738253426,-1.3364191591208494
perc,resp,1527,0,1.1.1left.bmp,1.1.1right.bmp,,ACC020,"[-2, -2, -2]","[-2, -2, -2]",[],match,1.0,,-2.5430518657746526,-1.043559892939384,-1.567039397973083,1st,1st,1st,-1.234906226926845,-1.2201707307715886,-1.3364191591208494
perc,resp,1812,1,2.2.2left.bmp,2.2.2right.bmp,,ACC020,"[0, 0, 0]","[0, 0, 0]",[],match,1.0,,0.753317930932198,0.385687369201289,-1.3587775432377949,4th,3rd,1st,1.2514167760449184,0.306075103404768,-1.3364191591208494
perc,resp,970,1,1.3.3left.bmp,1.3.3right.bmp,,ACC020,"[-2, 2, 2]","[-2, 2, 2]",[],match,1.0,,0.2488200968890942,0.18081850801240743,-1.1216967493736807,3rd,3rd,1st,0.31150369568263414,0.306075103404768,-1.3364191591208494
perc,resp,1502,0,3.3.3left.bmp,3.3.3right.bmp,,ACC020,"[2, 2, 2]","[2, 2, 2]",[],match,1.0,,0.974908926949937,-0.8722986389602475,-0.8933878468975849,4th,1st,1st,1.2514167760449184,-1.2201707307715886,-1.3364191591208494
perc,resp,930,1,3.3.1left.bmp,1.2.3right.bmp,,ACC020,"[2, 2, -2]","[-2, 0, 2]",[],non-match,0.1339745962155613,1,0.7757798803781295,-1.720355096131087,-1.0978736707966237,4th,1st,1st,1.2514167760449184,-1.2201707307715886,-1.3364191591208494
perc,resp,1318,1,3.1.3left.bmp,3.1.3right.bmp,,ACC020,"[2, -2, 2]","[2, -2, 2]",[],match,1.0,,-0.43038991951144856,0.014875932028649926,-1.2731473335870465,2nd,3rd,1st,-0.32827222213067775,0.306075103404768,-1.3364191591208494
perc,resp,1228,1,1.2.3left.bmp,3.2.3right.bmp,,ACC020,"[-2, 0, 2]","[2, 0, 2]",[],non-match,0.42264973081037416,2,-1.0046758102083442,-0.8274117087325096,-1.0446724625948935,1st,1st,1st,-1.234906226926845,-1.2201707307715886,-1.3364191591208494
perc,resp,1377,1,2.3.1left.bmp,3.3.2right.bmp,,ACC020,"[0, 2, -2]","[2, 2, 0]",[],non-match,0.5917517095361369,3,-0.2532796744913578,-0.6803965588211242,-0.6908180925465167,2nd,2nd,2nd,-0.32827222213067775,-0.3882757721312387,-0.394388281659207
perc,resp,1306,1,1.1.1left.bmp,1.3.1right.bmp,,ACC020,"[-2, -2, -2]","[-2, 2, -2]",[],non-match,0.42264973081037416,2,-1.361115354632007,-1.0349815171651322,-0.7913593275492725,1st,1st,2nd,-1.234906226926845,-1.2201707307715886,-0.394388281659207
perc,resp,1128,0,2.3.3left.bmp,2.3.3right.bmp,,ACC020,"[0, 2, 2]","[0, 2, 2]",[],match,1.0,,-1.743463173089863,-1.0719478414428378,-0.34986098709428726,1st,1st,2nd,-1.234906226926845,-1.2201707307715886,-0.394388281659207
perc,resp,1700,1,3.1.2left.bmp,3.1.2right.bmp,,ACC020,"[2, -2, 0]","[2, -2, 0]",[],match,1.0,,-0.789525219414321,-0.8963304727620335,-0.2463502739189699,1st,1st,2nd,-1.234906226926845,-1.2201707307715886,-0.394388281659207
perc,resp,1472,1,2.2.3left.bmp,1.1.3right.bmp,,ACC020,"[0, 0, 2]","[-2, -2, 2]",[],non-match,0.5917517095361369,3,0.3444924971150889,0.38583632118782996,-0.2636801506843766,3rd,3rd,2nd,0.31150369568263414,0.306075103404768,-0.394388281659207
perc,resp,1131,1,3.1.1left.bmp,3.1.1right.bmp,,ACC020,"[2, -2, -2]","[2, -2, -2]",[],match,1.0,,-1.1083571995239965,-0.729052111304325,-0.29762833633506763,1st,1st,2nd,-1.234906226926845,-1.2201707307715886,-0.394388281659207
perc,resp,1138,1,1.2.1left.bmp,1.2.1right.bmp,,ACC020,"[-2, 0, -2]","[-2, 0, -2]",[],match,1.0,,-0.9016197986385333,-1.7907786743422085,-0.08689757518141497,1st,1st,2nd,-1.234906226926845,-1.2201707307715886,-0.394388281659207
perc,resp,1559,1,1.3.2left.bmp,1.1.1right.bmp,,ACC020,"[-2, 2, 0]","[-2, -2, -2]",[],non-match,0.3545027756320971,2,1.9088616188313368,2.9385750181780517,0.01959378800541173,4th,4th,2nd,1.2514167760449184,1.3011067738253426,-0.394388281659207
perc,resp,1732,0,3.2.1left.bmp,3.2.1right.bmp,,ACC020,"[2, 0, -2]","[2, 0, -2]",[],match,1.0,,0.02782673181881223,-0.5367462791207476,-0.09534576611398901,3rd,2nd,2nd,0.31150369568263414,-0.3882757721312387,-0.394388281659207
perc,resp,1021,1,3.1.3left.bmp,3.1.3right.bmp,,ACC020,"[2, -2, 2]","[2, -2, 2]",[],match,1.0,,-0.04905603358416412,0.8553650647315826,-0.06541785311374178,2nd,4th,2nd,-0.32827222213067775,1.3011067738253426,-0.394388281659207
perc,resp,1006,1,2.1.3left.bmp,2.1.3right.bmp,,ACC020,"[0, -2, 2]","[0, -2, 2]",[],match,1.0,,1.2229003815520454,-0.2489915157944796,0.24424584012975414,4th,2nd,3rd,1.2514167760449184,-0.3882757721312387,0.5168278400459945
perc,resp,2100,0,1.1.3left.bmp,1.1.3right.bmp,,ACC020,"[-2, -2, 2]","[-2, -2, 2]",[],match,1.0,,-0.7297999607526025,-0.4446807500081271,0.03220130744699232,1st,2nd,2nd,-1.234906226926845,-0.3882757721312387,-0.394388281659207
perc,resp,1180,0,3.2.3left.bmp,3.2.2right.bmp,,ACC020,"[2, 0, 2]","[2, 0, 0]",[],non-match,0.7113248654051871,4,-0.11849151419646278,-0.8644746494210502,0.1837655176406352,2nd,1st,3rd,-0.32827222213067775,-1.2201707307715886,0.5168278400459945
perc,resp,1361,1,2.3.2left.bmp,3.2.1right.bmp,,ACC020,"[0, 2, 0]","[2, 0, -2]",[],non-match,0.5,3,0.7046649689345026,-0.07412786160142419,0.24148872965581214,4th,3rd,3rd,1.2514167760449184,0.306075103404768,0.5168278400459945
perc,resp,1382,1,1.3.3left.bmp,1.3.3right.bmp,,ACC020,"[-2, 2, 2]","[-2, 2, 2]",[],match,1.0,,-0.10373851754313201,-0.8604848035755432,0.04000432186174604,2nd,1st,2nd,-0.32827222213067775,-1.2201707307715886,-0.394388281659207
perc,resp,2099,1,1.1.2left.bmp,1.1.2right.bmp,,ACC020,"[-2, -2, 0]","[-2, -2, 0]",[],match,1.0,,0.46530514391143724,1.31731703419875,-0.08702062364914118,3rd,4th,2nd,0.31150369568263414,1.3011067738253426,-0.394388281659207
perc,resp,1613,0,1.2.2left.bmp,2.2.2right.bmp,,ACC020,"[-2, 0, 0]","[0, 0, 0]",[],non-match,0.7113248654051871,4,-0.31946236224673946,0.03559814235958578,0.4531980293645391,2nd,3rd,3rd,-0.32827222213067775,0.306075103404768,0.5168278400459945
perc,resp,1617,1,3.2.2left.bmp,2.1.3right.bmp,,ACC020,"[2, 0, 0]","[0, -2, 2]",[],non-match,0.5,3,1.516318820655029,-0.7192250413548172,0.21388208925834212,4th,2nd,3rd,1.2514167760449184,-0.3882757721312387,0.5168278400459945
perc,resp,1620,1,3.3.1left.bmp,3.1.3right.bmp,,ACC020,"[2, 2, -2]","[2, -2, 2]",[],non-match,0.18350341907227385,1,-0.14113534362347582,-1.078713213272338,0.16593961990321984,2nd,1st,2nd,-0.32827222213067775,-1.2201707307715886,-0.394388281659207
perc,resp,1714,1,2.1.1left.bmp,2.1.1right.bmp,,ACC020,"[0, -2, -2]","[0, -2, -2]",[],match,1.0,,-1.3640049769410871,-0.6932593972889697,-0.005622990698232277,1st,2nd,2nd,-1.234906226926845,-0.3882757721312387,-0.394388281659207
perc,resp,1859,1,3.3.3left.bmp,3.1.1right.bmp,,ACC020,"[2, 2, 2]","[2, -2, -2]",[],non-match,0.18350341907227385,1,0.5760044061578912,0.7624267467212366,-0.08393241722950959,3rd,4th,2nd,0.31150369568263414,1.3011067738253426,-0.394388281659207
perc,resp,2035,1,2.2.1left.bmp,2.2.1right.bmp,,ACC020,"[0, 0, -2]","[0, 0, -2]",[],match,1.0,,-0.26502896134804577,-0.6748587207375634,-0.13148075977757334,2nd,2nd,2nd,-0.32827222213067775,-0.3882757721312387,-0.394388281659207
perc,resp,1115,1,1.3.1left.bmp,1.3.1right.bmp,,ACC020,"[-2, 2, -2]","[-2, 2, -2]",[],match,1.0,,-1.1543568042590495,0.23921730136305872,-0.06366041034281016,1st,3rd,2nd,-1.234906226926845,0.306075103404768,-0.394388281659207
perc,resp,1919,1,2.2.2left.bmp,2.3.1right.bmp,,ACC020,"[0, 0, 0]","[0, 2, -2]",[],non-match,0.5917517095361369,3,-0.3926204355650448,-0.3817060420341549,-0.018571601048100267,2nd,2nd,2nd,-0.32827222213067775,-0.3882757721312387,-0.394388281659207
perc,resp,1038,1,3.3.2left.bmp,2.1.3right.bmp,,ACC020,"[2, 2, 0]","[0, -2, 2]",[],non-match,0.29289321881345254,1,2.222525163931891,-0.4303985211595044,0.27416735128587033,4th,2nd,3rd,1.2514167760449184,-0.3882757721312387,0.5168278400459945
perc,resp,2365,1,2.2.3left.bmp,1.1.2right.bmp,,ACC020,"[0, 0, 2]","[-2, -2, 0]",[],non-match,0.5,3,1.09987408849519,1.154274388997777,0.1825670390836826,4th,4th,3rd,1.2514167760449184,1.3011067738253426,0.5168278400459945
perc,resp,1205,1,1.1.1left.bmp,2.3.3right.bmp,,ACC020,"[-2, -2, -2]","[0, 2, 2]",[],non-match,0.1339745962155613,1,0.36690772535058536,-0.12181790382069599,0.41434337289810097,3rd,2nd,3rd,0.31150369568263414,-0.3882757721312387,0.5168278400459945
perc,resp,1204,1,3.1.3left.bmp,2.2.1right.bmp,,ACC020,"[2, -2, 2]","[0, 0, -2]",[],non-match,0.29289321881345254,1,-1.1081440070359803,-0.979232515516022,0.35192761581980436,1st,1st,3rd,-1.234906226926845,-1.2201707307715886,0.5168278400459945
perc,resp,1285,1,2.2.2left.bmp,1.2.1right.bmp,,ACC020,"[0, 0, 0]","[-2, 0, -2]",[],non-match,0.5917517095361369,3,-1.0240174013372032,-0.461675673505283,0.4292576871005597,1st,2nd,3rd,-1.234906226926845,-0.3882757721312387,0.5168278400459945
perc,resp,1194,0,2.1.1left.bmp,2.1.1right.bmp,,ACC020,"[0, -2, -2]","[0, -2, -2]",[],match,1.0,,0.017687468944679638,0.4220968141843293,0.5889635992336556,2nd,3rd,3rd,-0.32827222213067775,0.306075103404768,0.5168278400459945
perc,resp,1919,0,1.2.3left.bmp,2.1.3right.bmp,,ACC020,"[-2, 0, 2]","[0, -2, 2]",[],non-match,0.5917517095361369,3,0.22698004379966807,0.11114355111341886,0.5412186946830366,3rd,3rd,3rd,0.31150369568263414,0.306075103404768,0.5168278400459945
perc,resp,1593,1,2.2.1left.bmp,3.1.3right.bmp,,ACC020,"[0, 0, -2]","[2, -2, 2]",[],non-match,0.29289321881345254,1,-0.846713013591795,-1.6318140780155526,0.7441177652686346,1st,1st,3rd,-1.234906226926845,-1.2201707307715886,0.5168278400459945
perc,resp,1414,1,1.1.3left.bmp,2.2.3right.bmp,,ACC020,"[-2, -2, 2]","[0, 0, 2]",[],non-match,0.5917517095361369,3,0.663322655515962,0.4828621507191388,0.40837472981902934,4th,3rd,3rd,1.2514167760449184,0.306075103404768,0.5168278400459945
perc,resp,2129,1,3.3.1left.bmp,3.1.1right.bmp,,ACC020,"[2, 2, -2]","[2, -2, -2]",[],non-match,0.42264973081037416,2,-0.9470938810447407,-0.2506204228365929,0.39339735184815156,1st,2nd,3rd,-1.234906226926845,-0.3882757721312387,0.5168278400459945
perc,resp,1743,0,3.1.2left.bmp,3.2.2right.bmp,,ACC020,"[2, -2, 0]","[2, 0, 0]",[],non-match,0.7113248654051871,4,-1.053769295085786,0.6168026165697806,0.49680876973565957,1st,3rd,3rd,-1.234906226926845,0.306075103404768,0.5168278400459945
perc,resp,1961,1,2.1.2left.bmp,2.1.2right.bmp,,ACC020,"[0, -2, 0]","[0, -2, 0]",[],match,1.0,,-1.901452972427455,-1.2569334245116013,0.7763728903062646,1st,1st,3rd,-1.234906226926845,-1.2201707307715886,0.5168278400459945
perc,resp,1370,0,2.3.2left.bmp,2.3.2right.bmp,,ACC020,"[0, 2, 0]","[0, 2, 0]",[],match,1.0,,-0.215916127066825,0.26641742860699397,0.7405213370110296,2nd,3rd,3rd,-0.32827222213067775,0.306075103404768,0.5168278400459945
perc,resp,2327,0,1.3.3left.bmp,1.3.3right.bmp,,ACC020,"[-2, 2, 2]","[-2, 2, 2]",[],match,1.0,,-1.5872701865034657,-2.414085918352437,0.4998892641878865,1st,1st,3rd,-1.234906226926845,-1.2201707307715886,0.5168278400459945
perc,resp,1478,0,3.2.3left.bmp,3.2.3right.bmp,,ACC020,"[2, 0, 2]","[2, 0, 2]",[],match,1.0,,-0.7112624287412609,0.5345832621179857,0.6371373569519602,1st,3rd,3rd,-1.234906226926845,0.306075103404768,0.5168278400459945
perc,resp,1148,0,3.2.2left.bmp,3.3.3right.bmp,,ACC020,"[2, 0, 0]","[2, 2, 2]",[],non-match,0.5917517095361369,3,-0.6332515889230825,-0.25675303516942166,0.32571824285082607,2nd,2nd,3rd,-0.32827222213067775,-0.3882757721312387,0.5168278400459945
perc,resp,944,1,3.1.1left.bmp,1.2.3right.bmp,,ACC020,"[2, -2, -2]","[-2, 0, 2]",[],non-match,0.1339745962155613,1,0.4518847422243819,-0.9335592533044856,0.3336506648057719,3rd,1st,3rd,0.31150369568263414,-1.2201707307715886,0.5168278400459945
perc,resp,1415,0,2.3.3left.bmp,2.3.3right.bmp,,ACC020,"[0, 2, 2]","[0, 2, 2]",[],match,1.0,,-1.6246962127285012,0.8379832646031634,0.24842492040213957,1st,4th,3rd,-1.234906226926845,1.3011067738253426,0.5168278400459945
perc,resp,1092,1,1.2.2left.bmp,1.1.3right.bmp,,ACC020,"[-2, 0, 0]","[-2, -2, 2]",[],non-match,0.5917517095361369,3,-0.14728206238370617,0.8075007138163556,0.34751672413248774,2nd,4th,3rd,-0.32827222213067775,1.3011067738253426,0.5168278400459945
perc,resp,1213,1,3.3.3left.bmp,2.1.1right.bmp,,ACC020,"[2, 2, 2]","[0, -2, -2]",[],non-match,0.1339745962155613,1,0.6635070155183005,-1.4466521546628062,0.019687359669294854,4th,1st,2nd,1.2514167760449184,-1.2201707307715886,-0.394388281659207
perc,resp,1152,1,1.2.1left.bmp,3.2.3right.bmp,,ACC020,"[-2, 0, -2]","[2, 0, 2]",[],non-match,0.18350341907227385,1,-0.15853624622240037,-0.5864061241827683,0.10742256435270112,2nd,2nd,2nd,-0.32827222213067775,-0.3882757721312387,-0.394388281659207
perc,resp,1695,1,1.3.2left.bmp,1.3.2right.bmp,,ACC020,"[-2, 2, 0]","[-2, 2, 0]",[],match,1.0,,0.6474431734312974,1.118610401381493,-0.45437176717882855,3rd,4th,2nd,0.31150369568263414,1.3011067738253426,-0.394388281659207
perc,resp,1415,0,3.2.1left.bmp,3.2.1right.bmp,,ACC020,"[2, 0, -2]","[2, 0, -2]",[],match,1.0,,-1.9530880694704704,-1.3308954275680391,-0.5868635503894752,1st,1st,2nd,-1.234906226926845,-1.2201707307715886,-0.394388281659207
perc,resp,1388,1,1.1.2left.bmp,2.1.2right.bmp,,ACC020,"[-2, -2, 0]","[0, -2, 0]",[],non-match,0.7113248654051871,4,-0.4497210756910669,-1.1925298049366417,-0.6966292138228419,2nd,1st,2nd,-0.32827222213067775,-1.2201707307715886,-0.394388281659207
perc,resp,963,1,3.3.2left.bmp,1.3.3right.bmp,,ACC020,"[2, 2, 0]","[-2, 2, 2]",[],non-match,0.3545027756320971,2,1.799973286341749,1.5692777384582786,-0.857085744347149,4th,4th,2nd,1.2514167760449184,1.3011067738253426,-0.394388281659207
perc,resp,2394,1,2.3.1left.bmp,2.3.1right.bmp,,ACC020,"[0, 2, -2]","[0, 2, -2]",[],match,1.0,,-3.171904621796151,-1.8072016110412046,-0.7191601526257155,1st,1st,2nd,-1.234906226926845,-1.2201707307715886,-0.394388281659207
perc,resp,1678,1,1.3.1left.bmp,1.3.1right.bmp,,ACC020,"[-2, 2, -2]","[-2, 2, -2]",[],match,1.0,,-0.8956784851000769,-1.0515246185985987,-0.7720129517283275,1st,1st,2nd,-1.234906226926845,-1.2201707307715886,-0.394388281659207
perc,resp,1781,0,2.1.3left.bmp,2.1.3right.bmp,,ACC020,"[0, -2, 2]","[0, -2, 2]",[],match,1.0,,0.9100467154078759,1.1850741726442147,-0.9788688017222472,4th,4th,1st,1.2514167760449184,1.3011067738253426,-1.3364191591208494
perc,resp,887,1,3.1.2left.bmp,1.2.3right.bmp,,ACC020,"[2, -2, 0]","[-2, 0, 2]",[],non-match,0.29289321881345254,1,1.580542528233363,-0.8391072294121856,-0.693216579768009,4th,1st,2nd,1.2514167760449184,-1.2201707307715886,-0.394388281659207
perc,resp,2095,0,3.3.1left.bmp,3.2.2right.bmp,,ACC020,"[2, 2, -2]","[2, 0, 0]",[],non-match,0.5917517095361369,3,-0.6418036326142497,1.1880854936082392,-1.1227046350700813,2nd,4th,1st,-0.32827222213067775,1.3011067738253426,-1.3364191591208494
perc,resp,1174,1,2.3.3left.bmp,2.3.3right.bmp,,ACC020,"[0, 2, 2]","[0, 2, 2]",[],match,1.0,,-0.765712199969799,0.41338561380757294,-1.322747700314053,1st,3rd,1st,-1.234906226926845,0.306075103404768,-1.3364191591208494
perc,resp,1695,0,2.2.3left.bmp,2.2.3right.bmp,,ACC020,"[0, 0, 2]","[0, 0, 2]",[],match,1.0,,-1.2617131080566792,-0.35737386324010956,-1.4956352815387577,1st,2nd,1st,-1.234906226926845,-0.3882757721312387,-1.3364191591208494
perc,resp,1701,1,2.2.2left.bmp,1.2.2right.bmp,,ACC020,"[0, 0, 0]","[-2, 0, 0]",[],non-match,0.7113248654051871,4,-1.876885334482128,-0.7104167481948601,-1.5121971584328842,1st,2nd,1st,-1.234906226926845,-0.3882757721312387,-1.3364191591208494
perc,resp,1280,1,1.2.3left.bmp,1.2.3right.bmp,,ACC020,"[-2, 0, 2]","[-2, 0, 2]",[],match,1.0,,2.039414694914123,-0.08121752781031723,-1.7715582889363966,4th,3rd,1st,1.2514167760449184,0.306075103404768,-1.3364191591208494
perc,resp,1229,1,3.1.3left.bmp,3.3.1right.bmp,,ACC020,"[2, -2, 2]","[2, 2, -2]",[],non-match,0.18350341907227385,1,0.11916699018402908,1.4577333246602386,-1.8621651269187978,3rd,4th,1st,0.31150369568263414,1.3011067738253426,-1.3364191591208494
perc,resp,1594,1,3.1.1left.bmp,3.1.1right.bmp,,ACC020,"[2, -2, -2]","[2, -2, -2]",[],match,1.0,,-0.7665444880385199,-0.06531976770833894,-2.0388550895314315,1st,3rd,1st,-1.234906226926845,0.306075103404768,-1.3364191591208494
perc,resp,1486,1,3.2.1left.bmp,2.3.2right.bmp,,ACC020,"[2, 0, -2]","[0, 2, 0]",[],non-match,0.5,3,1.3211491517793732,-0.027681194844386383,-1.9581189610303698,4th,3rd,1st,1.2514167760449184,0.306075103404768,-1.3364191591208494
perc,resp,1337,1,1.3.2left.bmp,1.3.2right.bmp,,ACC020,"[-2, 2, 0]","[-2, 2, 0]",[],match,1.0,,-0.9960899776343058,-0.7145762697815579,-2.001758849269719,1st,2nd,1st,-1.234906226926845,-0.3882757721312387,-1.3364191591208494
perc,resp,1151,1,3.3.3left.bmp,3.3.3right.bmp,,ACC020,"[2, 2, 2]","[2, 2, 2]",[],match,1.0,,-0.13570723411327285,-1.3308280130945318,-1.6734848202302817,2nd,1st,1st,-0.32827222213067775,-1.2201707307715886,-1.3364191591208494
perc,resp,1078,1,1.1.2left.bmp,1.1.2right.bmp,,ACC020,"[-2, -2, 0]","[-2, -2, 0]",[],match,1.0,,-0.6361586249595436,-0.20722958828102944,-1.5200919575861975,2nd,2nd,1st,-0.32827222213067775,-0.3882757721312387,-1.3364191591208494
perc,resp,1381,1,2.1.3left.bmp,2.3.3right.bmp,,ACC020,"[0, -2, 2]","[0, 2, 2]",[],non-match,0.42264973081037416,2,0.02692535737031705,-0.09473115942671644,-1.4244709807912872,3rd,2nd,1st,0.31150369568263414,-0.3882757721312387,-1.3364191591208494
perc,resp,1058,1,2.2.3left.bmp,3.1.3right.bmp,,ACC020,"[0, 0, 2]","[2, -2, 2]",[],non-match,0.5917517095361369,3,-0.9705709636315002,-1.4415386195766087,-1.5084438841729824,1st,1st,1st,-1.234906226926845,-1.2201707307715886,-1.3364191591208494
perc,resp,1407,1,2.2.2left.bmp,2.2.2right.bmp,,ACC020,"[0, 0, 0]","[0, 0, 0]",[],match,1.0,,-0.994207489489045,-0.23067724634028233,-1.4285460315518435,1st,2nd,1st,-1.234906226926845,-0.3882757721312387,-1.3364191591208494
perc,resp,1036,1,3.3.1left.bmp,1.1.2right.bmp,,ACC020,"[2, 2, -2]","[-2, -2, 0]",[],non-match,0.1339745962155613,1,1.3977224190341042,-1.0974950126240897,-1.7903777170871393,4th,1st,1st,1.2514167760449184,-1.2201707307715886,-1.3364191591208494
perc,resp,1203,1,2.3.2left.bmp,2.1.1right.bmp,,ACC020,"[0, 2, 0]","[0, -2, -2]",[],non-match,0.3545027756320971,2,0.11606723100923118,1.1104866895590093,-1.5339853532156689,3rd,4th,1st,0.31150369568263414,1.3011067738253426,-1.3364191591208494
perc,resp,1232,1,2.2.1left.bmp,2.2.1right.bmp,,ACC020,"[0, 0, -2]","[0, 0, -2]",[],match,1.0,,-0.7052363329784544,-0.30754309701895083,-1.41642165863186,1st,2nd,1st,-1.234906226926845,-0.3882757721312387,-1.3364191591208494
perc,resp,779,1,1.3.1left.bmp,1.2.3right.bmp,,ACC020,"[-2, 2, -2]","[-2, 0, 2]",[],non-match,0.3545027756320971,2,0.7785784160168377,-2.808348837017428,-1.136993394109295,4th,1st,1st,1.2514167760449184,-1.2201707307715886,-1.3364191591208494
perc,resp,1591,1,1.3.2left.bmp,2.1.2right.bmp,,ACC020,"[-2, 2, 0]","[0, -2, 0]",[],non-match,0.3545027756320971,2,1.0813403163273123,1.0480677368900049,-0.9915654719762512,4th,4th,1st,1.2514167760449184,1.3011067738253426,-1.3364191591208494
perc,resp,2267,1,1.1.3left.bmp,3.2.3right.bmp,,ACC020,"[-2, -2, 2]","[2, 0, 2]",[],non-match,0.3545027756320971,2,2.548051467256945,0.29552553614675575,-0.8938325621847512,4th,3rd,1st,1.2514167760449184,0.306075103404768,-1.3364191591208494
perc,resp,1581,1,1.1.1left.bmp,1.1.1right.bmp,,ACC020,"[-2, -2, -2]","[-2, -2, -2]",[],match,1.0,,-1.403434936273039,0.37814422140929077,-1.1010409368530056,1st,3rd,1st,-1.234906226926845,0.306075103404768,-1.3364191591208494
perc,resp,1200,1,3.3.2left.bmp,3.3.2right.bmp,,ACC020,"[2, 2, 0]","[2, 2, 0]",[],match,1.0,,-1.7940478670022266,-1.072988512679909,-1.120264564062819,1st,1st,1st,-1.234906226926845,-1.2201707307715886,-1.3364191591208494
perc,resp,897,1,3.1.2left.bmp,1.3.3right.bmp,,ACC020,"[2, -2, 0]","[-2, 2, 2]",[],non-match,0.1339745962155613,1,1.060774176628208,-1.4892481619273958,-1.390819199417878,4th,1st,1st,1.2514167760449184,-1.2201707307715886,-1.3364191591208494
perc,resp,1318,1,3.2.2left.bmp,3.3.3right.bmp,,ACC020,"[2, 0, 0]","[2, 2, 2]",[],non-match,0.5917517095361369,3,0.399974582332629,0.5367102865224483,-1.6277147376429502,3rd,3rd,1st,0.31150369568263414,0.306075103404768,-1.3364191591208494
perc,resp,1277,0,3.2.3left.bmp,3.2.3right.bmp,,ACC020,"[2, 0, 2]","[2, 0, 2]",[],match,1.0,,-0.5565348378598428,-0.35577507040397066,-1.7651357652492567,2nd,2nd,1st,-0.32827222213067775,-0.3882757721312387,-1.3364191591208494
perc,resp,1700,1,2.1.2left.bmp,2.1.2right.bmp,,ACC020,"[0, -2, 0]","[0, -2, 0]",[],match,1.0,,0.2003812554629761,-0.05611149612030886,-1.4844537171794892,3rd,3rd,1st,0.31150369568263414,0.306075103404768,-1.3364191591208494
perc,resp,1210,1,2.3.1left.bmp,1.2.3right.bmp,,ACC020,"[0, 2, -2]","[-2, 0, 2]",[],non-match,0.29289321881345254,1,0.07972766710197253,-0.1860636355353396,-1.4864112549268085,3rd,2nd,1st,0.31150369568263414,-0.3882757721312387,-1.3364191591208494
perc,resp,1079,1,1.3.3left.bmp,3.3.2right.bmp,,ACC020,"[-2, 2, 2]","[2, 2, 0]",[],non-match,0.3545027756320971,2,0.11602847204098268,0.9229715816863668,-1.4080300343091268,3rd,4th,1st,0.31150369568263414,1.3011067738253426,-1.3364191591208494
perc,resp,1157,1,3.1.1left.bmp,3.2.1right.bmp,,ACC020,"[2, -2, -2]","[2, 0, -2]",[],non-match,0.7113248654051871,4,-1.236384213604238,-1.2506042727724516,-1.0927259894007064,1st,1st,1st,-1.234906226926845,-1.2201707307715886,-1.3364191591208494
perc,resp,1846,1,1.2.1left.bmp,1.2.1right.bmp,,ACC020,"[-2, 0, -2]","[-2, 0, -2]",[],match,1.0,,0.0931643548624896,-0.38909525616782115,-1.0509504014100772,3rd,2nd,1st,0.31150369568263414,-0.3882757721312387,-1.3364191591208494
perc,resp,1267,1,3.1.3left.bmp,2.3.1right.bmp,,ACC020,"[2, -2, 2]","[0, 2, -2]",[],non-match,0.1339745962155613,1,0.4548485940789693,0.863650830337416,-0.9799813330823868,3rd,4th,1st,0.31150369568263414,1.3011067738253426,-1.3364191591208494
perc,resp,1104,1,2.1.1left.bmp,2.1.1right.bmp,,ACC020,"[0, -2, -2]","[0, -2, -2]",[],match,1.0,,0.8632662936340326,0.6049279549725126,-1.0406648549098059,4th,3rd,1st,1.2514167760449184,0.306075103404768,-1.3364191591208494
perc,resp,923,1,1.2.3left.bmp,1.2.3right.bmp,,ACC020,"[-2, 0, 2]","[-2, 0, 2]",[],match,1.0,,-0.39553438177351335,-1.3368747538598686,-1.228391800708409,2nd,1st,1st,-0.32827222213067775,-1.2201707307715886,-1.3364191591208494
perc,resp,980,1,2.3.3left.bmp,2.3.3right.bmp,,ACC020,"[0, 2, 2]","[0, 2, 2]",[],match,1.0,,0.2525285755680114,0.7880417558180978,-0.8924411142610288,3rd,4th,1st,0.31150369568263414,1.3011067738253426,-1.3364191591208494
perc,resp,1321,1,1.2.1left.bmp,1.1.3right.bmp,,ACC020,"[-2, 0, -2]","[-2, -2, 2]",[],non-match,0.3545027756320971,2,1.1294771471854665,0.512857842721845,-0.8534456243250113,4th,3rd,2nd,1.2514167760449184,0.306075103404768,-0.394388281659207
perc,resp,1230,1,1.2.3left.bmp,1.2.3right.bmp,,ACC020,"[-2, 0, 2]","[-2, 0, 2]",[],match,1.0,,-0.03654462818565418,1.0889182426409931,-0.5719295136038846,2nd,4th,2nd,-0.32827222213067775,1.3011067738253426,-0.394388281659207
perc,resp,1651,1,2.3.1left.bmp,2.3.1right.bmp,,ACC020,"[0, 2, -2]","[0, 2, -2]",[],match,1.0,,-0.11468274724651079,-0.46644442864362085,-0.6314739261910651,2nd,2nd,2nd,-0.32827222213067775,-0.3882757721312387,-0.394388281659207
perc,resp,1462,1,2.1.3left.bmp,2.1.3right.bmp,,ACC020,"[0, -2, 2]","[0, -2, 2]",[],match,1.0,,0.3023477535963494,1.3876014488246096,-0.651463115689567,3rd,4th,2nd,0.31150369568263414,1.3011067738253426,-0.394388281659207
perc,resp,1181,0,3.1.1left.bmp,3.1.1right.bmp,,ACC020,"[2, -2, -2]","[2, -2, -2]",[],match,1.0,,0.11143690060645671,0.6877703172984488,-0.5472596585512534,3rd,3rd,2nd,0.31150369568263414,0.306075103404768,-0.394388281659207
perc,resp,1200,1,2.1.1left.bmp,2.1.1right.bmp,,ACC020,"[0, -2, -2]","[0, -2, -2]",[],match,1.0,,-0.03335584458938845,-0.00950083272792221,-0.7636638007675882,2nd,3rd,2nd,-0.32827222213067775,0.306075103404768,-0.394388281659207
perc,resp,1301,1,1.3.1left.bmp,3.2.3right.bmp,,ACC020,"[-2, 2, -2]","[2, 0, 2]",[],non-match,0.1339745962155613,1,2.7353340280428236,0.9780702665592882,-0.6818754905950533,4th,4th,2nd,1.2514167760449184,1.3011067738253426,-0.394388281659207
perc,resp,1644,1,2.2.3left.bmp,2.2.3right.bmp,,ACC020,"[0, 0, 2]","[0, 0, 2]",[],match,1.0,,2.5806995726695225,1.8116971463705716,-0.16272798896080765,4th,4th,2nd,1.2514167760449184,1.3011067738253426,-0.394388281659207
perc,resp,1224,0,1.3.2left.bmp,2.2.1right.bmp,,ACC020,"[-2, 2, 0]","[0, 0, -2]",[],non-match,0.5,3,-0.3944302084333413,-1.3666267922952926,-0.13813999454526746,2nd,1st,2nd,-0.32827222213067775,-1.2201707307715886,-0.394388281659207
perc,resp,1245,1,3.1.2left.bmp,2.3.1right.bmp,,ACC020,"[2, -2, 0]","[0, 2, -2]",[],non-match,0.29289321881345254,1,0.5278407634099315,-0.48732463269539766,0.266569667551063,3rd,2nd,3rd,0.31150369568263414,-0.3882757721312387,0.5168278400459945
perc,resp,1202,1,1.3.3left.bmp,1.3.3right.bmp,,ACC020,"[-2, 2, 2]","[-2, 2, 2]",[],match,1.0,,2.6974492778831465,0.989994944141335,0.076074643954529,4th,4th,2nd,1.2514167760449184,1.3011067738253426,-0.394388281659207
perc,resp,1209,1,3.1.3left.bmp,3.1.3right.bmp,,ACC020,"[2, -2, 2]","[2, -2, 2]",[],match,1.0,,0.9786880685957137,1.4308335922252813,0.3403187349921676,4th,4th,3rd,1.2514167760449184,1.3011067738253426,0.5168278400459945
perc,resp,906,1,3.3.2left.bmp,3.3.2right.bmp,,ACC020,"[2, 2, 0]","[2, 2, 0]",[],match,1.0,,0.3887837268336272,-1.4974352055876765,0.38814314410937734,3rd,1st,3rd,0.31150369568263414,-1.2201707307715886,0.5168278400459945
perc,resp,1668,0,2.2.2left.bmp,3.2.2right.bmp,,ACC020,"[0, 0, 0]","[2, 0, 0]",[],non-match,0.7113248654051871,4,0.7883125642556336,0.5367076960531173,0.4049357269768396,4th,3rd,3rd,1.2514167760449184,0.306075103404768,0.5168278400459945
perc,resp,955,0,1.1.3left.bmp,1.1.2right.bmp,,ACC020,"[-2, -2, 2]","[-2, -2, 0]",[],non-match,0.7113248654051871,4,2.536514630744106,1.272838077982309,0.6002192628014271,4th,4th,3rd,1.2514167760449184,1.3011067738253426,0.5168278400459945
perc,resp,1024,1,3.3.1left.bmp,1.3.1right.bmp,,ACC020,"[2, 2, -2]","[-2, 2, -2]",[],non-match,0.42264973081037416,2,0.801971877673561,-1.5327638278373992,0.5893331397828014,4th,1st,3rd,1.2514167760449184,-1.2201707307715886,0.5168278400459945
perc,resp,971,1,3.2.1left.bmp,3.2.1right.bmp,,ACC020,"[2, 0, -2]","[2, 0, -2]",[],match,1.0,,-1.0471382000787888,-0.019205976260353443,0.41811516953888983,1st,3rd,3rd,-1.234906226926845,0.306075103404768,0.5168278400459945
perc,resp,1167,1,2.2.1left.bmp,1.2.3right.bmp,,ACC020,"[0, 0, -2]","[-2, 0, 2]",[],non-match,0.3545027756320971,2,-0.04766707917279393,1.9924633842015211,0.665717571500047,2nd,4th,3rd,-0.32827222213067775,1.3011067738253426,0.5168278400459945
perc,resp,1478,1,1.1.1left.bmp,1.1.1right.bmp,,ACC020,"[-2, -2, -2]","[-2, -2, -2]",[],match,1.0,,0.6574999113523863,0.16404447184245008,0.8030201982096891,4th,3rd,3rd,1.2514167760449184,0.306075103404768,0.5168278400459945
perc,resp,1138,1,2.3.3left.bmp,1.2.2right.bmp,,ACC020,"[0, 2, 2]","[-2, 0, 0]",[],non-match,0.5,3,-0.08034583666379215,0.11327525828936494,0.8940745889382004,2nd,3rd,4th,-0.32827222213067775,0.306075103404768,1.215863286247705
perc,resp,1431,1,3.3.3left.bmp,2.2.3right.bmp,,ACC020,"[2, 2, 2]","[0, 0, 2]",[],non-match,0.5917517095361369,3,1.7894989030135413,-0.9454873682400681,0.8996234831556248,4th,1st,4th,1.2514167760449184,-1.2201707307715886,1.215863286247705
perc,resp,1220,1,1.1.2left.bmp,1.1.2right.bmp,,ACC020,"[-2, -2, 0]","[-2, -2, 0]",[],match,1.0,,0.72595890954718,0.2038158478501431,1.2787270283512502,4th,3rd,4th,1.2514167760449184,0.306075103404768,1.215863286247705
perc,resp,1331,1,3.2.2left.bmp,3.2.2right.bmp,,ACC020,"[2, 0, 0]","[2, 0, 0]",[],match,1.0,,-0.7327274471121666,-1.9019676546148296,1.2144698571715986,1st,1st,4th,-1.234906226926845,-1.2201707307715886,1.215863286247705
perc,resp,1518,1,1.2.2left.bmp,1.2.2right.bmp,,ACC020,"[-2, 0, 0]","[-2, 0, 0]",[],match,1.0,,-0.29654950846849787,-1.5911115092354784,1.6218030444543454,2nd,1st,4th,-0.32827222213067775,-1.2201707307715886,1.215863286247705
perc,resp,1639,1,2.1.2left.bmp,2.1.2right.bmp,,ACC020,"[0, -2, 0]","[0, -2, 0]",[],match,1.0,,-0.42704295423495314,0.6260527342008523,1.510480518549049,2nd,3rd,4th,-0.32827222213067775,0.306075103404768,1.215863286247705
perc,resp,1248,1,2.3.2left.bmp,1.1.1right.bmp,,ACC020,"[0, 2, 0]","[-2, -2, -2]",[],non-match,0.29289321881345254,1,0.7186567065237208,-1.0267228176048466,1.4069824467955725,4th,1st,4th,1.2514167760449184,-1.2201707307715886,1.215863286247705
perc,resp,1237,1,3.2.3left.bmp,3.2.3right.bmp,,ACC020,"[2, 0, 2]","[2, 0, 2]",[],match,1.0,,0.146959974041023,0.639028943064474,1.2128350624933097,3rd,3rd,4th,0.31150369568263414,0.306075103404768,1.215863286247705
perc,resp,1267,1,3.3.3left.bmp,3.3.3right.bmp,,ACC020,"[2, 2, 2]","[2, 2, 2]",[],match,1.0,,0.7255802623508388,0.29345071966265873,1.0049069812973015,4th,3rd,4th,1.2514167760449184,0.306075103404768,1.215863286247705
perc,resp,1046,1,3.1.2left.bmp,1.3.2right.bmp,,ACC020,"[2, -2, 0]","[-2, 2, 0]",[],non-match,0.18350341907227385,1,-0.2076441959727598,-0.3365026511059147,0.9690994753547617,2nd,2nd,4th,-0.32827222213067775,-0.3882757721312387,1.215863286247705
perc,resp,1303,1,3.1.1left.bmp,2.3.2right.bmp,,ACC020,"[2, -2, -2]","[0, 2, 0]",[],non-match,0.29289321881345254,1,-0.6453220727544123,0.7169013405284476,1.2071697910256256,2nd,3rd,4th,-0.32827222213067775,0.306075103404768,1.215863286247705
perc,resp,980,1,1.2.3left.bmp,2.2.1right.bmp,,ACC020,"[-2, 0, 2]","[0, 0, -2]",[],non-match,0.3545027756320971,2,1.1930693177502756,0.6746614963317592,1.2274094935201711,4th,3rd,4th,1.2514167760449184,0.306075103404768,1.215863286247705
perc,resp,2107,0,2.2.3left.bmp,1.1.3right.bmp,,ACC020,"[0, 0, 2]","[-2, -2, 2]",[],non-match,0.5917517095361369,3,0.24048818789755766,1.5251165132686468,1.2495059640892299,3rd,4th,4th,0.31150369568263414,1.3011067738253426,1.215863286247705
perc,resp,2275,0,2.1.3left.bmp,2.1.3right.bmp,,ACC020,"[0, -2, 2]","[0, -2, 2]",[],match,1.0,,0.11364554106888972,0.5680349391087514,1.0555475164877912,3rd,3rd,4th,0.31150369568263414,0.306075103404768,1.215863286247705
perc,resp,1215,1,2.2.2left.bmp,3.3.2right.bmp,,ACC020,"[0, 0, 0]","[2, 2, 0]",[],non-match,0.5917517095361369,3,-0.724364973067644,-0.6808276104269912,1.1575636192645218,1st,2nd,4th,-1.234906226926845,-0.3882757721312387,1.215863286247705
perc,resp,1154,1,3.2.2left.bmp,3.2.2right.bmp,,ACC020,"[2, 0, 0]","[2, 0, 0]",[],match,1.0,,0.557556276846593,1.6509238519371212,1.1474574835873077,3rd,4th,4th,0.31150369568263414,1.3011067738253426,1.215863286247705
perc,resp,1031,0,1.1.1left.bmp,2.1.2right.bmp,,ACC020,"[-2, -2, -2]","[0, -2, 0]",[],non-match,0.5917517095361369,3,0.5914132540529281,0.5593270764520945,1.0695421478176146,3rd,3rd,4th,0.31150369568263414,0.306075103404768,1.215863286247705
perc,resp,1412,1,1.2.2left.bmp,1.2.2right.bmp,,ACC020,"[-2, 0, 0]","[-2, 0, 0]",[],match,1.0,,-1.0119594297043608,-0.5262596109177956,0.955057254051655,1st,2nd,4th,-1.234906226926845,-0.3882757721312387,1.215863286247705
perc,resp,1685,1,3.2.3left.bmp,3.3.3right.bmp,,ACC020,"[2, 0, 2]","[2, 2, 2]",[],non-match,0.7113248654051871,4,0.6488767813019972,0.7281461195445035,1.2774997730438242,4th,4th,4th,1.2514167760449184,1.3011067738253426,1.215863286247705
perc,resp,1014,0,2.3.2left.bmp,2.3.2right.bmp,,ACC020,"[0, 2, 0]","[0, 2, 0]",[],match,1.0,,0.5405562961507211,2.0094805757715815,1.3106646860650975,3rd,4th,4th,0.31150369568263414,1.3011067738253426,1.215863286247705
perc,resp,1183,1,3.3.1left.bmp,2.2.2right.bmp,,ACC020,"[2, 2, -2]","[0, 0, 0]",[],non-match,0.5,3,0.12746373028588337,-0.10996386634464043,1.6695974924622323,3rd,2nd,4th,0.31150369568263414,-0.3882757721312387,1.215863286247705
