mode,type,rt,acc,item_1,item_2,item_cue,subj_idx,item_1_number,item_2_number,item_cue_number,trial_type,similarity,similarity_bin,ams,pams,slps,ams_quantile,pams_quantile,slps_quantile,ams_bin,pam_bin,slp_bin
perc,resp,1964,1,3.3.3left.bmp,3.3.3right.bmp,,ACC036,"[2, 2, 2]","[2, 2, 2]",[],match,1.0,,1.2435185689593373,1.8796475890819182,2.146765998574314,4th,4th,4th,1.2543612393618142,1.3339652745816208,1.326459519563121
perc,resp,2146,0,1.1.2left.bmp,1.1.2right.bmp,,ACC036,"[-2, -2, 0]","[-2, -2, 0]",[],match,1.0,,0.4052156905637662,-0.8961462691518745,1.757561995829311,3rd,1st,4th,0.36692346605582293,-1.224542510433508,1.326459519563121
perc,resp,3196,0,2.1.3left.bmp,2.3.3right.bmp,,ACC036,"[0, -2, 2]","[0, 2, 2]",[],non-match,0.42264973081037416,2,0.6534798598800363,1.7385031518748386,1.4927053000012154,3rd,4th,4th,0.36692346605582293,1.3339652745816208,1.326459519563121
perc,resp,2043,1,2.2.2left.bmp,2.2.2right.bmp,,ACC036,"[0, 0, 0]","[0, 0, 0]",[],match,1.0,,-1.5971176812740533,0.31934231375308797,1.939307969684404,1st,3rd,4th,-1.2518643843611799,0.2567778350937214,1.326459519563121
perc,resp,1590,1,3.3.1left.bmp,1.1.2right.bmp,,ACC036,"[2, 2, -2]","[-2, -2, 0]",[],non-match,0.1339745962155613,1,1.50496353921856,1.3858084090032836,1.7862226552569678,4th,4th,4th,1.2543612393618142,1.3339652745816208,1.326459519563121
perc,resp,1346,1,3.2.1left.bmp,3.2.1right.bmp,,ACC036,"[2, 0, -2]","[2, 0, -2]",[],match,1.0,,1.1473372863497424,-0.11491446485035042,1.763562652401694,4th,2nd,4th,1.2543612393618142,-0.36802431197763696,1.326459519563121
perc,resp,1773,1,2.3.2left.bmp,2.1.1right.bmp,,ACC036,"[0, 2, 0]","[0, -2, -2]",[],non-match,0.3545027756320971,2,0.6484681187561675,0.4224555209536858,1.6713106267005933,3rd,3rd,4th,0.36692346605582293,0.2567778350937214,1.326459519563121
perc,resp,1361,1,2.2.1left.bmp,2.2.1right.bmp,,ACC036,"[0, 0, -2]","[0, 0, -2]",[],match,1.0,,0.26199892738591324,-0.8743106837452967,1.5031177923375314,3rd,1st,4th,0.36692346605582293,-1.224542510433508,1.326459519563121
perc,resp,1628,0,1.3.1left.bmp,1.2.3right.bmp,,ACC036,"[-2, 2, -2]","[-2, 0, 2]",[],non-match,0.3545027756320971,2,0.8905557744746236,-0.20901646902268228,1.6118419758950715,4th,2nd,4th,1.2543612393618142,-0.36802431197763696,1.326459519563121
perc,resp,1573,1,1.3.2left.bmp,2.1.2right.bmp,,ACC036,"[-2, 2, 0]","[0, -2, 0]",[],non-match,0.3545027756320971,2,0.8020981313745945,1.5846457447726268,0.7889608688992222,4th,4th,4th,1.2543612393618142,1.3339652745816208,1.326459519563121
perc,resp,2379,0,1.1.3left.bmp,3.2.3right.bmp,,ACC036,"[-2, -2, 2]","[2, 0, 2]",[],non-match,0.3545027756320971,2,0.6410211582241072,0.18560979235889136,0.87739811980451,3rd,3rd,4th,0.36692346605582293,0.2567778350937214,1.326459519563121
perc,resp,1797,1,1.1.1left.bmp,1.1.1right.bmp,,ACC036,"[-2, -2, -2]","[-2, -2, -2]",[],match,1.0,,-0.2944033122942748,-1.1937815008668942,0.6001422544781705,2nd,1st,3rd,-0.36946193530646787,-1.224542510433508,0.372129757162675
perc,resp,2169,1,3.3.2left.bmp,3.3.2right.bmp,,ACC036,"[2, 2, 0]","[2, 2, 0]",[],match,1.0,,1.3516974571103364,1.3839458627915107,0.6143347860550844,4th,4th,3rd,1.2543612393618142,1.3339652745816208,0.372129757162675
perc,resp,1143,1,3.1.2left.bmp,1.3.3right.bmp,,ACC036,"[2, -2, 0]","[-2, 2, 2]",[],non-match,0.1339745962155613,1,0.7423599906617255,0.06573667715592044,0.947574358255207,4th,3rd,4th,1.2543612393618142,0.2567778350937214,1.326459519563121
perc,resp,1236,0,3.2.2left.bmp,3.3.3right.bmp,,ACC036,"[2, 0, 0]","[2, 2, 2]",[],non-match,0.5917517095361369,3,-0.580736307800733,0.11544846319357076,1.2239085019171831,2nd,3rd,4th,-0.36946193530646787,0.2567778350937214,1.326459519563121
perc,resp,2147,1,3.2.3left.bmp,3.2.3right.bmp,,ACC036,"[2, 0, 2]","[2, 0, 2]",[],match,1.0,,0.6766180279147345,0.24589673276535992,1.5655134234867187,3rd,3rd,4th,0.36692346605582293,0.2567778350937214,1.326459519563121
perc,resp,1281,1,1.2.2left.bmp,1.2.2right.bmp,,ACC036,"[-2, 0, 0]","[-2, 0, 0]",[],match,1.0,,0.9382402596870347,0.621663221199348,1.9031570825647959,4th,3rd,4th,1.2543612393618142,0.2567778350937214,1.326459519563121
perc,resp,1446,1,2.1.2left.bmp,2.1.2right.bmp,,ACC036,"[0, -2, 0]","[0, -2, 0]",[],match,1.0,,-0.48445361887041793,-1.4150326756707607,1.5112050920986144,2nd,1st,4th,-0.36946193530646787,-1.224542510433508,1.326459519563121
perc,resp,1502,1,2.3.1left.bmp,1.2.3right.bmp,,ACC036,"[0, 2, -2]","[-2, 0, 2]",[],non-match,0.29289321881345254,1,-1.5999375968274803,-1.3367314038490747,1.1418409511096577,1st,1st,4th,-1.2518643843611799,-1.224542510433508,1.326459519563121
perc,resp,1385,1,1.3.3left.bmp,3.3.2right.bmp,,ACC036,"[-2, 2, 2]","[2, 2, 0]",[],non-match,0.3545027756320971,2,0.16513368703010559,-0.09474588280382887,1.297051700835026,3rd,2nd,4th,0.36692346605582293,-0.36802431197763696,1.326459519563121
perc,resp,1228,0,3.1.1left.bmp,3.2.1right.bmp,,ACC036,"[2, -2, -2]","[2, 0, -2]",[],non-match,0.7113248654051871,4,-0.2254696048846322,-1.289636955487039,1.1545442247875743,2nd,1st,4th,-0.36946193530646787,-1.224542510433508,1.326459519563121
perc,resp,2412,1,1.2.1left.bmp,1.2.1right.bmp,,ACC036,"[-2, 0, -2]","[-2, 0, -2]",[],match,1.0,,-0.13289897420570526,-0.039378061018883324,1.4817806629672396,2nd,2nd,4th,-0.36946193530646787,-0.36802431197763696,1.326459519563121
perc,resp,1610,1,3.1.3left.bmp,2.3.1right.bmp,,ACC036,"[2, -2, 2]","[0, 2, -2]",[],non-match,0.1339745962155613,1,1.1363877402267577,0.4736459204660488,1.4529075678781265,4th,3rd,4th,1.2543612393618142,0.2567778350937214,1.326459519563121
perc,resp,1737,1,2.1.1left.bmp,2.1.1right.bmp,,ACC036,"[0, -2, -2]","[0, -2, -2]",[],match,1.0,,-0.9082155219003186,0.7173363134909453,1.3787437942417133,1st,3rd,4th,-1.2518643843611799,0.2567778350937214,1.326459519563121
perc,resp,2119,1,1.2.3left.bmp,1.2.3right.bmp,,ACC036,"[-2, 0, 2]","[-2, 0, 2]",[],match,1.0,,1.1493847873162846,0.14618959748239943,1.7284749185557324,4th,3rd,4th,1.2543612393618142,0.2567778350937214,1.326459519563121
perc,resp,1473,1,2.3.3left.bmp,2.3.3right.bmp,,ACC036,"[0, 2, 2]","[0, 2, 2]",[],match,1.0,,1.4930324851873604,1.2639708548545663,1.3763195896466591,4th,4th,4th,1.2543612393618142,1.3339652745816208,1.326459519563121
perc,resp,1156,1,1.2.1left.bmp,1.1.3right.bmp,,ACC036,"[-2, 0, -2]","[-2, -2, 2]",[],non-match,0.3545027756320971,2,0.3138049418138879,-0.4787272820149633,1.279833377962836,3rd,2nd,4th,0.36692346605582293,-0.36802431197763696,1.326459519563121
perc,resp,1265,1,1.2.3left.bmp,1.2.3right.bmp,,ACC036,"[-2, 0, 2]","[-2, 0, 2]",[],match,1.0,,-0.6923170581066361,0.2148554100626385,0.7235573444547004,1st,3rd,3rd,-1.2518643843611799,0.2567778350937214,0.372129757162675
perc,resp,1328,1,2.3.1left.bmp,2.3.1right.bmp,,ACC036,"[0, 2, -2]","[0, 2, -2]",[],match,1.0,,1.1902751338578372,-0.4489330321862411,0.621271217647247,4th,2nd,3rd,1.2543612393618142,-0.36802431197763696,0.372129757162675
perc,resp,1219,1,2.1.3left.bmp,2.1.3right.bmp,,ACC036,"[0, -2, 2]","[0, -2, 2]",[],match,1.0,,-0.5609588510855189,-1.0114588472211608,0.8951441397392649,2nd,1st,4th,-0.36946193530646787,-1.224542510433508,1.326459519563121
perc,resp,1048,1,3.1.1left.bmp,3.1.1right.bmp,,ACC036,"[2, -2, -2]","[2, -2, -2]",[],match,1.0,,-0.6239246938337835,0.34320723331876657,1.2452744620695575,2nd,3rd,4th,-0.36946193530646787,0.2567778350937214,1.326459519563121
perc,resp,1965,0,2.1.1left.bmp,2.1.1right.bmp,,ACC036,"[0, -2, -2]","[0, -2, -2]",[],match,1.0,,-1.006545664030303,-0.9099971834305135,1.9922907142214632,1st,1st,4th,-1.2518643843611799,-1.224542510433508,1.326459519563121
perc,resp,1147,1,1.3.1left.bmp,3.2.3right.bmp,,ACC036,"[-2, 2, -2]","[2, 0, 2]",[],non-match,0.1339745962155613,1,-0.583531468526643,1.4177985098669605,2.0598245294859545,2nd,4th,4th,-0.36946193530646787,1.3339652745816208,1.326459519563121
perc,resp,2226,0,2.2.3left.bmp,2.2.3right.bmp,,ACC036,"[0, 0, 2]","[0, 0, 2]",[],match,1.0,,0.061506285514559736,-1.1041720806476942,1.86030884282523,3rd,1st,4th,0.36692346605582293,-1.224542510433508,1.326459519563121
perc,resp,1562,1,1.3.2left.bmp,2.2.1right.bmp,,ACC036,"[-2, 2, 0]","[0, 0, -2]",[],non-match,0.5,3,-0.657690756210127,-0.913919440664657,2.122981434349185,1st,1st,4th,-1.2518643843611799,-1.224542510433508,1.326459519563121
perc,resp,1131,1,3.1.2left.bmp,2.3.1right.bmp,,ACC036,"[2, -2, 0]","[0, 2, -2]",[],non-match,0.29289321881345254,1,-0.6028846190629702,-0.29508121177452123,1.860760746886886,2nd,2nd,4th,-0.36946193530646787,-0.36802431197763696,1.326459519563121
perc,resp,1030,1,1.3.3left.bmp,1.3.3right.bmp,,ACC036,"[-2, 2, 2]","[-2, 2, 2]",[],match,1.0,,-0.07856883524999188,0.534989760089545,1.0901489792399155,2nd,3rd,4th,-0.36946193530646787,0.2567778350937214,1.326459519563121
perc,resp,1774,0,3.1.3left.bmp,3.1.3right.bmp,,ACC036,"[2, -2, 2]","[2, -2, 2]",[],match,1.0,,-1.0057765450847371,0.18310680789284697,1.267364007794397,1st,3rd,4th,-1.2518643843611799,0.2567778350937214,1.326459519563121
perc,resp,1903,1,3.3.2left.bmp,3.3.2right.bmp,,ACC036,"[2, 2, 0]","[2, 2, 0]",[],match,1.0,,0.48954599336866983,-0.16918700922111715,1.3340400162632433,3rd,2nd,4th,0.36692346605582293,-0.36802431197763696,1.326459519563121
perc,resp,1579,0,2.2.2left.bmp,3.2.2right.bmp,,ACC036,"[0, 0, 0]","[2, 0, 0]",[],non-match,0.7113248654051871,4,-0.3199610164787525,-0.416691293214553,1.4120767719968843,2nd,2nd,4th,-0.36946193530646787,-0.36802431197763696,1.326459519563121
perc,resp,2540,0,1.1.3left.bmp,1.1.2right.bmp,,ACC036,"[-2, -2, 2]","[-2, -2, 0]",[],non-match,0.7113248654051871,4,-1.0885752274727003,-0.959733310600987,1.3038740112877198,1st,1st,4th,-1.2518643843611799,-1.224542510433508,1.326459519563121
perc,resp,1355,0,3.3.1left.bmp,1.3.1right.bmp,,ACC036,"[2, 2, -2]","[-2, 2, -2]",[],non-match,0.42264973081037416,2,0.08476589335055544,1.0256510573350421,1.641852514898197,3rd,4th,4th,0.36692346605582293,1.3339652745816208,1.326459519563121
perc,resp,3060,1,3.2.1left.bmp,3.2.1right.bmp,,ACC036,"[2, 0, -2]","[2, 0, -2]",[],match,1.0,,0.006306711121613157,0.893962618942411,1.4168160099117697,3rd,4th,4th,0.36692346605582293,1.3339652745816208,1.326459519563121
perc,resp,1162,1,2.2.1left.bmp,1.2.3right.bmp,,ACC036,"[0, 0, -2]","[-2, 0, 2]",[],non-match,0.3545027756320971,2,-0.933142138863063,-0.07412346286965257,0.8682136967016879,1st,2nd,4th,-1.2518643843611799,-0.36802431197763696,1.326459519563121
perc,resp,1625,1,1.1.1left.bmp,1.1.1right.bmp,,ACC036,"[-2, -2, -2]","[-2, -2, -2]",[],match,1.0,,-0.5471052194379614,0.15526384183779157,1.037904712919015,2nd,3rd,4th,-0.36946193530646787,0.2567778350937214,1.326459519563121
perc,resp,1409,1,2.3.3left.bmp,1.2.2right.bmp,,ACC036,"[0, 2, 2]","[-2, 0, 0]",[],non-match,0.5,3,0.7540883682883567,-0.7044939041980742,1.2597875520967785,4th,2nd,4th,1.2543612393618142,-0.36802431197763696,1.326459519563121
perc,resp,2300,1,3.3.3left.bmp,2.2.3right.bmp,,ACC036,"[2, 2, 2]","[0, 0, 2]",[],non-match,0.5917517095361369,3,1.3046044548915559,0.22387675046161765,0.8038202578403897,4th,3rd,4th,1.2543612393618142,0.2567778350937214,1.326459519563121
perc,resp,2196,1,1.1.2left.bmp,1.1.2right.bmp,,ACC036,"[-2, -2, 0]","[-2, -2, 0]",[],match,1.0,,-0.32663323955638646,0.1649156282026349,0.8632010512848963,2nd,3rd,4th,-0.36946193530646787,0.2567778350937214,1.326459519563121
perc,resp,1481,1,3.2.2left.bmp,3.2.2right.bmp,,ACC036,"[2, 0, 0]","[2, 0, 0]",[],match,1.0,,0.42698522231832226,-0.7297965567227458,1.2177274610456668,3rd,2nd,4th,0.36692346605582293,-0.36802431197763696,1.326459519563121
perc,resp,1143,1,1.2.2left.bmp,1.2.2right.bmp,,ACC036,"[-2, 0, 0]","[-2, 0, 0]",[],match,1.0,,0.5040671347975022,1.4085438444251446,1.1832293095669284,3rd,4th,4th,0.36692346605582293,1.3339652745816208,1.326459519563121
perc,resp,2241,1,2.1.2left.bmp,2.1.2right.bmp,,ACC036,"[0, -2, 0]","[0, -2, 0]",[],match,1.0,,-1.3177177593914966,-0.0993917451916644,0.7291476410449234,1st,2nd,4th,-1.2518643843611799,-0.36802431197763696,1.326459519563121
perc,resp,1091,1,2.3.2left.bmp,1.1.1right.bmp,,ACC036,"[0, 2, 0]","[-2, -2, -2]",[],non-match,0.29289321881345254,1,0.4896918460746188,1.2224380490861166,0.27434660844720654,3rd,4th,3rd,0.36692346605582293,1.3339652745816208,0.372129757162675
perc,resp,1512,1,3.2.3left.bmp,3.2.3right.bmp,,ACC036,"[2, 0, 2]","[2, 0, 2]",[],match,1.0,,-1.103162756589982,-0.907127921313674,0.3794156071218443,1st,1st,3rd,-1.2518643843611799,-1.224542510433508,0.372129757162675
perc,resp,1405,1,3.3.3left.bmp,3.3.3right.bmp,,ACC036,"[2, 2, 2]","[2, 2, 2]",[],match,1.0,,0.7829458525398549,-1.5164446640971594,0.7227578106219034,4th,1st,3rd,1.2543612393618142,-1.224542510433508,0.372129757162675
perc,resp,1089,1,3.1.2left.bmp,1.3.2right.bmp,,ACC036,"[2, -2, 0]","[-2, 2, 0]",[],non-match,0.18350341907227385,1,2.0327925055663214,0.3605057195360418,0.6337181661159912,4th,3rd,3rd,1.2543612393618142,0.2567778350937214,0.372129757162675
perc,resp,1816,1,3.1.1left.bmp,2.3.2right.bmp,,ACC036,"[2, -2, -2]","[0, 2, 0]",[],non-match,0.29289321881345254,1,-1.359991936584392,-0.7960554252367628,0.723229052783571,1st,1st,3rd,-1.2518643843611799,-1.224542510433508,0.372129757162675
perc,resp,1903,1,1.2.3left.bmp,2.2.1right.bmp,,ACC036,"[-2, 0, 2]","[0, 0, -2]",[],non-match,0.3545027756320971,2,-0.8450076426108833,-1.2196366554210292,0.45455790520798317,1st,1st,3rd,-1.2518643843611799,-1.224542510433508,0.372129757162675
perc,resp,1415,1,2.2.3left.bmp,1.1.3right.bmp,,ACC036,"[0, 0, 2]","[-2, -2, 2]",[],non-match,0.5917517095361369,3,0.624296334148615,-1.324106098660279,0.29652341358891854,3rd,1st,3rd,0.36692346605582293,-1.224542510433508,0.372129757162675
perc,resp,1449,0,1.2.2left.bmp,1.3.3right.bmp,,ACC036,"[-2, 0, 0]","[-2, 2, 2]",[],non-match,0.5917517095361369,3,-1.2726120608642564,-0.42629660011270804,0.355955996794738,1st,2nd,3rd,-1.2518643843611799,-0.36802431197763696,0.372129757162675
perc,resp,1412,1,2.3.1left.bmp,2.3.1right.bmp,,ACC036,"[0, 2, -2]","[0, 2, -2]",[],match,1.0,,-0.15930479726189903,-1.403700016792591,0.1932027866266795,2nd,1st,3rd,-0.36946193530646787,-1.224542510433508,0.372129757162675
perc,resp,1373,1,1.1.2left.bmp,1.1.2right.bmp,,ACC036,"[-2, -2, 0]","[-2, -2, 0]",[],match,1.0,,-0.47240047146369707,-0.9408176654803103,0.689583034437588,2nd,1st,3rd,-0.36946193530646787,-1.224542510433508,0.372129757162675
perc,resp,1144,1,1.2.1left.bmp,1.2.1right.bmp,,ACC036,"[-2, 0, -2]","[-2, 0, -2]",[],match,1.0,,1.0499241240114998,1.3234394627598616,0.8257234610350149,4th,4th,4th,1.2543612393618142,1.3339652745816208,1.326459519563121
perc,resp,1043,1,3.3.2left.bmp,3.3.2right.bmp,,ACC036,"[2, 2, 0]","[2, 2, 0]",[],match,1.0,,0.9849464730026795,-0.14863273710255975,1.0856016128063757,4th,2nd,4th,1.2543612393618142,-0.36802431197763696,1.326459519563121
perc,resp,902,1,1.2.3left.bmp,1.2.3right.bmp,,ACC036,"[-2, 0, 2]","[-2, 0, 2]",[],match,1.0,,-0.6086520150406608,-0.07544851387528774,1.0692399639651409,2nd,2nd,4th,-0.36946193530646787,-0.36802431197763696,1.326459519563121
perc,resp,1283,1,2.1.1left.bmp,2.1.1right.bmp,,ACC036,"[0, -2, -2]","[0, -2, -2]",[],match,1.0,,2.5084638147972567,1.3331476023618607,0.5751302359058216,4th,4th,3rd,1.2543612393618142,1.3339652745816208,0.372129757162675
perc,resp,989,1,2.1.2left.bmp,2.1.2right.bmp,,ACC036,"[0, -2, 0]","[0, -2, 0]",[],match,1.0,,0.5617331718964679,0.23845110591007454,0.004535211579673841,3rd,3rd,3rd,0.36692346605582293,0.2567778350937214,0.372129757162675
perc,resp,1070,1,2.2.2left.bmp,1.2.2right.bmp,,ACC036,"[0, 0, 0]","[-2, 0, 0]",[],non-match,0.7113248654051871,4,1.3535309828699624,0.7559670644545478,-0.3849371571047859,4th,4th,2nd,1.2543612393618142,1.3339652745816208,-0.48147929031754316
perc,resp,1219,0,2.2.1left.bmp,3.2.3right.bmp,,ACC036,"[0, 0, -2]","[2, 0, 2]",[],non-match,0.3545027756320971,2,-0.13261389149922417,0.03360195171058756,-0.5230779059602702,2nd,3rd,2nd,-0.36946193530646787,0.2567778350937214,-0.48147929031754316
perc,resp,1330,1,3.1.1left.bmp,1.1.1right.bmp,,ACC036,"[2, -2, -2]","[-2, -2, -2]",[],non-match,0.42264973081037416,2,0.021832638995533254,-1.33026411254564,0.06104140614825095,3rd,1st,3rd,0.36692346605582293,-1.224542510433508,0.372129757162675
perc,resp,1978,1,2.3.3left.bmp,2.3.3right.bmp,,ACC036,"[0, 2, 2]","[0, 2, 2]",[],match,1.0,,0.019409498072421583,1.262482923417658,0.3087521067725186,3rd,4th,3rd,0.36692346605582293,1.3339652745816208,0.372129757162675
perc,resp,1177,1,3.3.1left.bmp,1.2.3right.bmp,,ACC036,"[2, 2, -2]","[-2, 0, 2]",[],non-match,0.1339745962155613,1,0.7444605502643276,0.22564842202103114,-0.39547467019518606,4th,3rd,2nd,1.2543612393618142,0.2567778350937214,-0.48147929031754316
perc,resp,1210,1,1.3.3left.bmp,2.2.2right.bmp,,ACC036,"[-2, 2, 2]","[0, 0, 0]",[],non-match,0.5,3,-0.35812758074233214,-0.023795387629754527,-0.447998779278461,2nd,2nd,2nd,-0.36946193530646787,-0.36802431197763696,-0.48147929031754316
perc,resp,1551,1,1.3.1left.bmp,1.1.2right.bmp,,ACC036,"[-2, 2, -2]","[-2, -2, 0]",[],non-match,0.3545027756320971,2,2.4241497114010944,1.4668826575878822,-0.6975108899628811,4th,4th,2nd,1.2543612393618142,1.3339652745816208,-0.48147929031754316
perc,resp,1172,1,3.1.3left.bmp,1.2.2right.bmp,,ACC036,"[2, -2, 2]","[-2, 0, 0]",[],non-match,0.29289321881345254,1,0.8430760693929046,-0.6369519083563574,-1.0071409981525679,4th,2nd,1st,1.2543612393618142,-0.36802431197763696,-1.2189026017058746
perc,resp,1241,1,1.1.1left.bmp,1.1.1right.bmp,,ACC036,"[-2, -2, -2]","[-2, -2, -2]",[],match,1.0,,-0.08068766432806887,-0.9011369896270788,-0.6530191194217698,2nd,1st,2nd,-0.36946193530646787,-1.224542510433508,-0.48147929031754316
perc,resp,1082,1,3.2.3left.bmp,1.3.2right.bmp,,ACC036,"[2, 0, 2]","[-2, 2, 0]",[],non-match,0.29289321881345254,1,0.8378201286657554,1.0156043978012097,-0.651632853587743,4th,4th,2nd,1.2543612393618142,1.3339652745816208,-0.48147929031754316
perc,resp,1303,1,3.3.3left.bmp,2.1.3right.bmp,,ACC036,"[2, 2, 2]","[0, -2, 2]",[],non-match,0.3545027756320971,2,-1.3524505526427797,0.1892629893478132,-0.5806362136282831,1st,3rd,2nd,-1.2518643843611799,0.2567778350937214,-0.48147929031754316
perc,resp,1162,1,1.1.3left.bmp,3.3.2right.bmp,,ACC036,"[-2, -2, 2]","[2, 2, 0]",[],non-match,0.1339745962155613,1,-0.24568676352801316,0.39653876976524743,-0.7158526529855491,2nd,3rd,2nd,-0.36946193530646787,0.2567778350937214,-0.48147929031754316
perc,resp,1103,0,3.2.1left.bmp,3.3.1right.bmp,,ACC036,"[2, 0, -2]","[2, 2, -2]",[],non-match,0.7113248654051871,4,0.4427435521402419,0.29014918723637567,-0.2941969487178281,3rd,3rd,2nd,0.36692346605582293,0.2567778350937214,-0.48147929031754316
perc,resp,1698,1,2.3.2left.bmp,2.3.2right.bmp,,ACC036,"[0, 2, 0]","[0, 2, 0]",[],match,1.0,,-1.845672720209869,-0.49470283388294184,-0.41172453005839194,1st,2nd,2nd,-1.2518643843611799,-0.36802431197763696,-0.48147929031754316
perc,resp,2380,1,1.3.2left.bmp,1.3.2right.bmp,,ACC036,"[-2, 2, 0]","[-2, 2, 0]",[],match,1.0,,-0.7096037714412399,0.0475025857977027,-0.4662252142209428,1st,3rd,2nd,-1.2518643843611799,0.2567778350937214,-0.48147929031754316
perc,resp,1384,1,3.1.2left.bmp,3.1.2right.bmp,,ACC036,"[2, -2, 0]","[2, -2, 0]",[],match,1.0,,0.5935406677546609,0.005264720889790775,-0.6236609832714107,3rd,3rd,2nd,0.36692346605582293,0.2567778350937214,-0.48147929031754316
perc,resp,1301,1,3.2.2left.bmp,1.3.1right.bmp,,ACC036,"[2, 0, 0]","[-2, 2, -2]",[],non-match,0.29289321881345254,1,-0.48831983668836587,0.5086025989359513,-0.7295711500880765,2nd,3rd,2nd,-0.36946193530646787,0.2567778350937214,-0.48147929031754316
perc,resp,2522,1,2.1.3left.bmp,2.1.3right.bmp,,ACC036,"[0, -2, 2]","[0, -2, 2]",[],match,1.0,,-2.1609007581303823,-0.8908940204508901,-0.9605262308268251,1st,1st,1st,-1.2518643843611799,-1.224542510433508,-1.2189026017058746
perc,resp,1606,1,2.2.3left.bmp,2.2.3right.bmp,,ACC036,"[0, 0, 2]","[0, 0, 2]",[],match,1.0,,0.49693901136662344,-0.153072860519848,-0.9316312747157841,3rd,2nd,1st,0.36692346605582293,-0.36802431197763696,-1.2189026017058746
perc,resp,1618,1,3.2.2left.bmp,3.2.2right.bmp,,ACC036,"[2, 0, 0]","[2, 0, 0]",[],match,1.0,,0.09851869246829102,-0.281905282197164,-1.3643195791686622,3rd,2nd,1st,0.36692346605582293,-0.36802431197763696,-1.2189026017058746
perc,resp,1562,1,2.2.1left.bmp,2.2.1right.bmp,,ACC036,"[0, 0, -2]","[0, 0, -2]",[],match,1.0,,-0.35770868815546586,-1.1356931140684001,-1.542077903475967,2nd,1st,1st,-0.36946193530646787,-1.224542510433508,-1.2189026017058746
perc,resp,1193,1,3.1.1left.bmp,3.1.1right.bmp,,ACC036,"[2, -2, -2]","[2, -2, -2]",[],match,1.0,,0.7337434151932294,0.35555611610158494,-1.4964723916842022,4th,3rd,1st,1.2543612393618142,0.2567778350937214,-1.2189026017058746
perc,resp,1334,1,1.1.3left.bmp,1.3.1right.bmp,,ACC036,"[-2, -2, 2]","[-2, 2, -2]",[],non-match,0.18350341907227385,1,-0.039774931389272634,-1.2014912680999648,-1.4368995152098019,2nd,1st,1st,-0.36946193530646787,-1.224542510433508,-1.2189026017058746
perc,resp,1235,1,3.1.3left.bmp,3.1.3right.bmp,,ACC036,"[2, -2, 2]","[2, -2, 2]",[],match,1.0,,0.6328851442302278,-0.5074266747339691,-1.345464061167795,3rd,2nd,1st,0.36692346605582293,-0.36802431197763696,-1.2189026017058746
perc,resp,1982,0,1.1.1left.bmp,2.1.2right.bmp,,ACC036,"[-2, -2, -2]","[0, -2, 0]",[],non-match,0.5917517095361369,3,0.5670428573561247,2.0870428028884764,-0.827558497506583,3rd,4th,1st,0.36692346605582293,1.3339652745816208,-1.2189026017058746
perc,resp,1496,1,1.3.2left.bmp,1.3.2right.bmp,,ACC036,"[-2, 2, 0]","[-2, 2, 0]",[],match,1.0,,0.47405025778591603,0.11322341555778688,-0.8043889406423068,3rd,3rd,2nd,0.36692346605582293,0.2567778350937214,-0.48147929031754316
perc,resp,1913,1,2.1.3left.bmp,2.2.1right.bmp,,ACC036,"[0, -2, 2]","[0, 0, -2]",[],non-match,0.3545027756320971,2,1.0690993580921218,0.720254290568035,-1.5442151932368506,4th,4th,1st,1.2543612393618142,1.3339652745816208,-1.2189026017058746
perc,resp,1252,1,2.3.2left.bmp,3.1.2right.bmp,,ACC036,"[0, 2, 0]","[2, -2, 0]",[],non-match,0.3545027756320971,2,0.22268983503994688,0.26140598751529137,-1.1501673815604088,3rd,3rd,1st,0.36692346605582293,0.2567778350937214,-1.2189026017058746
perc,resp,909,1,1.2.3left.bmp,3.3.1right.bmp,,ACC036,"[-2, 0, 2]","[2, 2, -2]",[],non-match,0.1339745962155613,1,1.149300283685504,0.964257064188711,-0.5013532851852174,4th,4th,2nd,1.2543612393618142,1.3339652745816208,-0.48147929031754316
perc,resp,1090,1,2.2.2left.bmp,2.2.2right.bmp,,ACC036,"[0, 0, 0]","[0, 0, 0]",[],match,1.0,,0.5641013899267613,1.5649883755572964,-0.64630888220857,3rd,4th,2nd,0.36692346605582293,1.3339652745816208,-0.48147929031754316
perc,resp,1035,0,2.3.3left.bmp,2.2.3right.bmp,,ACC036,"[0, 2, 2]","[0, 0, 2]",[],non-match,0.7113248654051871,4,1.4338007192730995,-1.1534004769623234,-0.9671340867222559,4th,1st,1st,1.2543612393618142,-1.224542510433508,-1.2189026017058746
perc,resp,1486,0,3.3.2left.bmp,3.2.1right.bmp,,ACC036,"[2, 2, 0]","[2, 0, -2]",[],non-match,0.5917517095361369,3,1.3576627676570387,-0.632658821769491,-0.5266829966697004,4th,2nd,2nd,1.2543612393618142,-0.36802431197763696,-0.48147929031754316
perc,resp,1207,0,3.2.3left.bmp,2.2.1right.bmp,,ACC036,"[2, 0, 2]","[0, 0, -2]",[],non-match,0.3545027756320971,2,0.6493583672486126,2.107638964968658,0.008946261279356289,3rd,4th,3rd,0.36692346605582293,1.3339652745816208,0.372129757162675
perc,resp,1086,1,1.3.1left.bmp,1.3.1right.bmp,,ACC036,"[-2, 2, -2]","[-2, 2, -2]",[],match,1.0,,0.04604307236188079,0.01607417823409359,0.40181113152826414,3rd,3rd,3rd,0.36692346605582293,0.2567778350937214,0.372129757162675
perc,resp,1187,1,2.1.1left.bmp,1.2.1right.bmp,,ACC036,"[0, -2, -2]","[-2, 0, -2]",[],non-match,0.5917517095361369,3,1.6376049201748561,0.7572610514993724,0.22948097971509945,4th,4th,3rd,1.2543612393618142,1.3339652745816208,0.372129757162675
perc,resp,1064,1,3.2.1left.bmp,1.2.2right.bmp,,ACC036,"[2, 0, -2]","[-2, 0, 0]",[],non-match,0.3545027756320971,2,0.4806384962160099,1.2264287524741424,0.04264812171361347,3rd,4th,3rd,0.36692346605582293,1.3339652745816208,0.372129757162675
perc,resp,1195,1,2.3.1left.bmp,1.2.3right.bmp,,ACC036,"[0, 2, -2]","[-2, 0, 2]",[],non-match,0.29289321881345254,1,0.06655065105165558,0.2516429373255471,0.6721245041672332,3rd,3rd,3rd,0.36692346605582293,0.2567778350937214,0.372129757162675
perc,resp,1607,1,3.3.3left.bmp,3.1.3right.bmp,,ACC036,"[2, 2, 2]","[2, -2, 2]",[],non-match,0.42264973081037416,2,0.4422085854834191,0.8568247199536477,0.6566663807466071,3rd,4th,3rd,0.36692346605582293,1.3339652745816208,0.372129757162675
perc,resp,2055,0,3.1.2left.bmp,3.1.2right.bmp,,ACC036,"[2, -2, 0]","[2, -2, 0]",[],match,1.0,,-0.28504561799034406,1.0737341943593297,0.4174890277373878,2nd,4th,3rd,-0.36946193530646787,1.3339652745816208,0.372129757162675
perc,resp,2377,1,2.1.2left.bmp,3.2.2right.bmp,,ACC036,"[0, -2, 0]","[2, 0, 0]",[],non-match,0.5917517095361369,3,-0.9707645736230596,-1.378986145047563,0.16775167375269165,1st,1st,3rd,-1.2518643843611799,-1.224542510433508,0.372129757162675
perc,resp,1885,1,3.3.1left.bmp,1.1.3right.bmp,,ACC036,"[2, 2, -2]","[-2, -2, 2]",[],non-match,0.0,1,-0.8271056890491066,-1.0658986571869884,-0.06277883725573236,1st,1st,2nd,-1.2518643843611799,-1.224542510433508,-0.48147929031754316
perc,resp,1426,1,1.2.1left.bmp,3.3.3right.bmp,,ACC036,"[-2, 0, -2]","[2, 2, 2]",[],non-match,0.1339745962155613,1,0.24392170976481203,-0.02241150677069622,0.10152399673555158,3rd,2nd,3rd,0.36692346605582293,-0.36802431197763696,0.372129757162675
perc,resp,1309,1,2.2.3left.bmp,1.1.1right.bmp,,ACC036,"[0, 0, 2]","[-2, -2, -2]",[],non-match,0.29289321881345254,1,-0.6277535699252724,-0.37802393655472866,0.45445059453225767,2nd,2nd,3rd,-0.36946193530646787,-0.36802431197763696,0.372129757162675
perc,resp,1814,1,1.2.2left.bmp,2.3.1right.bmp,,ACC036,"[-2, 0, 0]","[0, 2, -2]",[],non-match,0.5,3,1.3606347941442463,0.9515302971706082,0.3363701205896151,4th,4th,3rd,1.2543612393618142,1.3339652745816208,0.372129757162675
perc,resp,1568,1,1.3.3left.bmp,1.3.3right.bmp,,ACC036,"[-2, 2, 2]","[-2, 2, 2]",[],match,1.0,,0.21856710037012292,-0.5545714766178635,0.170064099121895,3rd,2nd,3rd,0.36692346605582293,-0.36802431197763696,0.372129757162675
perc,resp,1207,1,1.1.2left.bmp,1.1.2right.bmp,,ACC036,"[-2, -2, 0]","[-2, -2, 0]",[],match,1.0,,0.2413776779651858,0.1782103495375089,0.38729989455520175,3rd,3rd,3rd,0.36692346605582293,0.2567778350937214,0.372129757162675
perc,resp,918,1,2.3.3left.bmp,2.3.3right.bmp,,ACC036,"[0, 2, 2]","[0, 2, 2]",[],match,1.0,,0.5015351250307202,0.5083690613781873,0.24573305231168377,3rd,3rd,3rd,0.36692346605582293,0.2567778350937214,0.372129757162675
perc,resp,863,0,3.3.2left.bmp,3.2.2right.bmp,,ACC036,"[2, 2, 0]","[2, 0, 0]",[],non-match,0.7113248654051871,4,1.1458764471606808,1.161303716486301,0.2842972695583612,4th,4th,3rd,1.2543612393618142,1.3339652745816208,0.372129757162675
perc,resp,1314,0,1.3.2left.bmp,1.2.1right.bmp,,ACC036,"[-2, 2, 0]","[-2, 0, -2]",[],non-match,0.5917517095361369,3,0.49018234194880544,-0.5709136129678347,-0.3691248348105776,3rd,2nd,2nd,0.36692346605582293,-0.36802431197763696,-0.48147929031754316
perc,resp,1949,1,2.1.2left.bmp,2.1.2right.bmp,,ACC036,"[0, -2, 0]","[0, -2, 0]",[],match,1.0,,-0.5010514937846564,0.8229795599425584,-0.29966341019778253,2nd,4th,2nd,-0.36946193530646787,1.3339652745816208,-0.48147929031754316
perc,resp,1939,1,1.1.2left.bmp,2.1.1right.bmp,,ACC036,"[-2, -2, 0]","[0, -2, -2]",[],non-match,0.5917517095361369,3,-0.0821287263538182,1.2942654135446976,-0.24433396056198092,2nd,4th,2nd,-0.36946193530646787,1.3339652745816208,-0.48147929031754316
perc,resp,2006,1,2.2.3left.bmp,2.2.3right.bmp,,ACC036,"[0, 0, 2]","[0, 0, 2]",[],match,1.0,,-0.8417055451958567,0.03549264797657258,-0.12213951115837864,1st,3rd,2nd,-1.2518643843611799,0.2567778350937214,-0.48147929031754316
perc,resp,1590,1,3.2.1left.bmp,2.3.2right.bmp,,ACC036,"[2, 0, -2]","[0, 2, 0]",[],non-match,0.5,3,-0.5059146834310146,0.5418689663689789,-0.5339008143945804,2nd,3rd,2nd,-0.36946193530646787,0.2567778350937214,-0.48147929031754316
perc,resp,1845,0,2.3.1left.bmp,3.3.3right.bmp,,ACC036,"[0, 2, -2]","[2, 2, 2]",[],non-match,0.3545027756320971,2,0.8185985916835509,-0.30011581300623386,-0.9026241040240365,4th,2nd,1st,1.2543612393618142,-0.36802431197763696,-1.2189026017058746
perc,resp,2003,1,3.1.2left.bmp,3.1.2right.bmp,,ACC036,"[2, -2, 0]","[2, -2, 0]",[],match,1.0,,1.299379945490832,-0.2564173003086139,-0.9595520481289267,4th,2nd,1st,1.2543612393618142,-0.36802431197763696,-1.2189026017058746
perc,resp,2101,1,1.1.1left.bmp,1.1.1right.bmp,,ACC036,"[-2, -2, -2]","[-2, -2, -2]",[],match,1.0,,-0.19457654195609442,1.4243860802769768,-0.34034413678322833,2nd,4th,2nd,-0.36946193530646787,1.3339652745816208,-0.48147929031754316
perc,resp,1313,1,1.3.3left.bmp,1.3.3right.bmp,,ACC036,"[-2, 2, 2]","[-2, 2, 2]",[],match,1.0,,-0.8617990636464816,-0.6401214326095905,-0.016451641859294278,1st,2nd,3rd,-1.2518643843611799,-0.36802431197763696,0.372129757162675
perc,resp,1426,1,3.2.2left.bmp,3.2.2right.bmp,,ACC036,"[2, 0, 0]","[2, 0, 0]",[],match,1.0,,0.10027865863553173,1.13492904467151,0.03579276907471675,3rd,4th,3rd,0.36692346605582293,1.3339652745816208,0.372129757162675
perc,resp,1075,0,2.3.1left.bmp,3.3.1right.bmp,,ACC036,"[0, 2, -2]","[2, 2, -2]",[],non-match,0.7113248654051871,4,-1.266222089615794,1.5081718231658716,0.39480866621761324,1st,4th,3rd,-1.2518643843611799,1.3339652745816208,0.372129757162675
perc,resp,1186,1,3.1.3left.bmp,1.3.2right.bmp,,ACC036,"[2, -2, 2]","[-2, 2, 0]",[],non-match,0.1339745962155613,1,0.6161428409036328,0.4809029782861628,-0.17432316623054775,3rd,3rd,2nd,0.36692346605582293,0.2567778350937214,-0.48147929031754316
perc,resp,1235,1,3.2.1left.bmp,2.3.3right.bmp,,ACC036,"[2, 0, -2]","[0, 2, 2]",[],non-match,0.29289321881345254,1,-1.6811943031138912,-2.2041945853383815,-0.3805730972095685,1st,1st,2nd,-1.2518643843611799,-1.224542510433508,-0.48147929031754316
perc,resp,1366,1,1.3.1left.bmp,1.3.1right.bmp,,ACC036,"[-2, 2, -2]","[-2, 2, -2]",[],match,1.0,,-0.8770763121056006,0.7991747494066922,-0.03335490602486542,1st,4th,2nd,-1.2518643843611799,1.3339652745816208,-0.48147929031754316
perc,resp,1883,1,2.1.2left.bmp,3.1.2right.bmp,,ACC036,"[0, -2, 0]","[2, -2, 0]",[],non-match,0.7113248654051871,4,-0.28618318544928745,1.3179557275766733,-0.07367316988470987,2nd,4th,2nd,-0.36946193530646787,1.3339652745816208,-0.48147929031754316
perc,resp,1427,1,2.2.3left.bmp,2.2.3right.bmp,,ACC036,"[0, 0, 2]","[0, 0, 2]",[],match,1.0,,-0.9507597188953053,-1.297024348303363,-0.41826562427442826,1st,1st,2nd,-1.2518643843611799,-1.224542510433508,-0.48147929031754316
perc,resp,2286,0,1.2.1left.bmp,1.2.1right.bmp,,ACC036,"[-2, 0, -2]","[-2, 0, -2]",[],match,1.0,,-1.7382072550513326,-1.7843494125305435,-0.3504974167400275,1st,1st,2nd,-1.2518643843611799,-1.224542510433508,-0.48147929031754316
perc,resp,1580,0,3.1.1left.bmp,3.1.1right.bmp,,ACC036,"[2, -2, -2]","[2, -2, -2]",[],match,1.0,,-0.8128048733125902,-0.48754469971805786,-0.44612366329936803,1st,2nd,2nd,-1.2518643843611799,-0.36802431197763696,-0.48147929031754316
perc,resp,1149,1,2.2.1left.bmp,1.1.2right.bmp,,ACC036,"[0, 0, -2]","[-2, -2, 0]",[],non-match,0.5,3,-0.42176657849773547,-0.6598342528953423,-0.5384133952959022,2nd,2nd,2nd,-0.36946193530646787,-0.36802431197763696,-0.48147929031754316
perc,resp,1199,1,2.1.1left.bmp,1.1.1right.bmp,,ACC036,"[0, -2, -2]","[-2, -2, -2]",[],non-match,0.7113248654051871,4,-0.36911331786645457,-0.9634787595024702,-1.1199370069205037,2nd,1st,1st,-0.36946193530646787,-1.224542510433508,-1.2189026017058746
perc,resp,1520,1,2.3.3left.bmp,2.3.3right.bmp,,ACC036,"[0, 2, 2]","[0, 2, 2]",[],match,1.0,,-2.0747691020756958,-0.7018023903837656,-0.8221884861222414,1st,2nd,1st,-1.2518643843611799,-0.36802431197763696,-1.2189026017058746
perc,resp,1493,1,1.1.3left.bmp,1.3.1right.bmp,,ACC036,"[-2, -2, 2]","[-2, 2, -2]",[],non-match,0.18350341907227385,1,-0.8068999021594049,1.2413992520943262,-0.9528569930133859,1st,4th,1st,-1.2518643843611799,1.3339652745816208,-1.2189026017058746
perc,resp,1960,1,1.1.2left.bmp,1.1.2right.bmp,,ACC036,"[-2, -2, 0]","[-2, -2, 0]",[],match,1.0,,-1.9428969729510204,-1.9543268165813499,-0.9654601278679831,1st,1st,1st,-1.2518643843611799,-1.224542510433508,-1.2189026017058746
perc,resp,1454,0,3.1.2left.bmp,3.1.2right.bmp,,ACC036,"[2, -2, 0]","[2, -2, 0]",[],match,1.0,,-0.345089154038101,-0.748271251760059,-0.9270977190834796,2nd,1st,1st,-0.36946193530646787,-1.224542510433508,-1.2189026017058746
perc,resp,1497,1,1.2.2left.bmp,2.3.1right.bmp,,ACC036,"[-2, 0, 0]","[0, 2, -2]",[],non-match,0.5,3,-0.6057516772738492,-0.4821425150947953,-0.6176056374665596,2nd,2nd,2nd,-0.36946193530646787,-0.36802431197763696,-0.48147929031754316
perc,resp,1721,1,3.2.3left.bmp,3.2.3right.bmp,,ACC036,"[2, 0, 2]","[2, 0, 2]",[],match,1.0,,-0.6324697513912902,1.7261871598638403,-0.3128368570108959,2nd,4th,2nd,-0.36946193530646787,1.3339652745816208,-0.48147929031754316
perc,resp,1202,1,3.3.3left.bmp,1.3.3right.bmp,,ACC036,"[2, 2, 2]","[-2, 2, 2]",[],non-match,0.42264973081037416,2,-2.853512937756063,0.2779956383663196,-0.7310434508276177,1st,3rd,2nd,-1.2518643843611799,0.2567778350937214,-0.48147929031754316
perc,resp,2017,0,1.2.3left.bmp,1.2.1right.bmp,,ACC036,"[-2, 0, 2]","[-2, 0, -2]",[],non-match,0.42264973081037416,2,-1.9387330341423128,-1.3258614081028528,-1.1086699577688288,1st,1st,1st,-1.2518643843611799,-1.224542510433508,-1.2189026017058746
perc,resp,1381,1,1.1.1left.bmp,3.1.2right.bmp,,ACC036,"[-2, -2, -2]","[2, -2, 0]",[],non-match,0.3545027756320971,2,-1.4325576192361358,-0.44149851214138314,-0.9692471001758814,1st,2nd,1st,-1.2518643843611799,-0.36802431197763696,-1.2189026017058746
perc,resp,1694,1,1.3.2left.bmp,1.3.2right.bmp,,ACC036,"[-2, 2, 0]","[-2, 2, 0]",[],match,1.0,,-1.0779670805837351,-0.5441457640166467,-0.3119916706675552,1st,2nd,2nd,-1.2518643843611799,-0.36802431197763696,-0.48147929031754316
perc,resp,1659,1,3.3.1left.bmp,3.3.1right.bmp,,ACC036,"[2, 2, -2]","[2, 2, -2]",[],match,1.0,,-0.055927342060750014,-0.18116628767716358,-0.327572065530022,2nd,2nd,2nd,-0.36946193530646787,-0.36802431197763696,-0.48147929031754316
perc,resp,1246,1,3.3.2left.bmp,3.3.2right.bmp,,ACC036,"[2, 2, 0]","[2, 2, 0]",[],match,1.0,,-1.3146499759887718,1.2117340318403418,-0.5188665508751003,1st,4th,2nd,-1.2518643843611799,1.3339652745816208,-0.48147929031754316
perc,resp,1175,1,2.3.2left.bmp,1.1.2right.bmp,,ACC036,"[0, 2, 0]","[-2, -2, 0]",[],non-match,0.3545027756320971,2,-1.4371837481739917,-0.5021774783807981,-0.21591228183426153,1st,2nd,2nd,-1.2518643843611799,-0.36802431197763696,-0.48147929031754316
perc,resp,1418,1,2.1.3left.bmp,3.2.1right.bmp,,ACC036,"[0, -2, 2]","[2, 0, -2]",[],non-match,0.29289321881345254,1,-0.7353093665092107,1.2612720460566966,-0.4549388106983643,1st,4th,2nd,-1.2518643843611799,1.3339652745816208,-0.48147929031754316
perc,resp,1901,1,2.2.2left.bmp,2.2.2right.bmp,,ACC036,"[0, 0, 0]","[0, 0, 0]",[],match,1.0,,0.5254749548552698,-1.2793992205126408,-0.8146638163758708,3rd,1st,2nd,0.36692346605582293,-1.224542510433508,-0.48147929031754316
perc,resp,3105,1,3.3.3left.bmp,3.2.2right.bmp,,ACC036,"[2, 2, 2]","[2, 0, 0]",[],non-match,0.5917517095361369,3,-1.334647361141639,-0.8737394150130253,-1.0297836411329913,1st,1st,1st,-1.2518643843611799,-1.224542510433508,-1.2189026017058746
perc,resp,1722,1,2.3.3left.bmp,2.3.3right.bmp,,ACC036,"[0, 2, 2]","[0, 2, 2]",[],match,1.0,,-1.030495277503023,-0.8731837456937804,-1.4516123366009785,1st,1st,1st,-1.2518643843611799,-1.224542510433508,-1.2189026017058746
perc,resp,2905,1,1.3.1left.bmp,1.3.1right.bmp,,ACC036,"[-2, 2, -2]","[-2, 2, -2]",[],match,1.0,,-0.9121486069506015,-1.9081638377482528,-1.1299051226726997,1st,1st,1st,-1.2518643843611799,-1.224542510433508,-1.2189026017058746
perc,resp,1118,1,2.1.1left.bmp,1.1.3right.bmp,,ACC036,"[0, -2, -2]","[-2, -2, 2]",[],non-match,0.3545027756320971,2,0.34270721010164595,-0.7026062444434539,-1.1154881324216763,3rd,2nd,1st,0.36692346605582293,-0.36802431197763696,-1.2189026017058746
perc,resp,1186,1,1.2.2left.bmp,2.2.1right.bmp,,ACC036,"[-2, 0, 0]","[0, 0, -2]",[],non-match,0.5917517095361369,3,0.9199091788692907,0.8242551072306171,-1.3133595650162135,4th,4th,1st,1.2543612393618142,1.3339652745816208,-1.2189026017058746
perc,resp,1237,1,1.3.2left.bmp,2.1.2right.bmp,,ACC036,"[-2, 2, 0]","[0, -2, 0]",[],non-match,0.3545027756320971,2,1.8026359273853048,-0.6051002068173565,-1.4214357764495515,4th,2nd,1st,1.2543612393618142,-0.36802431197763696,-1.2189026017058746
perc,resp,1480,1,1.3.3left.bmp,1.3.3right.bmp,,ACC036,"[-2, 2, 2]","[-2, 2, 2]",[],match,1.0,,-3.196562191023783,-1.650920129503429,-1.3346087546811756,1st,1st,1st,-1.2518643843611799,-1.224542510433508,-1.2189026017058746
perc,resp,1554,1,3.1.1left.bmp,3.1.1right.bmp,,ACC036,"[2, -2, -2]","[2, -2, -2]",[],match,1.0,,-0.7019234700042298,-1.5064763490086288,-1.200604829580788,1st,1st,1st,-1.2518643843611799,-1.224542510433508,-1.2189026017058746
perc,resp,2535,1,2.2.1left.bmp,2.2.2right.bmp,,ACC036,"[0, 0, -2]","[0, 0, 0]",[],non-match,0.7113248654051871,4,-0.29322316205185045,0.1741941443582114,-0.990663002740257,2nd,3rd,1st,-0.36946193530646787,0.2567778350937214,-1.2189026017058746
perc,resp,1527,1,2.1.3left.bmp,3.1.2right.bmp,,ACC036,"[0, -2, 2]","[2, -2, 0]",[],non-match,0.5917517095361369,3,-0.39711920076596535,0.7839604788176314,-1.3202865992395014,2nd,4th,1st,-0.36946193530646787,1.3339652745816208,-1.2189026017058746
perc,resp,1400,0,2.2.3left.bmp,2.3.2right.bmp,,ACC036,"[0, 0, 2]","[0, 2, 0]",[],non-match,0.5917517095361369,3,0.10108512438757535,-1.378953721195559,-1.498961748411417,3rd,1st,1st,0.36692346605582293,-1.224542510433508,-1.2189026017058746
perc,resp,1099,1,3.3.1left.bmp,3.3.1right.bmp,,ACC036,"[2, 2, -2]","[2, 2, -2]",[],match,1.0,,0.7404130734989061,0.9841988764605369,-1.7348006774549944,4th,4th,1st,1.2543612393618142,1.3339652745816208,-1.2189026017058746
perc,resp,1674,1,2.3.1left.bmp,2.3.1right.bmp,,ACC036,"[0, 2, -2]","[0, 2, -2]",[],match,1.0,,-0.3690288066169578,0.13897942372470107,-1.569769002283649,2nd,3rd,1st,-0.36946193530646787,0.2567778350937214,-1.2189026017058746
perc,resp,1092,1,3.1.3left.bmp,3.1.3right.bmp,,ACC036,"[2, -2, 2]","[2, -2, 2]",[],match,1.0,,0.19520253570063376,2.2301999199297913,-1.8087849124716244,3rd,4th,1st,0.36692346605582293,1.3339652745816208,-1.2189026017058746
perc,resp,1130,0,2.3.2left.bmp,2.3.3right.bmp,,ACC036,"[0, 2, 0]","[0, 2, 2]",[],non-match,0.7113248654051871,4,-0.7912086950385557,-0.5216518926778797,-2.0682953790856105,1st,2nd,1st,-1.2518643843611799,-0.36802431197763696,-1.2189026017058746
perc,resp,1461,0,1.1.3left.bmp,1.2.1right.bmp,,ACC036,"[-2, -2, 2]","[-2, 0, -2]",[],non-match,0.3545027756320971,2,-0.9768018333811843,-1.2489935716876939,-2.501778713066046,1st,1st,1st,-1.2518643843611799,-1.224542510433508,-1.2189026017058746
perc,resp,2208,1,3.2.3left.bmp,3.2.3right.bmp,,ACC036,"[2, 0, 2]","[2, 0, 2]",[],match,1.0,,-0.964305837768293,0.9180623021135113,-1.8438048395384992,1st,4th,1st,-1.2518643843611799,1.3339652745816208,-1.2189026017058746
perc,resp,1190,1,1.2.3left.bmp,2.2.3right.bmp,,ACC036,"[-2, 0, 2]","[0, 0, 2]",[],non-match,0.7113248654051871,4,-0.9585813443561609,0.022106790432505505,-1.5369135622732406,1st,3rd,1st,-1.2518643843611799,0.2567778350937214,-1.2189026017058746
perc,resp,1168,1,2.2.2left.bmp,3.3.1right.bmp,,ACC036,"[0, 0, 0]","[2, 2, -2]",[],non-match,0.5,3,-0.4580343057752867,-1.0851785356836332,-1.278467111713789,2nd,1st,1st,-0.36946193530646787,-1.224542510433508,-1.2189026017058746
perc,resp,1402,1,1.2.1left.bmp,2.2.1right.bmp,,ACC036,"[-2, 0, -2]","[0, 0, -2]",[],non-match,0.7113248654051871,4,1.3648060766356682,0.5809740016083343,-1.2007754191956184,4th,3rd,1st,1.2543612393618142,0.2567778350937214,-1.2189026017058746
perc,resp,1240,1,3.3.2left.bmp,2.1.1right.bmp,,ACC036,"[2, 2, 0]","[0, -2, -2]",[],non-match,0.29289321881345254,1,0.44932493653840916,0.47149873503015516,-1.1491717055484012,3rd,3rd,1st,0.36692346605582293,0.2567778350937214,-1.2189026017058746
perc,resp,2422,1,3.2.1left.bmp,3.2.1right.bmp,,ACC036,"[2, 0, -2]","[2, 0, -2]",[],match,1.0,,-2.5641827883423196,0.634193395562427,-0.8793281793448295,1st,3rd,1st,-1.2518643843611799,0.2567778350937214,-1.2189026017058746
perc,resp,1826,1,3.2.2left.bmp,3.2.2right.bmp,,ACC036,"[2, 0, 0]","[2, 0, 0]",[],match,1.0,,-0.32822323774906886,-1.7668780495067624,-0.7232560698628114,2nd,1st,2nd,-0.36946193530646787,-1.224542510433508,-0.48147929031754316
perc,resp,3071,0,3.1.2left.bmp,3.1.3right.bmp,,ACC036,"[2, -2, 0]","[2, -2, 2]",[],non-match,0.7113248654051871,4,-0.7033324257265362,-0.8542463443574249,-0.6818443222309852,1st,1st,2nd,-1.2518643843611799,-1.224542510433508,-0.48147929031754316
perc,resp,1284,1,1.1.2left.bmp,1.1.2right.bmp,,ACC036,"[-2, -2, 0]","[-2, -2, 0]",[],match,1.0,,-0.44892321373206245,-2.3682155188371206,-0.7871651156804015,2nd,1st,2nd,-0.36946193530646787,-1.224542510433508,-0.48147929031754316
perc,resp,2393,1,2.1.2left.bmp,2.1.2right.bmp,,ACC036,"[0, -2, 0]","[0, -2, 0]",[],match,1.0,,-0.5201247710257086,-1.0572252609395016,-0.815119745524082,2nd,1st,2nd,-0.36946193530646787,-1.224542510433508,-0.48147929031754316
perc,resp,1103,1,1.1.1left.bmp,3.2.1right.bmp,,ACC036,"[-2, -2, -2]","[2, 0, -2]",[],non-match,0.3545027756320971,2,0.643227600653068,-0.5115344125445357,-1.08715964836444,3rd,2nd,1st,0.36692346605582293,-0.36802431197763696,-1.2189026017058746
perc,resp,1416,1,1.2.3left.bmp,1.2.3right.bmp,,ACC036,"[-2, 0, 2]","[-2, 0, 2]",[],match,1.0,,-0.19715439590355058,-1.2188023994662653,-0.8475392348802409,2nd,1st,1st,-0.36946193530646787,-1.224542510433508,-1.2189026017058746
perc,resp,1991,1,1.1.3left.bmp,1.1.3right.bmp,,ACC036,"[-2, -2, 2]","[-2, -2, 2]",[],match,1.0,,-1.10078243640765,1.0536454525362515,-0.9570750995387733,1st,4th,1st,-1.2518643843611799,1.3339652745816208,-1.2189026017058746
perc,resp,1221,1,2.1.2left.bmp,2.1.2right.bmp,,ACC036,"[0, -2, 0]","[0, -2, 0]",[],match,1.0,,-1.17397008642429,-0.005878744530966976,-1.555998469595689,1st,2nd,1st,-1.2518643843611799,-0.36802431197763696,-1.2189026017058746
perc,resp,1012,1,1.1.2left.bmp,3.2.2right.bmp,,ACC036,"[-2, -2, 0]","[2, 0, 0]",[],non-match,0.3545027756320971,2,2.133990204806507,-0.2972361540052602,-1.278203029504787,4th,2nd,1st,1.2543612393618142,-0.36802431197763696,-1.2189026017058746
perc,resp,1018,1,1.3.3left.bmp,1.3.3right.bmp,,ACC036,"[-2, 2, 2]","[-2, 2, 2]",[],match,1.0,,1.2000888170210922,1.5084511004749042,-1.0340950569409901,4th,4th,1st,1.2543612393618142,1.3339652745816208,-1.2189026017058746
perc,resp,1269,0,1.2.1left.bmp,1.3.2right.bmp,,ACC036,"[-2, 0, -2]","[-2, 2, 0]",[],non-match,0.5917517095361369,3,0.5727410733897138,0.01751104069924994,-1.2616050480741268,3rd,3rd,1st,0.36692346605582293,0.2567778350937214,-1.2189026017058746
perc,resp,1974,0,2.1.3left.bmp,2.1.3right.bmp,,ACC036,"[0, -2, 2]","[0, -2, 2]",[],match,1.0,,0.929351341021487,1.1594621602104207,-1.3292915742267433,4th,4th,1st,1.2543612393618142,1.3339652745816208,-1.2189026017058746
perc,resp,1226,1,2.1.1left.bmp,1.1.1right.bmp,,ACC036,"[0, -2, -2]","[-2, -2, -2]",[],non-match,0.7113248654051871,4,1.8479689696684611,1.232633469069036,-1.431641284159843,4th,4th,1st,1.2543612393618142,1.3339652745816208,-1.2189026017058746
perc,resp,1645,1,2.3.2left.bmp,2.3.2right.bmp,,ACC036,"[0, 2, 0]","[0, 2, 0]",[],match,1.0,,-0.8585443246348989,0.1827470528155889,-0.9093794927505522,1st,3rd,1st,-1.2518643843611799,0.2567778350937214,-1.2189026017058746
perc,resp,1322,1,1.2.3left.bmp,3.2.3right.bmp,,ACC036,"[-2, 0, 2]","[2, 0, 2]",[],non-match,0.42264973081037416,2,0.27506144601716837,1.1348796758191757,-0.7083288210879469,3rd,4th,2nd,0.36692346605582293,1.3339652745816208,-0.48147929031754316
perc,resp,1333,0,2.3.1left.bmp,3.3.2right.bmp,,ACC036,"[0, 2, -2]","[2, 2, 0]",[],non-match,0.5917517095361369,3,-0.1679462621167514,0.07694813100610129,-0.29183900864794493,2nd,3rd,2nd,-0.36946193530646787,0.2567778350937214,-0.48147929031754316
perc,resp,1776,1,1.1.1left.bmp,1.3.1right.bmp,,ACC036,"[-2, -2, -2]","[-2, 2, -2]",[],non-match,0.42264973081037416,2,0.7686397426872108,0.29156450395736727,-0.13022707264173872,4th,3rd,2nd,1.2543612393618142,0.2567778350937214,-0.48147929031754316
perc,resp,1269,1,2.3.3left.bmp,2.3.3right.bmp,,ACC036,"[0, 2, 2]","[0, 2, 2]",[],match,1.0,,0.31442964432620735,0.13868283462274733,-0.11005342290915056,3rd,3rd,2nd,0.36692346605582293,0.2567778350937214,-0.48147929031754316
perc,resp,2036,1,3.1.2left.bmp,3.1.2right.bmp,,ACC036,"[2, -2, 0]","[2, -2, 0]",[],match,1.0,,1.644966278188787,0.00651903303242496,0.14573570210229694,4th,3rd,3rd,1.2543612393618142,0.2567778350937214,0.372129757162675
perc,resp,1086,1,2.2.3left.bmp,1.1.3right.bmp,,ACC036,"[0, 0, 2]","[-2, -2, 2]",[],non-match,0.5917517095361369,3,1.0086910602261847,0.9179018696907266,0.24371749703272272,4th,4th,3rd,1.2543612393618142,1.3339652745816208,0.372129757162675
perc,resp,2071,1,3.1.1left.bmp,3.1.1right.bmp,,ACC036,"[2, -2, -2]","[2, -2, -2]",[],match,1.0,,-2.045904241962016,-1.1765489392321524,0.5149724930593444,1st,1st,3rd,-1.2518643843611799,-1.224542510433508,0.372129757162675
perc,resp,1787,1,1.2.1left.bmp,1.2.1right.bmp,,ACC036,"[-2, 0, -2]","[-2, 0, -2]",[],match,1.0,,-0.3456110280566082,1.8495263117940197,0.7520593996375824,2nd,4th,4th,-0.36946193530646787,1.3339652745816208,1.326459519563121
perc,resp,1358,1,1.3.2left.bmp,1.1.1right.bmp,,ACC036,"[-2, 2, 0]","[-2, -2, -2]",[],non-match,0.3545027756320971,2,0.8929306325954921,-0.6894957572032181,0.6890351934662472,4th,2nd,3rd,1.2543612393618142,-0.36802431197763696,0.372129757162675
perc,resp,2347,1,3.2.1left.bmp,3.2.1right.bmp,,ACC036,"[2, 0, -2]","[2, 0, -2]",[],match,1.0,,-0.6280045876500459,-0.30775771901232535,0.23496156788928577,2nd,2nd,3rd,-0.36946193530646787,-0.36802431197763696,0.372129757162675
perc,resp,3043,1,3.1.3left.bmp,3.1.3right.bmp,,ACC036,"[2, -2, 2]","[2, -2, 2]",[],match,1.0,,0.07999546077798157,0.6591528487400397,-0.570278172699345,3rd,3rd,2nd,0.36692346605582293,0.2567778350937214,-0.48147929031754316
perc,resp,3170,1,2.1.3left.bmp,2.1.3right.bmp,,ACC036,"[0, -2, 2]","[0, -2, 2]",[],match,1.0,,-0.8211057725321308,-0.7959431274450045,-0.7499417638966063,1st,1st,2nd,-1.2518643843611799,-1.224542510433508,-0.48147929031754316
perc,resp,2248,1,1.1.3left.bmp,1.1.3right.bmp,,ACC036,"[-2, -2, 2]","[-2, -2, 2]",[],match,1.0,,-0.07714060682226198,-0.7918391270363799,-0.9341538226637306,2nd,1st,1st,-0.36946193530646787,-1.224542510433508,-1.2189026017058746
perc,resp,2602,0,3.2.3left.bmp,3.2.2right.bmp,,ACC036,"[2, 0, 2]","[2, 0, 0]",[],non-match,0.7113248654051871,4,0.38002128677690045,0.4592104843908161,-0.5433397804697923,3rd,3rd,2nd,0.36692346605582293,0.2567778350937214,-0.48147929031754316
perc,resp,2292,1,2.3.2left.bmp,3.2.1right.bmp,,ACC036,"[0, 2, 0]","[2, 0, -2]",[],non-match,0.5,3,1.6680122554402892,1.2291199107346304,-0.3939643162315719,4th,4th,2nd,1.2543612393618142,1.3339652745816208,-0.48147929031754316
perc,resp,1544,1,1.3.3left.bmp,1.3.3right.bmp,,ACC036,"[-2, 2, 2]","[-2, 2, 2]",[],match,1.0,,-1.4899240202847701,0.07025992660437398,-0.8626951476700687,1st,3rd,1st,-1.2518643843611799,0.2567778350937214,-1.2189026017058746
perc,resp,1783,1,1.2.2left.bmp,2.2.2right.bmp,,ACC036,"[-2, 0, 0]","[0, 0, 0]",[],non-match,0.7113248654051871,4,0.4524522351422437,2.7638670783357377,-1.0586822254563228,3rd,4th,1st,0.36692346605582293,1.3339652745816208,-1.2189026017058746
perc,resp,1788,0,2.1.2left.bmp,3.1.2right.bmp,,ACC036,"[0, -2, 0]","[2, -2, 0]",[],non-match,0.7113248654051871,4,1.140479444734217,2.6383902877940892,-1.1493197714084866,4th,4th,1st,1.2543612393618142,1.3339652745816208,-1.2189026017058746
perc,resp,1612,1,3.2.2left.bmp,2.1.3right.bmp,,ACC036,"[2, 0, 0]","[0, -2, 2]",[],non-match,0.5,3,-1.3454471854921732,0.5116727203536618,-0.7979952765617658,1st,3rd,2nd,-1.2518643843611799,0.2567778350937214,-0.48147929031754316
perc,resp,2591,1,3.3.1left.bmp,3.1.3right.bmp,,ACC036,"[2, 2, -2]","[2, -2, 2]",[],non-match,0.18350341907227385,1,-1.5821248079634624,-1.5022975862572743,-0.9155083911779591,1st,1st,1st,-1.2518643843611799,-1.224542510433508,-1.2189026017058746
perc,resp,1707,1,2.1.1left.bmp,2.1.1right.bmp,,ACC036,"[0, -2, -2]","[0, -2, -2]",[],match,1.0,,-1.2736609482365548,-1.5791442999147105,-0.7822721317533796,1st,1st,2nd,-1.2518643843611799,-1.224542510433508,-0.48147929031754316
perc,resp,1863,1,3.3.3left.bmp,3.1.1right.bmp,,ACC036,"[2, 2, 2]","[2, -2, -2]",[],non-match,0.18350341907227385,1,0.9744342645903825,-0.2199139136771117,-0.7980709290568523,4th,2nd,2nd,1.2543612393618142,-0.36802431197763696,-0.48147929031754316
perc,resp,2222,1,2.2.1left.bmp,2.2.1right.bmp,,ACC036,"[0, 0, -2]","[0, 0, -2]",[],match,1.0,,-1.0804121043957533,0.0874902772665071,-0.8914144669602895,1st,3rd,1st,-1.2518643843611799,0.2567778350937214,-1.2189026017058746
perc,resp,2040,0,1.3.1left.bmp,1.3.1right.bmp,,ACC036,"[-2, 2, -2]","[-2, 2, -2]",[],match,1.0,,1.1154844548474907,-0.8552764042098863,-0.8805801169076909,4th,1st,1st,1.2543612393618142,-1.224542510433508,-1.2189026017058746
perc,resp,1956,0,2.2.2left.bmp,2.3.1right.bmp,,ACC036,"[0, 0, 0]","[0, 2, -2]",[],non-match,0.5917517095361369,3,0.5763215078236225,1.000336115726019,-0.5535351485446042,3rd,4th,2nd,0.36692346605582293,1.3339652745816208,-0.48147929031754316
perc,resp,1467,1,3.3.2left.bmp,2.1.3right.bmp,,ACC036,"[2, 2, 0]","[0, -2, 2]",[],non-match,0.29289321881345254,1,0.2660211443342452,-0.807987774675313,-0.4671194329567034,3rd,1st,2nd,0.36692346605582293,-1.224542510433508,-0.48147929031754316
perc,resp,1188,1,1.1.1left.bmp,2.3.3right.bmp,,ACC036,"[-2, -2, -2]","[0, 2, 2]",[],non-match,0.1339745962155613,1,0.923747643528087,-0.08496793204822285,0.06778069097306368,4th,2nd,3rd,1.2543612393618142,-0.36802431197763696,0.372129757162675
perc,resp,2797,0,3.1.3left.bmp,2.2.1right.bmp,,ACC036,"[2, -2, 2]","[0, 0, -2]",[],non-match,0.29289321881345254,1,-0.2733604032900842,-0.7822641765673667,0.07310530165115052,2nd,1st,3rd,-0.36946193530646787,-1.224542510433508,0.372129757162675
perc,resp,1512,1,2.2.2left.bmp,1.2.1right.bmp,,ACC036,"[0, 0, 0]","[-2, 0, -2]",[],non-match,0.5917517095361369,3,1.7940252744179672,-0.7422158514225233,0.10707325338551658,4th,1st,3rd,1.2543612393618142,-1.224542510433508,0.372129757162675
perc,resp,2229,1,2.1.1left.bmp,2.1.1right.bmp,,ACC036,"[0, -2, -2]","[0, -2, -2]",[],match,1.0,,0.13325226897679596,-0.8547249443209315,0.23295912446020584,3rd,1st,3rd,0.36692346605582293,-1.224542510433508,0.372129757162675
perc,resp,1763,1,1.2.3left.bmp,2.1.3right.bmp,,ACC036,"[-2, 0, 2]","[0, -2, 2]",[],non-match,0.5917517095361369,3,-0.6223955059780922,0.9723158917874954,0.8494698971841442,2nd,4th,4th,-0.36946193530646787,1.3339652745816208,1.326459519563121
perc,resp,1690,0,2.2.1left.bmp,3.1.3right.bmp,,ACC036,"[0, 0, -2]","[2, -2, 2]",[],non-match,0.29289321881345254,1,0.014717008836170196,-0.08182528582475682,0.7240672450307649,3rd,2nd,4th,0.36692346605582293,-0.36802431197763696,1.326459519563121
perc,resp,1420,1,1.1.3left.bmp,2.2.3right.bmp,,ACC036,"[-2, -2, 2]","[0, 0, 2]",[],non-match,0.5917517095361369,3,0.40202675131141924,0.01736211677714219,0.5864471945990731,3rd,3rd,3rd,0.36692346605582293,0.2567778350937214,0.372129757162675
perc,resp,2077,1,3.3.1left.bmp,3.1.1right.bmp,,ACC036,"[2, 2, -2]","[2, -2, -2]",[],non-match,0.42264973081037416,2,1.673795284252743,1.2282035463682563,0.6207998970590844,4th,4th,3rd,1.2543612393618142,1.3339652745816208,0.372129757162675
perc,resp,2156,0,3.1.2left.bmp,3.2.2right.bmp,,ACC036,"[2, -2, 0]","[2, 0, 0]",[],non-match,0.7113248654051871,4,-0.48934941711004754,-0.05179388600379047,0.5178829632192457,2nd,2nd,3rd,-0.36946193530646787,-0.36802431197763696,0.372129757162675
perc,resp,2174,1,2.1.2left.bmp,2.1.2right.bmp,,ACC036,"[0, -2, 0]","[0, -2, 0]",[],match,1.0,,-0.5798453103938376,-1.415616601301681,0.734575540221828,2nd,1st,4th,-0.36946193530646787,-1.224542510433508,1.326459519563121
perc,resp,2252,1,2.3.2left.bmp,2.3.2right.bmp,,ACC036,"[0, 2, 0]","[0, 2, 0]",[],match,1.0,,0.2270912906187468,-0.21780959904096867,0.5375785198933125,3rd,2nd,3rd,0.36692346605582293,-0.36802431197763696,0.372129757162675
perc,resp,970,1,1.3.3left.bmp,1.3.3right.bmp,,ACC036,"[-2, 2, 2]","[-2, 2, 2]",[],match,1.0,,1.7429569524064183,1.8646453430010606,0.4839962413430401,4th,4th,3rd,1.2543612393618142,1.3339652745816208,0.372129757162675
perc,resp,1039,1,3.2.3left.bmp,3.2.3right.bmp,,ACC036,"[2, 0, 2]","[2, 0, 2]",[],match,1.0,,0.9208152877792494,-0.17610996905461462,0.3608515724814692,4th,2nd,3rd,1.2543612393618142,-0.36802431197763696,0.372129757162675
perc,resp,2014,0,3.2.2left.bmp,3.3.3right.bmp,,ACC036,"[2, 0, 0]","[2, 2, 2]",[],non-match,0.5917517095361369,3,0.2530330605892149,-1.5566406201946852,0.29458916685067527,3rd,1st,3rd,0.36692346605582293,-1.224542510433508,0.372129757162675
perc,resp,981,1,3.1.1left.bmp,1.2.3right.bmp,,ACC036,"[2, -2, -2]","[-2, 0, 2]",[],non-match,0.1339745962155613,1,2.138314692902328,-0.20992815601724316,0.18140514677727987,4th,2nd,3rd,1.2543612393618142,-0.36802431197763696,0.372129757162675
perc,resp,1212,1,2.3.3left.bmp,2.3.3right.bmp,,ACC036,"[0, 2, 2]","[0, 2, 2]",[],match,1.0,,-0.355411542155601,-0.7347576604842283,0.4604513140048912,2nd,2nd,3rd,-0.36946193530646787,-0.36802431197763696,0.372129757162675
perc,resp,1281,1,1.2.2left.bmp,1.1.3right.bmp,,ACC036,"[-2, 0, 0]","[-2, -2, 2]",[],non-match,0.5917517095361369,3,1.2537251397446372,-0.20526896240454737,0.49511219415994906,4th,2nd,3rd,1.2543612393618142,-0.36802431197763696,0.372129757162675
perc,resp,1140,1,3.3.3left.bmp,2.1.1right.bmp,,ACC036,"[2, 2, 2]","[0, -2, -2]",[],non-match,0.1339745962155613,1,-0.2512219316546254,2.4685607818721835,0.4352195840111609,2nd,4th,3rd,-0.36946193530646787,1.3339652745816208,0.372129757162675
perc,resp,2237,1,1.2.1left.bmp,3.2.3right.bmp,,ACC036,"[-2, 0, -2]","[2, 0, 2]",[],non-match,0.18350341907227385,1,-0.23011310224074882,-0.6110531218312181,1.1163459504419113,2nd,2nd,4th,-0.36946193530646787,-0.36802431197763696,1.326459519563121
perc,resp,1883,1,1.3.2left.bmp,1.3.2right.bmp,,ACC036,"[-2, 2, 0]","[-2, 2, 0]",[],match,1.0,,-0.8723372048471837,-0.7139238505215109,1.1205771387946692,1st,2nd,4th,-1.2518643843611799,-0.36802431197763696,1.326459519563121
perc,resp,1748,1,3.2.1left.bmp,3.2.1right.bmp,,ACC036,"[2, 0, -2]","[2, 0, -2]",[],match,1.0,,0.8749939970809476,0.9297387549718534,1.2166371620939562,4th,4th,4th,1.2543612393618142,1.3339652745816208,1.326459519563121
perc,resp,1118,1,1.1.2left.bmp,2.1.2right.bmp,,ACC036,"[-2, -2, 0]","[0, -2, 0]",[],non-match,0.7113248654051871,4,1.5205163272483864,0.13103206837891868,1.3156294053712019,4th,3rd,4th,1.2543612393618142,0.2567778350937214,1.326459519563121
perc,resp,955,1,3.3.2left.bmp,1.3.3right.bmp,,ACC036,"[2, 2, 0]","[-2, 2, 2]",[],non-match,0.3545027756320971,2,0.566024245915564,0.18509753330036618,1.2894743045826005,3rd,3rd,4th,0.36692346605582293,0.2567778350937214,1.326459519563121
perc,resp,1041,1,2.3.1left.bmp,2.3.1right.bmp,,ACC036,"[0, 2, -2]","[0, 2, -2]",[],match,1.0,,-0.3344514520959698,-0.7512310104978971,1.45580970844269,2nd,1st,4th,-0.36946193530646787,-1.224542510433508,1.326459519563121
perc,resp,1424,1,1.3.1left.bmp,1.3.1right.bmp,,ACC036,"[-2, 2, -2]","[-2, 2, -2]",[],match,1.0,,-0.13519487355553078,-2.6669064097688326,1.1114198385806353,2nd,1st,4th,-0.36946193530646787,-1.224542510433508,1.326459519563121
perc,resp,3119,0,2.1.3left.bmp,2.1.3right.bmp,,ACC036,"[0, -2, 2]","[0, -2, 2]",[],match,1.0,,-0.6867671701947053,0.05632285438088362,0.5748376849860621,1st,3rd,3rd,-1.2518643843611799,0.2567778350937214,0.372129757162675
perc,resp,918,1,3.1.2left.bmp,1.2.3right.bmp,,ACC036,"[2, -2, 0]","[-2, 0, 2]",[],non-match,0.29289321881345254,1,-0.5897859454459703,-0.5893406964877891,0.4042124168415168,2nd,2nd,3rd,-0.36946193530646787,-0.36802431197763696,0.372129757162675
perc,resp,977,0,3.3.1left.bmp,3.2.2right.bmp,,ACC036,"[2, 2, -2]","[2, 0, 0]",[],non-match,0.5917517095361369,3,1.0896038420276444,0.04333987609700793,0.40229003708225375,4th,3rd,3rd,1.2543612393618142,0.2567778350937214,0.372129757162675
perc,resp,2093,1,2.3.3left.bmp,2.3.3right.bmp,,ACC036,"[0, 2, 2]","[0, 2, 2]",[],match,1.0,,-0.21070066788295744,-0.04281161565682398,0.4399088261659064,2nd,2nd,3rd,-0.36946193530646787,-0.36802431197763696,0.372129757162675
perc,resp,1636,1,2.2.3left.bmp,2.2.3right.bmp,,ACC036,"[0, 0, 2]","[0, 0, 2]",[],match,1.0,,-0.6477743469150481,-0.5224339639575231,-0.23721262970160645,2nd,2nd,2nd,-0.36946193530646787,-0.36802431197763696,-0.48147929031754316
perc,resp,1046,1,2.2.2left.bmp,1.2.2right.bmp,,ACC036,"[0, 0, 0]","[-2, 0, 0]",[],non-match,0.7113248654051871,4,1.2143840047945595,2.103368395768724,-1.2888771563211057,4th,4th,1st,1.2543612393618142,1.3339652745816208,-1.2189026017058746
