mode,type,rt,acc,item_1,item_2,item_cue,subj_idx,item_1_number,item_2_number,item_cue_number,trial_type,similarity,similarity_bin,ams,pams,slps,ams_quantile,pams_quantile,slps_quantile,ams_bin,pam_bin,slp_bin
perc,resp,2616,0,1.2.2left.bmp,1.3.3right.bmp,,ACC018,"[-2, 0, 0]","[-2, 2, 2]",[],non-match,0.5917517095361369,3,-0.44504748124112,-1.1320499282714132,1.0785094581651964,2nd,1st,4th,-0.19313575099557567,-1.2524243151822978,1.2546623055427037
perc,resp,2122,0,2.3.1left.bmp,2.3.1right.bmp,,ACC018,"[0, 2, -2]","[0, 2, -2]",[],match,1.0,,0.3720429837977928,-0.6838195248084846,1.0434427206116546,3rd,1st,4th,0.3409615243403279,-1.2524243151822978,1.2546623055427037
perc,resp,2614,1,1.1.2left.bmp,1.1.2right.bmp,,ACC018,"[-2, -2, 0]","[-2, -2, 0]",[],match,1.0,,-0.9204033262925164,-0.9297632500019657,1.1090276463777746,1st,1st,4th,-1.2871701544289296,-1.2524243151822978,1.2546623055427037
perc,resp,2011,1,1.2.1left.bmp,1.2.1right.bmp,,ACC018,"[-2, 0, -2]","[-2, 0, -2]",[],match,1.0,,-0.7186391106460712,-0.7999867260001694,0.9850038366618981,1st,1st,4th,-1.2871701544289296,-1.2524243151822978,1.2546623055427037
perc,resp,1824,1,3.3.2left.bmp,3.3.2right.bmp,,ACC018,"[2, 2, 0]","[2, 2, 0]",[],match,1.0,,-0.047971558471852166,-1.1746415210974954,1.008313434448367,2nd,1st,4th,-0.19313575099557567,-1.2524243151822978,1.2546623055427037
perc,resp,1608,1,1.2.3left.bmp,1.2.3right.bmp,,ACC018,"[-2, 0, 2]","[-2, 0, 2]",[],match,1.0,,-0.04802676008918104,-0.8006765132457847,1.2297414682120276,2nd,1st,4th,-0.19313575099557567,-1.2524243151822978,1.2546623055427037
perc,resp,1609,1,2.1.1left.bmp,2.1.1right.bmp,,ACC018,"[0, -2, -2]","[0, -2, -2]",[],match,1.0,,-0.4541583437576296,-1.6430977941457736,1.24979912840735,2nd,1st,4th,-0.19313575099557567,-1.2524243151822978,1.2546623055427037
perc,resp,1321,1,2.1.2left.bmp,2.1.2right.bmp,,ACC018,"[0, -2, 0]","[0, -2, 0]",[],match,1.0,,-0.16842936622220822,0.9278639814276659,1.4232429642918984,2nd,4th,4th,-0.19313575099557567,1.210983776994628,1.2546623055427037
perc,resp,1431,0,2.2.2left.bmp,1.2.2right.bmp,,ACC018,"[0, 0, 0]","[-2, 0, 0]",[],non-match,0.7113248654051871,4,-1.1724033821731745,0.7285926764166103,1.397857093908978,1st,4th,4th,-1.2871701544289296,1.210983776994628,1.2546623055427037
perc,resp,1636,0,2.2.1left.bmp,3.2.3right.bmp,,ACC018,"[0, 0, -2]","[2, 0, 2]",[],non-match,0.3545027756320971,2,-0.8836333010482529,-0.9681340503346407,1.561196747146321,1st,1st,4th,-1.2871701544289296,-1.2524243151822978,1.2546623055427037
perc,resp,1443,1,3.3.1left.bmp,1.2.3right.bmp,,ACC018,"[2, 2, -2]","[-2, 0, 2]",[],non-match,0.1339745962155613,1,0.3669798215448182,-0.22859869574873123,1.3312888271690018,3rd,2nd,4th,0.3409615243403279,-0.22318599358597754,1.2546623055427037
perc,resp,2775,1,1.3.3left.bmp,2.2.2right.bmp,,ACC018,"[-2, 2, 2]","[0, 0, 0]",[],non-match,0.5,3,-1.4108716804873833,-1.342749511408327,1.6997572824826743,1st,1st,4th,-1.2871701544289296,-1.2524243151822978,1.2546623055427037
perc,resp,2837,0,1.3.1left.bmp,1.1.2right.bmp,,ACC018,"[-2, 2, -2]","[-2, -2, 0]",[],non-match,0.3545027756320971,2,-2.666325663256438,-2.891229422829805,1.5520710362869823,1st,1st,4th,-1.2871701544289296,-1.2524243151822978,1.2546623055427037
perc,resp,2266,1,3.1.3left.bmp,1.2.2right.bmp,,ACC018,"[2, -2, 2]","[-2, 0, 0]",[],non-match,0.29289321881345254,1,-0.4511952483913626,-1.117181959150661,1.6756585282305763,2nd,1st,4th,-0.19313575099557567,-1.2524243151822978,1.2546623055427037
perc,resp,2484,1,1.1.1left.bmp,1.1.1right.bmp,,ACC018,"[-2, -2, -2]","[-2, -2, -2]",[],match,1.0,,-1.3180036773098356,-1.247584803265034,1.8638819518704075,1st,1st,4th,-1.2871701544289296,-1.2524243151822978,1.2546623055427037
perc,resp,1519,1,3.2.3left.bmp,1.3.2right.bmp,,ACC018,"[2, 0, 2]","[-2, 2, 0]",[],non-match,0.29289321881345254,1,-0.7523643226110787,-1.3861147830177298,1.8685231490034788,1st,1st,4th,-1.2871701544289296,-1.2524243151822978,1.2546623055427037
perc,resp,2932,1,3.3.3left.bmp,2.1.3right.bmp,,ACC018,"[2, 2, 2]","[0, -2, 2]",[],non-match,0.3545027756320971,2,-2.6845290556234547,-1.5829367564931986,1.9805837744182193,1st,1st,4th,-1.2871701544289296,-1.2524243151822978,1.2546623055427037
perc,resp,1635,1,1.1.3left.bmp,3.3.2right.bmp,,ACC018,"[-2, -2, 2]","[2, 2, 0]",[],non-match,0.1339745962155613,1,-0.9031373398015159,-1.514168833859678,2.0737251844242155,1st,1st,4th,-1.2871701544289296,-1.2524243151822978,1.2546623055427037
perc,resp,1820,0,3.2.1left.bmp,3.3.1right.bmp,,ACC018,"[2, 0, -2]","[2, 2, -2]",[],non-match,0.7113248654051871,4,-1.1405183012962108,-0.7158483445477973,1.9504862137239785,1st,1st,4th,-1.2871701544289296,-1.2524243151822978,1.2546623055427037
perc,resp,2250,0,1.3.2left.bmp,1.3.2right.bmp,,ACC018,"[-2, 2, 0]","[-2, 2, 0]",[],match,1.0,,-1.1518966755412001,-0.978955573224454,1.748780615015407,1st,1st,4th,-1.2871701544289296,-1.2524243151822978,1.2546623055427037
perc,resp,2360,1,3.1.2left.bmp,3.1.2right.bmp,,ACC018,"[2, -2, 0]","[2, -2, 0]",[],match,1.0,,-0.03641508979885079,-0.516204704682361,1.9230816380005733,2nd,2nd,4th,-0.19313575099557567,-0.22318599358597754,1.2546623055427037
perc,resp,1482,1,3.2.2left.bmp,1.3.1right.bmp,,ACC018,"[2, 0, 0]","[-2, 2, -2]",[],non-match,0.29289321881345254,1,0.2504844552493977,0.25714998347434326,2.00482763431994,3rd,3rd,4th,0.3409615243403279,0.2646265317736461,1.2546623055427037
perc,resp,2149,0,2.1.3left.bmp,2.1.3right.bmp,,ACC018,"[0, -2, 2]","[0, -2, 2]",[],match,1.0,,-1.2854753835752524,-0.005585950270861566,1.791494777528093,1st,2nd,4th,-1.2871701544289296,-0.22318599358597754,1.2546623055427037
perc,resp,1632,1,2.2.3left.bmp,2.2.3right.bmp,,ACC018,"[0, 0, 2]","[0, 0, 2]",[],match,1.0,,0.10136777402485245,-0.28467558465846493,1.3988327386280304,3rd,2nd,4th,0.3409615243403279,-0.22318599358597754,1.2546623055427037
perc,resp,2008,1,3.2.2left.bmp,3.2.2right.bmp,,ACC018,"[2, 0, 0]","[2, 0, 0]",[],match,1.0,,-0.8759389813092928,-1.6084002562729802,1.3481261086629708,1st,1st,4th,-1.2871701544289296,-1.2524243151822978,1.2546623055427037
perc,resp,1490,1,2.2.1left.bmp,2.2.1right.bmp,,ACC018,"[0, 0, -2]","[0, 0, -2]",[],match,1.0,,-1.1648704213992374,-0.4845070048927769,1.3633924763757488,1st,2nd,4th,-1.2871701544289296,-0.22318599358597754,1.2546623055427037
perc,resp,1743,1,3.1.1left.bmp,3.1.1right.bmp,,ACC018,"[2, -2, -2]","[2, -2, -2]",[],match,1.0,,0.33431768649349003,-0.7794315669416751,1.2508514686698267,3rd,1st,4th,0.3409615243403279,-1.2524243151822978,1.2546623055427037
perc,resp,1062,1,1.1.3left.bmp,1.3.1right.bmp,,ACC018,"[-2, -2, 2]","[-2, 2, -2]",[],non-match,0.18350341907227385,1,-0.3428574566908285,-1.1598690126570328,1.4763175980867371,2nd,1st,4th,-0.19313575099557567,-1.2524243151822978,1.2546623055427037
perc,resp,1865,1,3.1.3left.bmp,3.1.3right.bmp,,ACC018,"[2, -2, 2]","[2, -2, 2]",[],match,1.0,,-1.074166192084259,-0.9419012940968507,1.1292357386461058,1st,1st,4th,-1.2871701544289296,-1.2524243151822978,1.2546623055427037
perc,resp,2263,1,1.1.1left.bmp,2.1.2right.bmp,,ACC018,"[-2, -2, -2]","[0, -2, 0]",[],non-match,0.5917517095361369,3,-0.9600674846742264,-1.842674295313545,0.9549084894792155,1st,1st,4th,-1.2871701544289296,-1.2524243151822978,1.2546623055427037
perc,resp,1145,0,1.3.2left.bmp,1.3.2right.bmp,,ACC018,"[-2, 2, 0]","[-2, 2, 0]",[],match,1.0,,-1.3804533427464414,-1.3834877042472393,0.8844701809188583,1st,1st,3rd,-1.2871701544289296,-1.2524243151822978,0.4786727566371458
perc,resp,1999,1,2.1.3left.bmp,2.2.1right.bmp,,ACC018,"[0, -2, 2]","[0, 0, -2]",[],non-match,0.3545027756320971,2,0.12540492741676476,-1.1015444046166882,0.9228104253438674,3rd,1st,4th,0.3409615243403279,-1.2524243151822978,1.2546623055427037
perc,resp,1199,1,2.3.2left.bmp,3.1.2right.bmp,,ACC018,"[0, 2, 0]","[2, -2, 0]",[],non-match,0.3545027756320971,2,0.5123213934740425,-1.2605168497390522,0.9716169778306885,3rd,1st,4th,0.3409615243403279,-1.2524243151822978,1.2546623055427037
perc,resp,1196,1,1.2.3left.bmp,3.3.1right.bmp,,ACC018,"[-2, 0, 2]","[2, 2, -2]",[],non-match,0.1339745962155613,1,0.05200728186950339,-1.602370029717661,1.1360301050607007,2nd,1st,4th,-0.19313575099557567,-1.2524243151822978,1.2546623055427037
perc,resp,1681,0,2.2.2left.bmp,2.2.2right.bmp,,ACC018,"[0, 0, 0]","[0, 0, 0]",[],match,1.0,,-1.0678752453267901,-1.1317192752258565,0.6705619904384392,1st,1st,3rd,-1.2871701544289296,-1.2524243151822978,0.4786727566371458
perc,resp,1532,1,2.3.3left.bmp,2.2.3right.bmp,,ACC018,"[0, 2, 2]","[0, 0, 2]",[],non-match,0.7113248654051871,4,0.2807279762281711,-0.9395225234542816,0.6959525508746696,3rd,1st,3rd,0.3409615243403279,-1.2524243151822978,0.4786727566371458
perc,resp,1042,1,3.3.2left.bmp,3.2.1right.bmp,,ACC018,"[2, 2, 0]","[2, 0, -2]",[],non-match,0.5917517095361369,3,-0.6444038317151061,-1.214515201068685,0.759143624488386,1st,1st,3rd,-1.2871701544289296,-1.2524243151822978,0.4786727566371458
perc,resp,1472,0,3.2.3left.bmp,2.2.1right.bmp,,ACC018,"[2, 0, 2]","[0, 0, -2]",[],non-match,0.3545027756320971,2,-1.1984014590423044,-0.8686947734793399,0.6566688785989419,1st,1st,3rd,-1.2871701544289296,-1.2524243151822978,0.4786727566371458
perc,resp,2511,1,1.3.1left.bmp,1.3.1right.bmp,,ACC018,"[-2, 2, -2]","[-2, 2, -2]",[],match,1.0,,-0.5260601255214151,-0.7750588608089811,0.7534895252568372,2nd,1st,3rd,-0.19313575099557567,-1.2524243151822978,0.4786727566371458
perc,resp,1392,1,2.1.1left.bmp,1.2.1right.bmp,,ACC018,"[0, -2, -2]","[-2, 0, -2]",[],non-match,0.5917517095361369,3,-0.32708828590120026,-0.7828911570740432,0.6686172282779979,2nd,1st,3rd,-0.19313575099557567,-1.2524243151822978,0.4786727566371458
perc,resp,1323,1,3.2.1left.bmp,1.2.2right.bmp,,ACC018,"[2, 0, -2]","[-2, 0, 0]",[],non-match,0.3545027756320971,2,-1.4955092907158996,-0.5154872215301702,0.4978830433472855,1st,2nd,3rd,-1.2871701544289296,-0.22318599358597754,0.4786727566371458
perc,resp,1674,1,2.3.1left.bmp,1.2.3right.bmp,,ACC018,"[0, 2, -2]","[-2, 0, 2]",[],non-match,0.29289321881345254,1,-1.2265388194458362,-1.4652502650424937,0.5149442256387309,1st,1st,3rd,-1.2871701544289296,-1.2524243151822978,0.4786727566371458
perc,resp,1407,1,3.3.3left.bmp,3.1.3right.bmp,,ACC018,"[2, 2, 2]","[2, -2, 2]",[],non-match,0.42264973081037416,2,-0.06745156378251829,-0.6212808094935615,0.8649151194794135,2nd,1st,3rd,-0.19313575099557567,-1.2524243151822978,0.4786727566371458
perc,resp,1728,1,3.1.2left.bmp,3.1.2right.bmp,,ACC018,"[2, -2, 0]","[2, -2, 0]",[],match,1.0,,-0.9890473986634664,-1.587039883829492,0.7454943029131582,1st,1st,3rd,-1.2871701544289296,-1.2524243151822978,0.4786727566371458
perc,resp,1913,0,2.1.2left.bmp,3.2.2right.bmp,,ACC018,"[0, -2, 0]","[2, 0, 0]",[],non-match,0.5917517095361369,3,-0.8415741449102057,-1.2916012708985045,0.5709058715762015,1st,1st,3rd,-1.2871701544289296,-1.2524243151822978,0.4786727566371458
perc,resp,1049,1,3.3.1left.bmp,1.1.3right.bmp,,ACC018,"[2, 2, -2]","[-2, -2, 2]",[],non-match,0.0,1,0.45440233691665943,0.03153140336581702,0.11625047587008062,3rd,3rd,3rd,0.3409615243403279,0.2646265317736461,0.4786727566371458
perc,resp,948,1,1.2.1left.bmp,3.3.3right.bmp,,ACC018,"[-2, 0, -2]","[2, 2, 2]",[],non-match,0.1339745962155613,1,0.19884790265131344,0.049162681160745764,0.20146721784358337,3rd,3rd,3rd,0.3409615243403279,0.2646265317736461,0.4786727566371458
perc,resp,1197,1,2.2.3left.bmp,1.1.1right.bmp,,ACC018,"[0, 0, 2]","[-2, -2, -2]",[],non-match,0.29289321881345254,1,0.9474552186526394,0.6138173165621336,0.2321126757830456,4th,4th,3rd,1.1393443810841772,1.210983776994628,0.4786727566371458
perc,resp,1246,1,1.2.2left.bmp,2.3.1right.bmp,,ACC018,"[-2, 0, 0]","[0, 2, -2]",[],non-match,0.5,3,-1.4301974013444843,-1.1366317225815672,0.11221924908378621,1st,1st,3rd,-1.2871701544289296,-1.2524243151822978,0.4786727566371458
perc,resp,2193,1,1.3.3left.bmp,1.3.3right.bmp,,ACC018,"[-2, 2, 2]","[-2, 2, 2]",[],match,1.0,,-1.246134651508061,0.045795240933628266,0.2868689341470685,1st,3rd,3rd,-1.2871701544289296,0.2646265317736461,0.4786727566371458
perc,resp,1739,1,1.1.2left.bmp,1.1.2right.bmp,,ACC018,"[-2, -2, 0]","[-2, -2, 0]",[],match,1.0,,-1.2266581686480507,-0.7742516577755262,-0.11465199126679801,1st,1st,2nd,-1.2871701544289296,-1.2524243151822978,-0.4440719259017925
perc,resp,1277,0,2.3.3left.bmp,2.3.3right.bmp,,ACC018,"[0, 2, 2]","[0, 2, 2]",[],match,1.0,,-0.2459863709096472,-0.5810023023821925,-0.35489970340464966,2nd,1st,2nd,-0.19313575099557567,-1.2524243151822978,-0.4440719259017925
perc,resp,1377,0,3.3.2left.bmp,3.2.2right.bmp,,ACC018,"[2, 2, 0]","[2, 0, 0]",[],non-match,0.7113248654051871,4,0.10691541729943943,2.3270339314136352,-0.6034906257245861,3rd,4th,2nd,0.3409615243403279,1.210983776994628,-0.4440719259017925
perc,resp,2154,1,1.3.2left.bmp,1.2.1right.bmp,,ACC018,"[-2, 2, 0]","[-2, 0, -2]",[],non-match,0.5917517095361369,3,-0.43260469723084777,0.15553599432262394,-0.6709709283679332,2nd,3rd,2nd,-0.19313575099557567,0.2646265317736461,-0.4440719259017925
perc,resp,1436,1,2.2.1left.bmp,2.2.1right.bmp,,ACC018,"[0, 0, -2]","[0, 0, -2]",[],match,1.0,,0.7011850715146499,-0.6428887525686082,-0.6043015199753737,4th,1st,2nd,1.1393443810841772,-1.2524243151822978,-0.4440719259017925
perc,resp,1686,1,2.1.2left.bmp,2.1.2right.bmp,,ACC018,"[0, -2, 0]","[0, -2, 0]",[],match,1.0,,-0.29893685014907584,1.7570391007660877,-0.5885527057374674,2nd,4th,2nd,-0.19313575099557567,1.210983776994628,-0.4440719259017925
perc,resp,2220,1,1.2.3left.bmp,3.2.3right.bmp,,ACC018,"[-2, 0, 2]","[2, 0, 2]",[],non-match,0.42264973081037416,2,-0.5862356803784322,-1.0016118010576667,-0.7088199786479983,1st,1st,2nd,-1.2871701544289296,-1.2524243151822978,-0.4440719259017925
perc,resp,1732,0,2.3.1left.bmp,3.3.2right.bmp,,ACC018,"[0, 2, -2]","[2, 2, 0]",[],non-match,0.5917517095361369,3,-0.3417784172470316,-0.4176105880474201,-0.7046030348777137,2nd,2nd,2nd,-0.19313575099557567,-0.22318599358597754,-0.4440719259017925
perc,resp,2080,0,1.1.1left.bmp,1.3.1right.bmp,,ACC018,"[-2, -2, -2]","[-2, 2, -2]",[],non-match,0.42264973081037416,2,-0.7058944645636266,-0.17166966427897176,-0.843095065880048,1st,2nd,2nd,-1.2871701544289296,-0.22318599358597754,-0.4440719259017925
perc,resp,1836,1,2.3.3left.bmp,2.3.3right.bmp,,ACC018,"[0, 2, 2]","[0, 2, 2]",[],match,1.0,,1.2309737963845795,-0.6853495273348178,-0.9438926398773414,4th,1st,1st,1.1393443810841772,-1.2524243151822978,-1.2892631362780567
perc,resp,1305,1,3.1.2left.bmp,3.1.2right.bmp,,ACC018,"[2, -2, 0]","[2, -2, 0]",[],match,1.0,,-1.807460799207226,-2.5247516849771183,-0.9419515638795516,1st,1st,1st,-1.2871701544289296,-1.2524243151822978,-1.2892631362780567
perc,resp,1738,0,2.2.3left.bmp,1.1.3right.bmp,,ACC018,"[0, 0, 2]","[-2, -2, 2]",[],non-match,0.5917517095361369,3,0.7420993145203423,0.7363136584824461,-0.9239424896795932,4th,4th,1st,1.1393443810841772,1.210983776994628,-1.2892631362780567
perc,resp,1407,1,3.1.1left.bmp,3.1.1right.bmp,,ACC018,"[2, -2, -2]","[2, -2, -2]",[],match,1.0,,-2.617126090844893,-2.872012193593822,-1.3132532506853527,1st,1st,1st,-1.2871701544289296,-1.2524243151822978,-1.2892631362780567
perc,resp,1800,1,1.2.1left.bmp,1.2.1right.bmp,,ACC018,"[-2, 0, -2]","[-2, 0, -2]",[],match,1.0,,1.8029905421681252,0.19661195253712474,-1.1547672785606649,4th,3rd,1st,1.1393443810841772,0.2646265317736461,-1.2892631362780567
perc,resp,1918,1,1.3.2left.bmp,1.1.1right.bmp,,ACC018,"[-2, 2, 0]","[-2, -2, -2]",[],non-match,0.3545027756320971,2,0.5635818338210866,-0.22714810937749866,-1.2315474790427956,3rd,2nd,1st,0.3409615243403279,-0.22318599358597754,-1.2892631362780567
perc,resp,1379,1,3.2.1left.bmp,3.2.1right.bmp,,ACC018,"[2, 0, -2]","[2, 0, -2]",[],match,1.0,,0.374250028918007,0.04376004809301814,-1.2926732812388342,3rd,3rd,1st,0.3409615243403279,0.2646265317736461,-1.2892631362780567
perc,resp,1329,1,3.1.3left.bmp,3.1.3right.bmp,,ACC018,"[2, -2, 2]","[2, -2, 2]",[],match,1.0,,-0.7608820310935407,-1.082713968347235,-1.1792141441790276,1st,1st,1st,-1.2871701544289296,-1.2524243151822978,-1.2892631362780567
perc,resp,1253,1,2.1.3left.bmp,2.1.3right.bmp,,ACC018,"[0, -2, 2]","[0, -2, 2]",[],match,1.0,,0.9708025822442107,0.8275798414728428,-1.2547348693197324,4th,4th,1st,1.1393443810841772,1.210983776994628,-1.2892631362780567
perc,resp,1172,1,1.1.3left.bmp,1.1.3right.bmp,,ACC018,"[-2, -2, 2]","[-2, -2, 2]",[],match,1.0,,0.2037433365455732,0.028987964110893612,-1.2294049209033593,3rd,3rd,1st,0.3409615243403279,0.2646265317736461,-1.2892631362780567
perc,resp,1284,0,3.2.3left.bmp,3.2.2right.bmp,,ACC018,"[2, 0, 2]","[2, 0, 0]",[],non-match,0.7113248654051871,4,-0.23219496239683698,-0.008307216346627276,-1.2111697429313737,2nd,2nd,1st,-0.19313575099557567,-0.22318599358597754,-1.2892631362780567
perc,resp,1221,1,2.3.2left.bmp,3.2.1right.bmp,,ACC018,"[0, 2, 0]","[2, 0, -2]",[],non-match,0.5,3,-0.27682806545136324,2.1630641472678955,-0.9553646456667112,2nd,4th,1st,-0.19313575099557567,1.210983776994628,-1.2892631362780567
perc,resp,1687,1,1.3.3left.bmp,1.3.3right.bmp,,ACC018,"[-2, 2, 2]","[-2, 2, 2]",[],match,1.0,,0.1750135889618668,0.0822766498649083,-1.0748352077259022,3rd,3rd,1st,0.3409615243403279,0.2646265317736461,-1.2892631362780567
perc,resp,1373,1,1.1.2left.bmp,1.1.2right.bmp,,ACC018,"[-2, -2, 0]","[-2, -2, 0]",[],match,1.0,,0.43359212354129023,-0.029458718147553572,-1.1290050848197744,3rd,2nd,1st,0.3409615243403279,-0.22318599358597754,-1.2892631362780567
perc,resp,1816,1,1.2.2left.bmp,2.2.2right.bmp,,ACC018,"[-2, 0, 0]","[0, 0, 0]",[],non-match,0.7113248654051871,4,0.10129554255523882,-0.3858272325651617,-0.8525800050769626,3rd,2nd,1st,0.3409615243403279,-0.22318599358597754,-1.2892631362780567
perc,resp,1647,1,2.1.2left.bmp,3.1.2right.bmp,,ACC018,"[0, -2, 0]","[2, -2, 0]",[],non-match,0.7113248654051871,4,-0.3311980691385158,0.15903677813672673,-0.7052027565186378,2nd,3rd,2nd,-0.19313575099557567,0.2646265317736461,-0.4440719259017925
perc,resp,1872,0,3.2.2left.bmp,2.1.3right.bmp,,ACC018,"[2, 0, 0]","[0, -2, 2]",[],non-match,0.5,3,-0.38723832643250444,0.8369450053580219,-0.7751514073569263,2nd,4th,2nd,-0.19313575099557567,1.210983776994628,-0.4440719259017925
perc,resp,1888,1,3.3.1left.bmp,3.1.3right.bmp,,ACC018,"[2, 2, -2]","[2, -2, 2]",[],non-match,0.18350341907227385,1,-1.5388333382310382,-0.02763719763445732,-0.7169296496426543,1st,2nd,2nd,-1.2871701544289296,-0.22318599358597754,-0.4440719259017925
perc,resp,1128,1,2.1.1left.bmp,2.1.1right.bmp,,ACC018,"[0, -2, -2]","[0, -2, -2]",[],match,1.0,,0.6435157977010768,0.36889271583897515,-0.5947239235434704,3rd,3rd,2nd,0.3409615243403279,0.2646265317736461,-0.4440719259017925
perc,resp,1669,1,3.3.3left.bmp,3.1.1right.bmp,,ACC018,"[2, 2, 2]","[2, -2, -2]",[],non-match,0.18350341907227385,1,-0.7389151989326358,1.152751134927587,-0.47051673772646435,1st,4th,2nd,-1.2871701544289296,1.210983776994628,-0.4440719259017925
perc,resp,1210,1,2.2.1left.bmp,2.2.1right.bmp,,ACC018,"[0, 0, -2]","[0, 0, -2]",[],match,1.0,,-0.12533921956048436,0.6771090209692483,-0.1690037397799457,2nd,4th,2nd,-0.19313575099557567,1.210983776994628,-0.4440719259017925
perc,resp,1481,0,1.3.1left.bmp,1.3.1right.bmp,,ACC018,"[-2, 2, -2]","[-2, 2, -2]",[],match,1.0,,-0.989988130465052,1.13842299192152,-0.3183770771315656,1st,4th,2nd,-1.2871701544289296,1.210983776994628,-0.4440719259017925
perc,resp,1874,0,2.2.2left.bmp,2.3.1right.bmp,,ACC018,"[0, 0, 0]","[0, 2, -2]",[],non-match,0.5917517095361369,3,-1.1283838893445242,0.003949251624651441,-0.259356368435577,1st,2nd,2nd,-1.2871701544289296,-0.22318599358597754,-0.4440719259017925
perc,resp,1587,1,3.3.2left.bmp,2.1.3right.bmp,,ACC018,"[2, 2, 0]","[0, -2, 2]",[],non-match,0.29289321881345254,1,0.28336229954800873,0.8848396957714938,-0.19806841274001627,3rd,4th,2nd,0.3409615243403279,1.210983776994628,-0.4440719259017925
perc,resp,1429,0,2.2.3left.bmp,1.1.2right.bmp,,ACC018,"[0, 0, 2]","[-2, -2, 0]",[],non-match,0.5,3,0.31830773057590633,0.4762700639772495,-0.43327170810316806,3rd,3rd,2nd,0.3409615243403279,0.2646265317736461,-0.4440719259017925
perc,resp,1358,1,1.1.1left.bmp,2.3.3right.bmp,,ACC018,"[-2, -2, -2]","[0, 2, 2]",[],non-match,0.1339745962155613,1,-0.3299181609331824,0.445216309932741,-0.5045033986822961,2nd,3rd,2nd,-0.19313575099557567,0.2646265317736461,-0.4440719259017925
perc,resp,1629,1,3.1.3left.bmp,2.2.1right.bmp,,ACC018,"[2, -2, 2]","[0, 0, -2]",[],non-match,0.29289321881345254,1,-0.9848391602949537,-0.31428363360263123,-0.22095160802290967,1st,2nd,2nd,-1.2871701544289296,-0.22318599358597754,-0.4440719259017925
perc,resp,1232,0,2.2.2left.bmp,1.2.1right.bmp,,ACC018,"[0, 0, 0]","[-2, 0, -2]",[],non-match,0.5917517095361369,3,0.3258547611266775,-0.3801869240508878,0.022579356207874036,3rd,2nd,3rd,0.3409615243403279,-0.22318599358597754,0.4786727566371458
perc,resp,2226,0,2.1.1left.bmp,2.1.1right.bmp,,ACC018,"[0, -2, -2]","[0, -2, -2]",[],match,1.0,,-0.4206809002340202,0.48321216499225556,0.03398668065310623,2nd,3rd,3rd,-0.19313575099557567,0.2646265317736461,0.4786727566371458
perc,resp,1277,1,1.2.3left.bmp,2.1.3right.bmp,,ACC018,"[-2, 0, 2]","[0, -2, 2]",[],non-match,0.5917517095361369,3,-0.18316254696724305,1.814431810524635,0.1312867658252971,2nd,4th,3rd,-0.19313575099557567,1.210983776994628,0.4786727566371458
perc,resp,1629,1,2.2.1left.bmp,3.1.3right.bmp,,ACC018,"[0, 0, -2]","[2, -2, 2]",[],non-match,0.29289321881345254,1,0.6364621304672459,1.872773184669343,0.25681869588928047,3rd,4th,3rd,0.3409615243403279,1.210983776994628,0.4786727566371458
perc,resp,1290,0,1.1.3left.bmp,2.2.3right.bmp,,ACC018,"[-2, -2, 2]","[0, 0, 2]",[],non-match,0.5917517095361369,3,-0.46424934906130283,0.1334697423567692,0.4698792138183208,2nd,3rd,3rd,-0.19313575099557567,0.2646265317736461,0.4786727566371458
perc,resp,1893,1,3.3.1left.bmp,3.1.1right.bmp,,ACC018,"[2, 2, -2]","[2, -2, -2]",[],non-match,0.42264973081037416,2,0.6950273102029305,1.0814628901013947,0.7264213037144056,4th,4th,3rd,1.1393443810841772,1.210983776994628,0.4786727566371458
perc,resp,1225,0,3.1.2left.bmp,3.2.2right.bmp,,ACC018,"[2, -2, 0]","[2, 0, 0]",[],non-match,0.7113248654051871,4,0.46884664905126894,0.707178031668838,0.6037419017965683,3rd,4th,3rd,0.3409615243403279,1.210983776994628,0.4786727566371458
perc,resp,1615,0,2.1.2left.bmp,2.1.2right.bmp,,ACC018,"[0, -2, 0]","[0, -2, 0]",[],match,1.0,,-0.1615581642112697,1.5683343465210118,0.5071627376411546,2nd,4th,3rd,-0.19313575099557567,1.210983776994628,0.4786727566371458
perc,resp,2462,1,2.3.2left.bmp,2.3.2right.bmp,,ACC018,"[0, 2, 0]","[0, 2, 0]",[],match,1.0,,-0.7953408634165439,0.013865235095477785,0.8589547200861706,1st,2nd,3rd,-1.2871701544289296,-0.22318599358597754,0.4786727566371458
perc,resp,2694,1,1.3.3left.bmp,1.3.3right.bmp,,ACC018,"[-2, 2, 2]","[-2, 2, 2]",[],match,1.0,,-1.151563238267548,0.9271952473156322,0.8879713507363953,1st,4th,3rd,-1.2871701544289296,1.210983776994628,0.4786727566371458
perc,resp,1587,1,3.2.3left.bmp,3.2.3right.bmp,,ACC018,"[2, 0, 2]","[2, 0, 2]",[],match,1.0,,0.010829584781544431,0.08122414174627578,0.8712086989226033,2nd,3rd,3rd,-0.19313575099557567,0.2646265317736461,0.4786727566371458
perc,resp,1558,0,3.2.2left.bmp,3.3.3right.bmp,,ACC018,"[2, 0, 0]","[2, 2, 2]",[],non-match,0.5917517095361369,3,0.5324861495945222,1.074147859990335,1.1754203742179739,3rd,4th,4th,0.3409615243403279,1.210983776994628,1.2546623055427037
perc,resp,1065,1,3.1.1left.bmp,1.2.3right.bmp,,ACC018,"[2, -2, -2]","[-2, 0, 2]",[],non-match,0.1339745962155613,1,0.6763568428824228,1.5510803697430222,0.8864201245702312,4th,4th,3rd,1.1393443810841772,1.210983776994628,0.4786727566371458
perc,resp,2112,0,2.3.3left.bmp,2.3.3right.bmp,,ACC018,"[0, 2, 2]","[0, 2, 2]",[],match,1.0,,-0.16930687820920817,1.199639986416726,1.1082464222061985,2nd,4th,4th,-0.19313575099557567,1.210983776994628,1.2546623055427037
perc,resp,1594,1,1.2.2left.bmp,1.1.3right.bmp,,ACC018,"[-2, 0, 0]","[-2, -2, 2]",[],non-match,0.5917517095361369,3,-0.47257479408485853,0.5583018586965047,0.5963827688570621,2nd,4th,3rd,-0.19313575099557567,1.210983776994628,0.4786727566371458
perc,resp,1255,1,3.3.3left.bmp,2.1.1right.bmp,,ACC018,"[2, 2, 2]","[0, -2, -2]",[],non-match,0.1339745962155613,1,-0.17052554528779618,0.4605737644092522,0.77137901921348,2nd,3rd,3rd,-0.19313575099557567,0.2646265317736461,0.4786727566371458
perc,resp,1424,1,1.2.1left.bmp,3.2.3right.bmp,,ACC018,"[-2, 0, -2]","[2, 0, 2]",[],non-match,0.18350341907227385,1,-0.6953411505857834,0.017291038344114926,0.7805331062978627,1st,2nd,3rd,-1.2871701544289296,-0.22318599358597754,0.4786727566371458
perc,resp,1455,1,1.3.2left.bmp,1.3.2right.bmp,,ACC018,"[-2, 2, 0]","[-2, 2, 0]",[],match,1.0,,-0.019884754564321438,1.1412125321210043,1.0432889194596269,2nd,4th,4th,-0.19313575099557567,1.210983776994628,1.2546623055427037
perc,resp,1576,0,3.2.1left.bmp,3.2.1right.bmp,,ACC018,"[2, 0, -2]","[2, 0, -2]",[],match,1.0,,0.009916546769746511,0.1859661553993791,1.0184586911011877,2nd,3rd,4th,-0.19313575099557567,0.2646265317736461,1.2546623055427037
perc,resp,1620,1,1.1.2left.bmp,2.1.2right.bmp,,ACC018,"[-2, -2, 0]","[0, -2, 0]",[],non-match,0.7113248654051871,4,-1.2995601477549368,-0.4899535057297707,0.9847705648318166,1st,2nd,4th,-1.2871701544289296,-0.22318599358597754,1.2546623055427037
perc,resp,1137,1,3.3.2left.bmp,1.3.3right.bmp,,ACC018,"[2, 2, 0]","[-2, 2, 2]",[],non-match,0.3545027756320971,2,1.1949752048828455,1.8625338912822138,0.9297352160283513,4th,4th,4th,1.1393443810841772,1.210983776994628,1.2546623055427037
perc,resp,1298,1,2.3.1left.bmp,2.3.1right.bmp,,ACC018,"[0, 2, -2]","[0, 2, -2]",[],match,1.0,,0.18857284930664756,1.8719274089843934,0.9017630622559627,3rd,4th,4th,0.3409615243403279,1.210983776994628,1.2546623055427037
perc,resp,1580,0,1.3.1left.bmp,1.3.1right.bmp,,ACC018,"[-2, 2, -2]","[-2, 2, -2]",[],match,1.0,,-0.27856494666342335,1.2194431750830397,1.067759544819164,2nd,4th,4th,-0.19313575099557567,1.210983776994628,1.2546623055427037
perc,resp,1461,0,2.1.3left.bmp,2.1.3right.bmp,,ACC018,"[0, -2, 2]","[0, -2, 2]",[],match,1.0,,-0.018473260928845266,0.33565716104379884,1.1452031795380917,2nd,3rd,4th,-0.19313575099557567,0.2646265317736461,1.2546623055427037
perc,resp,1109,1,3.1.2left.bmp,1.2.3right.bmp,,ACC018,"[2, -2, 0]","[-2, 0, 2]",[],non-match,0.29289321881345254,1,-0.13922361195321853,1.403746381251332,1.175507682638504,2nd,4th,4th,-0.19313575099557567,1.210983776994628,1.2546623055427037
perc,resp,1358,0,3.3.1left.bmp,3.2.2right.bmp,,ACC018,"[2, 2, -2]","[2, 0, 0]",[],non-match,0.5917517095361369,3,-0.2837428108400932,-0.16568026000434097,1.1605441851982798,2nd,2nd,4th,-0.19313575099557567,-0.22318599358597754,1.2546623055427037
perc,resp,1541,0,2.3.3left.bmp,2.3.3right.bmp,,ACC018,"[0, 2, 2]","[0, 2, 2]",[],match,1.0,,-1.3608553807198596,0.22622492519801587,1.2456395433500231,1st,3rd,4th,-1.2871701544289296,0.2646265317736461,1.2546623055427037
perc,resp,1331,1,2.2.3left.bmp,2.2.3right.bmp,,ACC018,"[0, 0, 2]","[0, 0, 2]",[],match,1.0,,-0.061126106758547204,1.4090743520973483,1.3194041236856913,2nd,4th,4th,-0.19313575099557567,1.210983776994628,1.2546623055427037
perc,resp,1551,1,2.2.2left.bmp,1.2.2right.bmp,,ACC018,"[0, 0, 0]","[-2, 0, 0]",[],non-match,0.7113248654051871,4,-0.6467053205137283,0.6469557552895008,1.1714790925297207,1st,4th,4th,-1.2871701544289296,1.210983776994628,1.2546623055427037
perc,resp,1350,1,1.2.3left.bmp,1.2.3right.bmp,,ACC018,"[-2, 0, 2]","[-2, 0, 2]",[],match,1.0,,0.13506848763618917,0.6568729696895084,1.1075544269380142,3rd,4th,4th,0.3409615243403279,1.210983776994628,1.2546623055427037
perc,resp,1178,1,3.1.3left.bmp,3.3.1right.bmp,,ACC018,"[2, -2, 2]","[2, 2, -2]",[],non-match,0.18350341907227385,1,-0.3882798535986683,0.7113022386673586,0.9888880285205877,2nd,4th,4th,-0.19313575099557567,1.210983776994628,1.2546623055427037
perc,resp,1279,0,3.1.1left.bmp,3.1.1right.bmp,,ACC018,"[2, -2, -2]","[2, -2, -2]",[],match,1.0,,0.5951611387726508,0.8884946216311594,0.8245358881206606,3rd,4th,3rd,0.3409615243403279,1.210983776994628,0.4786727566371458
perc,resp,1064,1,3.2.1left.bmp,2.3.2right.bmp,,ACC018,"[2, 0, -2]","[0, 2, 0]",[],non-match,0.5,3,-0.5265766352981931,2.2952344465145202,0.8203869378306181,1st,4th,3rd,-1.2871701544289296,1.210983776994628,0.4786727566371458
perc,resp,1637,1,1.3.2left.bmp,1.3.2right.bmp,,ACC018,"[-2, 2, 0]","[-2, 2, 0]",[],match,1.0,,0.6056974047439723,0.49755232016929796,0.6633927517919482,3rd,3rd,3rd,0.3409615243403279,0.2646265317736461,0.4786727566371458
perc,resp,1709,1,1.3.3left.bmp,1.3.3right.bmp,,ACC018,"[-2, 2, 2]","[-2, 2, 2]",[],match,1.0,,0.35944544930942457,0.021128566180929412,0.7313283843908744,3rd,2nd,3rd,0.3409615243403279,-0.22318599358597754,0.4786727566371458
perc,resp,1319,1,3.2.2left.bmp,3.2.2right.bmp,,ACC018,"[2, 0, 0]","[2, 0, 0]",[],match,1.0,,0.8041280124442532,-0.2610939103101979,0.8012420134771109,4th,2nd,3rd,1.1393443810841772,-0.22318599358597754,0.4786727566371458
perc,resp,1348,0,2.3.1left.bmp,3.3.1right.bmp,,ACC018,"[0, 2, -2]","[2, 2, -2]",[],non-match,0.7113248654051871,4,1.612986967511387,1.8283828222970993,0.8231930859631795,4th,4th,3rd,1.1393443810841772,1.210983776994628,0.4786727566371458
perc,resp,1338,1,3.1.3left.bmp,1.3.2right.bmp,,ACC018,"[2, -2, 2]","[-2, 2, 0]",[],non-match,0.1339745962155613,1,0.6541944378479221,-0.23371460720891904,0.9579936120296386,4th,2nd,4th,1.1393443810841772,-0.22318599358597754,1.2546623055427037
perc,resp,1659,1,3.2.1left.bmp,2.3.3right.bmp,,ACC018,"[2, 0, -2]","[0, 2, 2]",[],non-match,0.29289321881345254,1,1.4697393047212175,0.3829258602999062,1.014630072126126,4th,3rd,4th,1.1393443810841772,0.2646265317736461,1.2546623055427037
perc,resp,1391,1,1.3.1left.bmp,1.3.1right.bmp,,ACC018,"[-2, 2, -2]","[-2, 2, -2]",[],match,1.0,,0.738984412086628,0.49614570768191585,1.1341112404641995,4th,3rd,4th,1.1393443810841772,0.2646265317736461,1.2546623055427037
perc,resp,1976,0,2.1.2left.bmp,3.1.2right.bmp,,ACC018,"[0, -2, 0]","[2, -2, 0]",[],non-match,0.7113248654051871,4,-0.7945776573308647,-0.30697556460832,1.0124152518258094,1st,2nd,4th,-1.2871701544289296,-0.22318599358597754,1.2546623055427037
perc,resp,1306,1,2.2.3left.bmp,2.2.3right.bmp,,ACC018,"[0, 0, 2]","[0, 0, 2]",[],match,1.0,,0.13622241003038146,-0.3147944692128082,0.9471065345993999,3rd,2nd,4th,0.3409615243403279,-0.22318599358597754,1.2546623055427037
perc,resp,1397,1,1.2.1left.bmp,1.2.1right.bmp,,ACC018,"[-2, 0, -2]","[-2, 0, -2]",[],match,1.0,,0.06759474981233396,-0.1839944488198041,0.9877575984183998,2nd,2nd,4th,-0.19313575099557567,-0.22318599358597754,1.2546623055427037
perc,resp,1348,1,3.1.1left.bmp,3.1.1right.bmp,,ACC018,"[2, -2, -2]","[2, -2, -2]",[],match,1.0,,0.44542709830102195,0.6650446416189798,0.9438207005739346,3rd,4th,4th,0.3409615243403279,1.210983776994628,1.2546623055427037
perc,resp,1265,1,2.2.1left.bmp,1.1.2right.bmp,,ACC018,"[0, 0, -2]","[-2, -2, 0]",[],non-match,0.5,3,0.24768020267139773,0.5550405754998031,1.0429480214070903,3rd,3rd,4th,0.3409615243403279,0.2646265317736461,1.2546623055427037
perc,resp,2489,1,2.3.3left.bmp,2.3.3right.bmp,,ACC018,"[0, 2, 2]","[0, 2, 2]",[],match,1.0,,1.518201871371836,-0.006778126405720671,1.0301473686145364,4th,2nd,4th,1.1393443810841772,-0.22318599358597754,1.2546623055427037
perc,resp,2164,0,1.1.3left.bmp,1.3.1right.bmp,,ACC018,"[-2, -2, 2]","[-2, 2, -2]",[],non-match,0.18350341907227385,1,-4.465912292527308,-4.305779360724321,0.9695813557346277,1st,1st,4th,-1.2871701544289296,-1.2524243151822978,1.2546623055427037
perc,resp,1122,1,1.1.2left.bmp,1.1.2right.bmp,,ACC018,"[-2, -2, 0]","[-2, -2, 0]",[],match,1.0,,1.4020403963490762,1.7924755993829908,0.9335096283730199,4th,4th,4th,1.1393443810841772,1.210983776994628,1.2546623055427037
perc,resp,1117,1,3.1.2left.bmp,3.1.2right.bmp,,ACC018,"[2, -2, 0]","[2, -2, 0]",[],match,1.0,,1.9642330028764567,1.4356549519433968,1.0212706809924568,4th,4th,4th,1.1393443810841772,1.210983776994628,1.2546623055427037
perc,resp,2436,1,1.2.2left.bmp,2.3.1right.bmp,,ACC018,"[-2, 0, 0]","[0, 2, -2]",[],non-match,0.5,3,-1.0219428721812571,-0.9221641087021465,0.9816634715028563,1st,1st,4th,-1.2871701544289296,-1.2524243151822978,1.2546623055427037
perc,resp,1770,1,3.2.3left.bmp,3.2.3right.bmp,,ACC018,"[2, 0, 2]","[2, 0, 2]",[],match,1.0,,-0.6278269547398437,0.014349457167841114,1.0206894177201413,1st,2nd,4th,-1.2871701544289296,-0.22318599358597754,1.2546623055427037
perc,resp,1319,1,3.3.3left.bmp,1.3.3right.bmp,,ACC018,"[2, 2, 2]","[-2, 2, 2]",[],non-match,0.42264973081037416,2,1.0482963367673908,0.49819304003100223,0.6332850109926584,4th,3rd,3rd,1.1393443810841772,0.2646265317736461,0.4786727566371458
perc,resp,1994,1,1.2.3left.bmp,1.2.1right.bmp,,ACC018,"[-2, 0, 2]","[-2, 0, -2]",[],non-match,0.42264973081037416,2,0.7456783961773102,0.4994568222875371,0.4273332239945303,4th,3rd,3rd,1.1393443810841772,0.2646265317736461,0.4786727566371458
perc,resp,1244,1,1.1.1left.bmp,3.1.2right.bmp,,ACC018,"[-2, -2, -2]","[2, -2, 0]",[],non-match,0.3545027756320971,2,0.8048918328358918,0.21488373796458854,0.13577900764845732,4th,3rd,3rd,1.1393443810841772,0.2646265317736461,0.4786727566371458
perc,resp,2393,1,1.3.2left.bmp,1.3.2right.bmp,,ACC018,"[-2, 2, 0]","[-2, 2, 0]",[],match,1.0,,0.9611308479218125,0.4945067042542994,0.06508080990544354,4th,3rd,3rd,1.1393443810841772,0.2646265317736461,0.4786727566371458
perc,resp,1353,1,3.3.1left.bmp,3.3.1right.bmp,,ACC018,"[2, 2, -2]","[2, 2, -2]",[],match,1.0,,0.11257899659659397,-0.500071000796718,-0.20933351885731738,3rd,2nd,2nd,0.3409615243403279,-0.22318599358597754,-0.4440719259017925
perc,resp,1501,1,3.3.2left.bmp,3.3.2right.bmp,,ACC018,"[2, 2, 0]","[2, 2, 0]",[],match,1.0,,-0.39874249101594994,0.12354425101916397,-0.03243637599984142,2nd,3rd,2nd,-0.19313575099557567,0.2646265317736461,-0.4440719259017925
perc,resp,1251,1,2.3.2left.bmp,1.1.2right.bmp,,ACC018,"[0, 2, 0]","[-2, -2, 0]",[],non-match,0.3545027756320971,2,0.6728993532729042,-0.07416368904016599,0.13799898942466776,4th,2nd,3rd,1.1393443810841772,-0.22318599358597754,0.4786727566371458
perc,resp,1030,1,2.1.3left.bmp,3.2.1right.bmp,,ACC018,"[0, -2, 2]","[2, 0, -2]",[],non-match,0.29289321881345254,1,0.7603263538901974,0.21836756466807541,-0.12638987460164403,4th,3rd,2nd,1.1393443810841772,0.2646265317736461,-0.4440719259017925
perc,resp,2589,1,2.2.2left.bmp,2.2.2right.bmp,,ACC018,"[0, 0, 0]","[0, 0, 0]",[],match,1.0,,0.007038017604263563,0.25714883743683,-0.29256511783210587,2nd,3rd,2nd,-0.19313575099557567,0.2646265317736461,-0.4440719259017925
perc,resp,2063,0,3.3.3left.bmp,3.2.2right.bmp,,ACC018,"[2, 2, 2]","[2, 0, 0]",[],non-match,0.5917517095361369,3,0.11680705561767869,0.15700167018778394,-0.17723941282419226,3rd,3rd,2nd,0.3409615243403279,0.2646265317736461,-0.4440719259017925
perc,resp,1407,1,2.3.3left.bmp,2.3.3right.bmp,,ACC018,"[0, 2, 2]","[0, 2, 2]",[],match,1.0,,-0.5002283314031111,-0.426832709472583,-0.23939040873663106,2nd,2nd,2nd,-0.19313575099557567,-0.22318599358597754,-0.4440719259017925
perc,resp,1718,1,1.3.1left.bmp,1.3.1right.bmp,,ACC018,"[-2, 2, -2]","[-2, 2, -2]",[],match,1.0,,0.2627118466796227,-0.3804246843891017,-0.5938213532019557,3rd,2nd,2nd,0.3409615243403279,-0.22318599358597754,-0.4440719259017925
perc,resp,753,1,2.1.1left.bmp,1.1.3right.bmp,,ACC018,"[0, -2, -2]","[-2, -2, 2]",[],non-match,0.3545027756320971,2,0.6969583043364069,0.8722593448651546,-0.3384406150461272,4th,4th,2nd,1.1393443810841772,1.210983776994628,-0.4440719259017925
perc,resp,1262,1,1.2.2left.bmp,2.2.1right.bmp,,ACC018,"[-2, 0, 0]","[0, 0, -2]",[],non-match,0.5917517095361369,3,0.7060371996495448,0.40018926005300703,-0.3831862243652814,4th,3rd,2nd,1.1393443810841772,0.2646265317736461,-0.4440719259017925
perc,resp,1423,1,1.3.2left.bmp,2.1.2right.bmp,,ACC018,"[-2, 2, 0]","[0, -2, 0]",[],non-match,0.3545027756320971,2,0.24642397355818202,0.14403540176023819,-0.00839938670630472,3rd,3rd,2nd,0.3409615243403279,0.2646265317736461,-0.4440719259017925
perc,resp,1343,1,1.3.3left.bmp,1.3.3right.bmp,,ACC018,"[-2, 2, 2]","[-2, 2, 2]",[],match,1.0,,-0.20083383165443755,-0.5642328872432371,0.020347893316668992,2nd,1st,3rd,-0.19313575099557567,-1.2524243151822978,0.4786727566371458
perc,resp,2139,0,3.1.1left.bmp,3.1.1right.bmp,,ACC018,"[2, -2, -2]","[2, -2, -2]",[],match,1.0,,-0.7906523244779774,-0.36781491851991704,0.23054626138911843,1st,2nd,3rd,-1.2871701544289296,-0.22318599358597754,0.4786727566371458
perc,resp,1410,0,2.2.1left.bmp,2.2.2right.bmp,,ACC018,"[0, 0, -2]","[0, 0, 0]",[],non-match,0.7113248654051871,4,0.43793122605415946,0.6825504919749332,0.2671466270004225,3rd,4th,3rd,0.3409615243403279,1.210983776994628,0.4786727566371458
perc,resp,994,1,2.1.3left.bmp,3.1.2right.bmp,,ACC018,"[0, -2, 2]","[2, -2, 0]",[],non-match,0.5917517095361369,3,0.08137559675115152,-0.36938961650927615,0.31546671292072653,2nd,2nd,3rd,-0.19313575099557567,-0.22318599358597754,0.4786727566371458
perc,resp,1467,1,2.2.3left.bmp,2.3.2right.bmp,,ACC018,"[0, 0, 2]","[0, 2, 0]",[],non-match,0.5917517095361369,3,0.6140358842243956,0.2014253100937531,0.355946724669535,3rd,3rd,3rd,0.3409615243403279,0.2646265317736461,0.4786727566371458
perc,resp,1154,1,3.3.1left.bmp,3.3.1right.bmp,,ACC018,"[2, 2, -2]","[2, 2, -2]",[],match,1.0,,0.37397362497526415,0.03371511417900778,0.42145657602546044,3rd,3rd,3rd,0.3409615243403279,0.2646265317736461,0.4786727566371458
perc,resp,1183,1,2.3.1left.bmp,2.3.1right.bmp,,ACC018,"[0, 2, -2]","[0, 2, -2]",[],match,1.0,,-0.6236351180232353,-0.8345414336421156,0.33181825612908916,1st,1st,3rd,-1.2871701544289296,-1.2524243151822978,0.4786727566371458
perc,resp,1162,1,3.1.3left.bmp,3.1.3right.bmp,,ACC018,"[2, -2, 2]","[2, -2, 2]",[],match,1.0,,1.9086119430677937,0.30873274994370464,0.11827816550584157,4th,3rd,3rd,1.1393443810841772,0.2646265317736461,0.4786727566371458
perc,resp,1715,1,2.3.2left.bmp,2.3.3right.bmp,,ACC018,"[0, 2, 0]","[0, 2, 2]",[],non-match,0.7113248654051871,4,-0.9389446654424907,-0.42896495471225204,0.05251963657724031,1st,2nd,3rd,-1.2871701544289296,-0.22318599358597754,0.4786727566371458
perc,resp,920,1,1.1.3left.bmp,1.2.1right.bmp,,ACC018,"[-2, -2, 2]","[-2, 0, -2]",[],non-match,0.3545027756320971,2,0.4195778738501366,0.008750045214465174,0.16325013406870015,3rd,2nd,3rd,0.3409615243403279,-0.22318599358597754,0.4786727566371458
perc,resp,1271,1,3.2.3left.bmp,3.2.3right.bmp,,ACC018,"[2, 0, 2]","[2, 0, 2]",[],match,1.0,,0.16337567517685223,-0.16328576318033658,0.1477761921541525,3rd,2nd,3rd,0.3409615243403279,-0.22318599358597754,0.4786727566371458
perc,resp,1197,1,1.2.3left.bmp,2.2.3right.bmp,,ACC018,"[-2, 0, 2]","[0, 0, 2]",[],non-match,0.7113248654051871,4,-0.2667207273100626,-0.15629128400638112,0.2570703883446963,2nd,2nd,3rd,-0.19313575099557567,-0.22318599358597754,0.4786727566371458
perc,resp,1338,1,2.2.2left.bmp,3.3.1right.bmp,,ACC018,"[0, 0, 0]","[2, 2, -2]",[],non-match,0.5,3,-0.041280472585689204,-0.24895202486735069,0.4136986051225467,2nd,2nd,3rd,-0.19313575099557567,-0.22318599358597754,0.4786727566371458
perc,resp,1218,1,1.2.1left.bmp,2.2.1right.bmp,,ACC018,"[-2, 0, -2]","[0, 0, -2]",[],non-match,0.7113248654051871,4,0.44136412396086383,0.25744447266947446,0.32182897187629766,3rd,3rd,3rd,0.3409615243403279,0.2646265317736461,0.4786727566371458
perc,resp,1155,0,3.3.2left.bmp,2.1.1right.bmp,,ACC018,"[2, 2, 0]","[0, -2, -2]",[],non-match,0.29289321881345254,1,1.341415921945662,-0.4807126869148043,0.520900107250104,4th,2nd,3rd,1.1393443810841772,-0.22318599358597754,0.4786727566371458
perc,resp,1456,1,3.2.1left.bmp,3.2.1right.bmp,,ACC018,"[2, 0, -2]","[2, 0, -2]",[],match,1.0,,-1.394726289598676,-1.408453929860754,0.5957598516172655,1st,1st,3rd,-1.2871701544289296,-1.2524243151822978,0.4786727566371458
perc,resp,1085,1,3.2.2left.bmp,3.2.2right.bmp,,ACC018,"[2, 0, 0]","[2, 0, 0]",[],match,1.0,,1.6677672082318409,0.20685769769099724,0.5832589561874774,4th,3rd,3rd,1.1393443810841772,0.2646265317736461,0.4786727566371458
perc,resp,982,0,3.1.2left.bmp,3.1.3right.bmp,,ACC018,"[2, -2, 0]","[2, -2, 2]",[],non-match,0.7113248654051871,4,0.7752472448480553,0.743807215770607,0.6159984024652213,4th,4th,3rd,1.1393443810841772,1.210983776994628,0.4786727566371458
perc,resp,2521,1,1.1.2left.bmp,1.1.2right.bmp,,ACC018,"[-2, -2, 0]","[-2, -2, 0]",[],match,1.0,,0.16535655595667645,0.17962903485399065,0.5604337665609964,3rd,3rd,3rd,0.3409615243403279,0.2646265317736461,0.4786727566371458
perc,resp,1423,1,2.1.2left.bmp,2.1.2right.bmp,,ACC018,"[0, -2, 0]","[0, -2, 0]",[],match,1.0,,1.2295874991839004,3.232744916460819,0.16263379665217914,4th,4th,3rd,1.1393443810841772,1.210983776994628,0.4786727566371458
perc,resp,990,1,1.1.1left.bmp,3.2.1right.bmp,,ACC018,"[-2, -2, -2]","[2, 0, -2]",[],non-match,0.3545027756320971,2,2.168472060132403,0.22209312039523935,0.012942265955755134,4th,3rd,2nd,1.1393443810841772,0.2646265317736461,-0.4440719259017925
perc,resp,1556,1,1.2.3left.bmp,1.2.3right.bmp,,ACC018,"[-2, 0, 2]","[-2, 0, 2]",[],match,1.0,,1.6691141315341993,0.45831127412846784,-0.11425846486559486,4th,3rd,2nd,1.1393443810841772,0.2646265317736461,-0.4440719259017925
perc,resp,1015,1,1.1.3left.bmp,1.1.3right.bmp,,ACC018,"[-2, -2, 2]","[-2, -2, 2]",[],match,1.0,,0.8512200670441442,0.048004631476288,-0.18542277520067893,4th,3rd,2nd,1.1393443810841772,0.2646265317736461,-0.4440719259017925
perc,resp,2008,0,2.1.2left.bmp,2.1.2right.bmp,,ACC018,"[0, -2, 0]","[0, -2, 0]",[],match,1.0,,-0.2543918138721434,-0.5004332335426461,-0.4362830955340423,2nd,2nd,2nd,-0.19313575099557567,-0.22318599358597754,-0.4440719259017925
perc,resp,1068,1,1.1.2left.bmp,3.2.2right.bmp,,ACC018,"[-2, -2, 0]","[2, 0, 0]",[],non-match,0.3545027756320971,2,0.8493205223957385,-0.045688901413498635,-0.5334120257167301,4th,2nd,2nd,1.1393443810841772,-0.22318599358597754,-0.4440719259017925
perc,resp,1065,1,1.3.3left.bmp,1.3.3right.bmp,,ACC018,"[-2, 2, 2]","[-2, 2, 2]",[],match,1.0,,0.3841813165450666,-0.48965606654918803,-0.49286039669312526,3rd,2nd,2nd,0.3409615243403279,-0.22318599358597754,-0.4440719259017925
perc,resp,1314,0,1.2.1left.bmp,1.3.2right.bmp,,ACC018,"[-2, 0, -2]","[-2, 2, 0]",[],non-match,0.5917517095361369,3,-0.6756674946316436,-0.8983823659161086,-0.6558246433108255,1st,1st,2nd,-1.2871701544289296,-1.2524243151822978,-0.4440719259017925
perc,resp,1323,1,2.1.3left.bmp,2.1.3right.bmp,,ACC018,"[0, -2, 2]","[0, -2, 2]",[],match,1.0,,-0.7702426276857961,-0.08146441490522419,-0.7423882885281854,1st,2nd,2nd,-1.2871701544289296,-0.22318599358597754,-0.4440719259017925
perc,resp,2048,1,2.1.1left.bmp,1.1.1right.bmp,,ACC018,"[0, -2, -2]","[-2, -2, -2]",[],non-match,0.7113248654051871,4,-0.8422753995877258,-0.9304821126437562,-0.8925927744021748,1st,1st,1st,-1.2871701544289296,-1.2524243151822978,-1.2892631362780567
perc,resp,1470,0,2.3.2left.bmp,2.3.2right.bmp,,ACC018,"[0, 2, 0]","[0, 2, 0]",[],match,1.0,,-0.16792942289024831,0.4429407463351365,-1.0921338893069132,2nd,3rd,1st,-0.19313575099557567,0.2646265317736461,-1.2892631362780567
perc,resp,1059,1,2.2.3left.bmp,3.1.1right.bmp,,ACC018,"[0, 0, 2]","[2, -2, -2]",[],non-match,0.29289321881345254,1,0.7806732016901972,0.05792698182218929,-0.7647070413362794,4th,3rd,2nd,1.1393443810841772,0.2646265317736461,-0.4440719259017925
perc,resp,1336,1,3.3.3left.bmp,3.3.3right.bmp,,ACC018,"[2, 2, 2]","[2, 2, 2]",[],match,1.0,,0.6483535730815683,0.553527890873673,-0.7230098310732375,4th,3rd,2nd,1.1393443810841772,0.2646265317736461,-0.4440719259017925
perc,resp,1585,1,3.3.3left.bmp,3.3.3right.bmp,,ACC018,"[2, 2, 2]","[2, 2, 2]",[],match,1.0,,1.820100244677301,-0.11497866904534604,-0.7039369910705601,4th,2nd,2nd,1.1393443810841772,-0.22318599358597754,-0.4440719259017925
perc,resp,1426,1,1.1.2left.bmp,1.1.2right.bmp,,ACC018,"[-2, -2, 0]","[-2, -2, 0]",[],match,1.0,,-0.012390094211449296,-0.11672285324919995,-0.8030690717803227,2nd,2nd,2nd,-0.19313575099557567,-0.22318599358597754,-0.4440719259017925
perc,resp,1780,1,2.1.3left.bmp,2.3.3right.bmp,,ACC018,"[0, -2, 2]","[0, 2, 2]",[],non-match,0.42264973081037416,2,0.07150208254800194,-0.1847548659329166,-0.7457267459237953,2nd,2nd,2nd,-0.19313575099557567,-0.22318599358597754,-0.4440719259017925
perc,resp,1521,1,2.2.3left.bmp,3.1.3right.bmp,,ACC018,"[0, 0, 2]","[2, -2, 2]",[],non-match,0.5917517095361369,3,0.24267092141399135,1.313827259243451,-0.6977712283062337,3rd,4th,2nd,0.3409615243403279,1.210983776994628,-0.4440719259017925
perc,resp,1080,1,2.2.2left.bmp,2.2.2right.bmp,,ACC018,"[0, 0, 0]","[0, 0, 0]",[],match,1.0,,1.3064131846142601,0.0779360327825921,-0.4988066366015112,4th,3rd,2nd,1.1393443810841772,0.2646265317736461,-0.4440719259017925
perc,resp,1177,1,3.3.1left.bmp,1.1.2right.bmp,,ACC018,"[2, 2, -2]","[-2, -2, 0]",[],non-match,0.1339745962155613,1,0.7921769020071817,0.38860477330005094,-0.3777901063256589,4th,3rd,2nd,1.1393443810841772,0.2646265317736461,-0.4440719259017925
perc,resp,1206,1,3.2.1left.bmp,3.2.1right.bmp,,ACC018,"[2, 0, -2]","[2, 0, -2]",[],match,1.0,,0.6479008921273939,-0.3350377787301335,-0.16529696482606948,4th,2nd,2nd,1.1393443810841772,-0.22318599358597754,-0.4440719259017925
perc,resp,1427,1,2.3.2left.bmp,2.1.1right.bmp,,ACC018,"[0, 2, 0]","[0, -2, -2]",[],non-match,0.3545027756320971,2,0.14998431500218803,-1.1737775361498306,-0.23933085722399863,3rd,1st,2nd,0.3409615243403279,-1.2524243151822978,-0.4440719259017925
perc,resp,1175,1,2.2.1left.bmp,2.2.1right.bmp,,ACC018,"[0, 0, -2]","[0, 0, -2]",[],match,1.0,,0.39154857213580146,-0.6308199164057873,-0.0004027331222615431,3rd,1st,2nd,0.3409615243403279,-1.2524243151822978,-0.4440719259017925
perc,resp,1124,0,1.3.1left.bmp,1.2.3right.bmp,,ACC018,"[-2, 2, -2]","[-2, 0, 2]",[],non-match,0.3545027756320971,2,-0.052761544525746475,0.11597034376755838,-0.36402056193660876,2nd,3rd,2nd,-0.19313575099557567,0.2646265317736461,-0.4440719259017925
perc,resp,1140,1,1.3.2left.bmp,2.1.2right.bmp,,ACC018,"[-2, 2, 0]","[0, -2, 0]",[],non-match,0.3545027756320971,2,0.23883501213554784,-0.7573349449817125,-0.4269473588026448,3rd,1st,2nd,0.3409615243403279,-1.2524243151822978,-0.4440719259017925
perc,resp,1159,1,1.1.3left.bmp,3.2.3right.bmp,,ACC018,"[-2, -2, 2]","[2, 0, 2]",[],non-match,0.3545027756320971,2,0.4244149125916794,-0.702411861173053,-0.22705949429312042,3rd,1st,2nd,0.3409615243403279,-1.2524243151822978,-0.4440719259017925
perc,resp,1310,1,1.1.1left.bmp,1.1.1right.bmp,,ACC018,"[-2, -2, -2]","[-2, -2, -2]",[],match,1.0,,0.03992862875738911,-1.3267380170368817,-0.12405102792642382,2nd,1st,2nd,-0.19313575099557567,-1.2524243151822978,-0.4440719259017925
perc,resp,1095,1,3.3.2left.bmp,3.3.2right.bmp,,ACC018,"[2, 2, 0]","[2, 2, 0]",[],match,1.0,,1.1631443550220866,-0.1888234264432826,-0.5285522901775932,4th,2nd,2nd,1.1393443810841772,-0.22318599358597754,-0.4440719259017925
perc,resp,1092,1,3.1.2left.bmp,1.3.3right.bmp,,ACC018,"[2, -2, 0]","[-2, 2, 2]",[],non-match,0.1339745962155613,1,0.8328214518278053,-0.4370343958509372,-0.4967101314802763,4th,2nd,2nd,1.1393443810841772,-0.22318599358597754,-0.4440719259017925
perc,resp,1071,0,3.2.2left.bmp,3.3.3right.bmp,,ACC018,"[2, 0, 0]","[2, 2, 2]",[],non-match,0.5917517095361369,3,-3.9927123251333243,-3.4355500791070717,-0.6042453084916892,1st,1st,2nd,-1.2871701544289296,-1.2524243151822978,-0.4440719259017925
perc,resp,1068,1,3.2.3left.bmp,3.2.3right.bmp,,ACC018,"[2, 0, 2]","[2, 0, 2]",[],match,1.0,,0.9808014052024092,0.2574297439651345,-0.4591321696351759,4th,3rd,2nd,1.1393443810841772,0.2646265317736461,-0.4440719259017925
perc,resp,1399,1,1.2.2left.bmp,1.2.2right.bmp,,ACC018,"[-2, 0, 0]","[-2, 0, 0]",[],match,1.0,,0.7112336619510198,-0.08677655345522063,-0.4586172353137355,4th,2nd,2nd,1.1393443810841772,-0.22318599358597754,-0.4440719259017925
perc,resp,1500,0,2.1.2left.bmp,2.1.2right.bmp,,ACC018,"[0, -2, 0]","[0, -2, 0]",[],match,1.0,,1.0175716617293353,0.012320800985641173,-0.42711632309577385,4th,2nd,2nd,1.1393443810841772,-0.22318599358597754,-0.4440719259017925
perc,resp,1439,1,2.3.1left.bmp,1.2.3right.bmp,,ACC018,"[0, 2, -2]","[-2, 0, 2]",[],non-match,0.29289321881345254,1,0.9290715840100292,0.3795756106354911,-0.4392642034611275,4th,3rd,2nd,1.1393443810841772,0.2646265317736461,-0.4440719259017925
perc,resp,997,1,1.3.3left.bmp,3.3.2right.bmp,,ACC018,"[-2, 2, 2]","[2, 2, 0]",[],non-match,0.3545027756320971,2,1.5096242423029942,-0.10694070149244765,-0.7871699691791948,4th,2nd,2nd,1.1393443810841772,-0.22318599358597754,-0.4440719259017925
perc,resp,1054,0,3.1.1left.bmp,3.2.1right.bmp,,ACC018,"[2, -2, -2]","[2, 0, -2]",[],non-match,0.7113248654051871,4,0.4739996221387612,-0.19002099319903804,-0.9270063978036156,3rd,2nd,1st,0.3409615243403279,-0.22318599358597754,-1.2892631362780567
perc,resp,1867,1,1.2.1left.bmp,1.2.1right.bmp,,ACC018,"[-2, 0, -2]","[-2, 0, -2]",[],match,1.0,,-0.038295580807709166,-0.4522836558970088,-0.8915823891745042,2nd,2nd,1st,-0.19313575099557567,-0.22318599358597754,-1.2892631362780567
perc,resp,2315,0,3.1.3left.bmp,2.3.1right.bmp,,ACC018,"[2, -2, 2]","[0, 2, -2]",[],non-match,0.1339745962155613,1,-1.2336659771164804,-1.8066564704943593,-0.8864991773664569,1st,1st,1st,-1.2871701544289296,-1.2524243151822978,-1.2892631362780567
perc,resp,1255,1,2.1.1left.bmp,2.1.1right.bmp,,ACC018,"[0, -2, -2]","[0, -2, -2]",[],match,1.0,,0.35225412594755495,0.18821035152578144,-0.865289848640905,3rd,3rd,1st,0.3409615243403279,0.2646265317736461,-1.2892631362780567
perc,resp,1044,1,1.2.3left.bmp,1.2.3right.bmp,,ACC018,"[-2, 0, 2]","[-2, 0, 2]",[],match,1.0,,1.6951164625831712,1.0431794645176642,-0.898576365055824,4th,4th,1st,1.1393443810841772,1.210983776994628,-1.2892631362780567
perc,resp,1213,1,2.3.3left.bmp,2.3.3right.bmp,,ACC018,"[0, 2, 2]","[0, 2, 2]",[],match,1.0,,1.82305950537981,1.4239462686806468,-0.9062041250119501,4th,4th,1st,1.1393443810841772,1.210983776994628,-1.2892631362780567
perc,resp,1220,1,1.2.1left.bmp,1.1.3right.bmp,,ACC018,"[-2, 0, -2]","[-2, -2, 2]",[],non-match,0.3545027756320971,2,0.7973639797195056,0.2529115971828128,-0.9094949737698653,4th,3rd,1st,1.1393443810841772,0.2646265317736461,-1.2892631362780567
perc,resp,1219,1,1.2.3left.bmp,1.2.3right.bmp,,ACC018,"[-2, 0, 2]","[-2, 0, 2]",[],match,1.0,,2.104682880139781,1.7605672833659292,-1.0401830708221191,4th,4th,1st,1.1393443810841772,1.210983776994628,-1.2892631362780567
perc,resp,2194,1,2.3.1left.bmp,2.3.1right.bmp,,ACC018,"[0, 2, -2]","[0, 2, -2]",[],match,1.0,,0.15161059410329863,1.138212375694042,-0.8924145540783266,3rd,4th,1st,0.3409615243403279,1.210983776994628,-1.2892631362780567
perc,resp,1376,0,2.1.3left.bmp,2.1.3right.bmp,,ACC018,"[0, -2, 2]","[0, -2, 2]",[],match,1.0,,0.6765855856362084,0.9712424351213383,-1.1418630566310086,4th,4th,1st,1.1393443810841772,1.210983776994628,-1.2892631362780567
perc,resp,1232,1,3.1.1left.bmp,3.1.1right.bmp,,ACC018,"[2, -2, -2]","[2, -2, -2]",[],match,1.0,,-0.2835680443766139,1.385307995926075,-1.586715031313195,2nd,4th,1st,-0.19313575099557567,1.210983776994628,-1.2892631362780567
perc,resp,1817,1,2.1.1left.bmp,2.1.1right.bmp,,ACC018,"[0, -2, -2]","[0, -2, -2]",[],match,1.0,,0.14433516886543318,0.4353354291664946,-1.400432662054173,3rd,3rd,1st,0.3409615243403279,0.2646265317736461,-1.2892631362780567
perc,resp,944,1,1.3.1left.bmp,3.2.3right.bmp,,ACC018,"[-2, 2, -2]","[2, 0, 2]",[],non-match,0.1339745962155613,1,0.6072328782338035,0.9031735794538551,-1.7830900770274858,3rd,4th,1st,0.3409615243403279,1.210983776994628,-1.2892631362780567
perc,resp,2079,1,2.2.3left.bmp,2.2.3right.bmp,,ACC018,"[0, 0, 2]","[0, 0, 2]",[],match,1.0,,0.3789115979844904,0.2826232564073649,-1.796040127297814,3rd,3rd,1st,0.3409615243403279,0.2646265317736461,-1.2892631362780567
perc,resp,1003,1,1.3.2left.bmp,2.2.1right.bmp,,ACC018,"[-2, 2, 0]","[0, 0, -2]",[],non-match,0.5,3,0.3495778640716185,-0.526618047211122,-1.7058039494523152,3rd,2nd,1st,0.3409615243403279,-0.22318599358597754,-1.2892631362780567
perc,resp,1546,0,3.1.2left.bmp,2.3.1right.bmp,,ACC018,"[2, -2, 0]","[0, 2, -2]",[],non-match,0.29289321881345254,1,0.02876164623311565,0.5889309846193506,-1.6838968385938549,2nd,4th,1st,-0.19313575099557567,1.210983776994628,-1.2892631362780567
perc,resp,1331,1,1.3.3left.bmp,1.3.3right.bmp,,ACC018,"[-2, 2, 2]","[-2, 2, 2]",[],match,1.0,,0.5326095987052007,0.48323792961339185,-1.6857617417941249,3rd,3rd,1st,0.3409615243403279,0.2646265317736461,-1.2892631362780567
perc,resp,1110,1,3.1.3left.bmp,3.1.3right.bmp,,ACC018,"[2, -2, 2]","[2, -2, 2]",[],match,1.0,,1.2231999155951847,0.21279145547747394,-1.3571412214697083,4th,3rd,1st,1.1393443810841772,0.2646265317736461,-1.2892631362780567
perc,resp,1199,1,3.3.2left.bmp,3.3.2right.bmp,,ACC018,"[2, 2, 0]","[2, 2, 0]",[],match,1.0,,0.6200471591285356,1.5448315789778397,-1.6322717503709492,3rd,4th,1st,0.3409615243403279,1.210983776994628,-1.2892631362780567
perc,resp,1044,1,2.2.2left.bmp,3.2.2right.bmp,,ACC018,"[0, 0, 0]","[2, 0, 0]",[],non-match,0.7113248654051871,4,1.0801959921735311,-0.7929186988076404,-1.5044656587811502,4th,1st,1st,1.1393443810841772,-1.2524243151822978,-1.2892631362780567
perc,resp,1534,0,1.1.3left.bmp,1.1.2right.bmp,,ACC018,"[-2, -2, 2]","[-2, -2, 0]",[],non-match,0.7113248654051871,4,-0.280527093556021,0.9266076696378857,-1.879855813775594,2nd,4th,1st,-0.19313575099557567,1.210983776994628,-1.2892631362780567
perc,resp,1105,1,3.3.1left.bmp,1.3.1right.bmp,,ACC018,"[2, 2, -2]","[-2, 2, -2]",[],non-match,0.42264973081037416,2,0.8346030698539607,0.7027033494203607,-1.6033592000360761,4th,4th,1st,1.1393443810841772,1.210983776994628,-1.2892631362780567
perc,resp,1109,1,3.2.1left.bmp,3.2.1right.bmp,,ACC018,"[2, 0, -2]","[2, 0, -2]",[],match,1.0,,0.30843458203060414,0.377101909885555,-1.4595715579132802,3rd,3rd,1st,0.3409615243403279,0.2646265317736461,-1.2892631362780567
perc,resp,1037,1,2.2.1left.bmp,1.2.3right.bmp,,ACC018,"[0, 0, -2]","[-2, 0, 2]",[],non-match,0.3545027756320971,2,0.9062791333102413,0.6263619705222189,-1.3089048082231116,4th,4th,1st,1.1393443810841772,1.210983776994628,-1.2892631362780567
perc,resp,2002,1,1.1.1left.bmp,1.1.1right.bmp,,ACC018,"[-2, -2, -2]","[-2, -2, -2]",[],match,1.0,,0.08898409924941107,0.9592147289715018,-1.1998007281734442,2nd,4th,1st,-0.19313575099557567,1.210983776994628,-1.2892631362780567
perc,resp,1222,0,2.3.3left.bmp,1.2.2right.bmp,,ACC018,"[0, 2, 2]","[-2, 0, 0]",[],non-match,0.5,3,-1.4095736841189337,0.024480407564113474,-1.161559470810598,1st,3rd,1st,-1.2871701544289296,0.2646265317736461,-1.2892631362780567
perc,resp,1503,1,3.3.3left.bmp,2.2.3right.bmp,,ACC018,"[2, 2, 2]","[0, 0, 2]",[],non-match,0.5917517095361369,3,-1.446667979335901,-0.30438734499870335,-1.2058560237887148,1st,2nd,1st,-1.2871701544289296,-0.22318599358597754,-1.2892631362780567
perc,resp,1021,1,1.1.2left.bmp,1.1.2right.bmp,,ACC018,"[-2, -2, 0]","[-2, -2, 0]",[],match,1.0,,1.938032014844114,1.063774819780798,-1.139143689764463,4th,4th,1st,1.1393443810841772,1.210983776994628,-1.2892631362780567
perc,resp,927,1,3.2.2left.bmp,3.2.2right.bmp,,ACC018,"[2, 0, 0]","[2, 0, 0]",[],match,1.0,,1.3924075707392742,1.7035621889619417,-1.2303151792035512,4th,4th,1st,1.1393443810841772,1.210983776994628,-1.2892631362780567
perc,resp,1116,1,1.2.2left.bmp,1.2.2right.bmp,,ACC018,"[-2, 0, 0]","[-2, 0, 0]",[],match,1.0,,0.7784228800472882,-0.05885625697882663,-1.3273450898536132,4th,2nd,1st,1.1393443810841772,-0.22318599358597754,-1.2892631362780567
perc,resp,1161,1,2.1.2left.bmp,2.1.2right.bmp,,ACC018,"[0, -2, 0]","[0, -2, 0]",[],match,1.0,,0.07661350424367448,0.15520515027081513,-1.3681495334432703,2nd,3rd,1st,-0.19313575099557567,0.2646265317736461,-1.2892631362780567
perc,resp,1288,1,2.3.2left.bmp,1.1.1right.bmp,,ACC018,"[0, 2, 0]","[-2, -2, -2]",[],non-match,0.29289321881345254,1,-0.07607410858954752,0.5088956296944166,-1.2556740532285475,2nd,3rd,1st,-0.19313575099557567,0.2646265317736461,-1.2892631362780567
perc,resp,1227,1,3.2.3left.bmp,3.2.3right.bmp,,ACC018,"[2, 0, 2]","[2, 0, 2]",[],match,1.0,,0.4518866161368485,1.5329566778298,-1.3695878623350677,3rd,4th,1st,0.3409615243403279,1.210983776994628,-1.2892631362780567
perc,resp,1173,1,3.3.3left.bmp,3.3.3right.bmp,,ACC018,"[2, 2, 2]","[2, 2, 2]",[],match,1.0,,2.05267065258932,0.9223886386465832,-1.4199418633381986,4th,4th,1st,1.1393443810841772,1.210983776994628,-1.2892631362780567
perc,resp,1030,1,3.1.2left.bmp,1.3.2right.bmp,,ACC018,"[2, -2, 0]","[-2, 2, 0]",[],non-match,0.18350341907227385,1,1.379550210676343,-0.006774518509844953,-1.4468895737559477,4th,2nd,1st,1.1393443810841772,-0.22318599358597754,-1.2892631362780567
perc,resp,1441,1,3.1.1left.bmp,2.3.2right.bmp,,ACC018,"[2, -2, -2]","[0, 2, 0]",[],non-match,0.29289321881345254,1,0.024899431453815065,0.7833069691686474,-1.4992382468248204,2nd,4th,1st,-0.19313575099557567,1.210983776994628,-1.2892631362780567
perc,resp,926,1,1.2.3left.bmp,2.2.1right.bmp,,ACC018,"[-2, 0, 2]","[0, 0, -2]",[],non-match,0.3545027756320971,2,0.6787167026935925,-0.024543957493898937,-1.5336053953777635,4th,2nd,1st,1.1393443810841772,-0.22318599358597754,-1.2892631362780567
perc,resp,1437,1,2.2.3left.bmp,1.1.3right.bmp,,ACC018,"[0, 0, 2]","[-2, -2, 2]",[],non-match,0.5917517095361369,3,-0.49840203549395207,-0.606877749590779,-1.563121037669153,2nd,1st,1st,-0.19313575099557567,-1.2524243151822978,-1.2892631362780567
perc,resp,1407,1,2.1.3left.bmp,2.1.3right.bmp,,ACC018,"[0, -2, 2]","[0, -2, 2]",[],match,1.0,,0.37197798814818384,0.021457351609797774,-1.7423004002596068,3rd,2nd,1st,0.3409615243403279,-0.22318599358597754,-1.2892631362780567
perc,resp,1056,1,2.2.2left.bmp,3.3.2right.bmp,,ACC018,"[0, 0, 0]","[2, 2, 0]",[],non-match,0.5917517095361369,3,-0.1584331938311072,1.4532717557089894,-1.599781469483407,2nd,4th,1st,-0.19313575099557567,1.210983776994628,-1.2892631362780567
perc,resp,1001,1,3.2.2left.bmp,3.2.2right.bmp,,ACC018,"[2, 0, 0]","[2, 0, 0]",[],match,1.0,,1.2945735801815508,0.24838975761294751,-1.5448302553832443,4th,3rd,1st,1.1393443810841772,0.2646265317736461,-1.2892631362780567
perc,resp,1633,1,1.1.1left.bmp,2.1.2right.bmp,,ACC018,"[-2, -2, -2]","[0, -2, 0]",[],non-match,0.5917517095361369,3,-1.4860598653567705,1.0589741110826523,-1.70148733150063,1st,4th,1st,-1.2871701544289296,1.210983776994628,-1.2892631362780567
perc,resp,1302,1,1.2.2left.bmp,1.2.2right.bmp,,ACC018,"[-2, 0, 0]","[-2, 0, 0]",[],match,1.0,,0.40247099876256887,-0.3275795151528048,-1.7751802078761563,3rd,2nd,1st,0.3409615243403279,-0.22318599358597754,-1.2892631362780567
perc,resp,1261,0,3.2.3left.bmp,3.3.3right.bmp,,ACC018,"[2, 0, 2]","[2, 2, 2]",[],non-match,0.7113248654051871,4,-0.3483467539909579,0.12661550421779671,-1.2948725110819452,2nd,3rd,1st,-0.19313575099557567,0.2646265317736461,-1.2892631362780567
perc,resp,1564,0,2.3.2left.bmp,2.3.2right.bmp,,ACC018,"[0, 2, 0]","[0, 2, 0]",[],match,1.0,,0.27205566443285545,-0.03737652154487193,-1.0255526239781374,3rd,2nd,1st,0.3409615243403279,-0.22318599358597754,-1.2892631362780567
perc,resp,1323,0,3.3.1left.bmp,2.2.2right.bmp,,ACC018,"[2, 2, -2]","[0, 0, 0]",[],non-match,0.5,3,-3.6045846247931785,-2.5456538599501117,-0.8056449967986076,1st,1st,2nd,-1.2871701544289296,-1.2524243151822978,-0.4440719259017925
perc,resp,1253,1,2.1.1left.bmp,2.1.1right.bmp,,ACC018,"[0, -2, -2]","[0, -2, -2]",[],match,1.0,,-2.8075120038325982,-0.6920341837561699,-1.3998573746338192,1st,1st,1st,-1.2871701544289296,-1.2524243151822978,-1.2892631362780567
