mode,type,rt,acc,item_1,item_2,item_cue,subj_idx,item_1_number,item_2_number,item_cue_number,trial_type,similarity,similarity_bin,ams,pams,slps,ams_quantile,pams_quantile,slps_quantile,ams_bin,pam_bin,slp_bin
perc,resp,1020,0,1.2.2left.bmp,1.3.3right.bmp,,ACC033,"[-2, 0, 0]","[-2, 2, 2]",[],non-match,0.5917517095361369,3,0.09023986737412068,0.40981630013994297,-1.763006852648509,3rd,3rd,1st,0.30110682378285597,0.2434256138838892,-1.2433379239182274
perc,resp,1221,1,2.3.1left.bmp,2.3.1right.bmp,,ACC033,"[0, 2, -2]","[0, 2, -2]",[],match,1.0,,-1.2270971074618235,-1.5907998137864656,-1.1815379175406375,1st,1st,1st,-1.2362963738146713,-1.1931112071598857,-1.2433379239182274
perc,resp,1850,1,1.1.2left.bmp,1.1.2right.bmp,,ACC033,"[-2, -2, 0]","[-2, -2, 0]",[],match,1.0,,-0.05818017574389061,-0.42726725614499605,-1.2039121181289698,2nd,2nd,1st,-0.3380964783325295,-0.36905985399775637,-1.2433379239182274
perc,resp,1718,1,1.2.1left.bmp,1.2.1right.bmp,,ACC033,"[-2, 0, -2]","[-2, 0, -2]",[],match,1.0,,0.644236676440749,1.9153480389651667,-0.8929380032442737,4th,4th,1st,1.2777140698905634,1.322325235713222,-1.2433379239182274
perc,resp,1306,1,3.3.2left.bmp,3.3.2right.bmp,,ACC033,"[2, 2, 0]","[2, 2, 0]",[],match,1.0,,-2.05015603221806,-0.49804702378555465,-0.717628133374759,1st,2nd,2nd,-1.2362963738146713,-0.36905985399775637,-0.3302942238326666
perc,resp,1007,1,1.2.3left.bmp,1.2.3right.bmp,,ACC033,"[-2, 0, 2]","[-2, 0, 2]",[],match,1.0,,-0.925619597980315,-1.5860828128341882,-0.8892882832567212,1st,1st,1st,-1.2362963738146713,-1.1931112071598857,-1.2433379239182274
perc,resp,1422,1,2.1.1left.bmp,2.1.1right.bmp,,ACC033,"[0, -2, -2]","[0, -2, -2]",[],match,1.0,,-0.020981679145943826,-0.9895465710116458,-1.3999312304087237,3rd,1st,1st,0.30110682378285597,-1.1931112071598857,-1.2433379239182274
perc,resp,1278,1,2.1.2left.bmp,2.1.2right.bmp,,ACC033,"[0, -2, 0]","[0, -2, 0]",[],match,1.0,,0.7036717685971685,0.3196703716319443,-1.3037301295449872,4th,3rd,1st,1.2777140698905634,0.2434256138838892,-1.2433379239182274
perc,resp,1271,1,2.2.2left.bmp,1.2.2right.bmp,,ACC033,"[0, 0, 0]","[-2, 0, 0]",[],non-match,0.7113248654051871,4,0.7026778722569466,-0.3204599711859099,-1.346305381130605,4th,2nd,1st,1.2777140698905634,-0.36905985399775637,-1.2433379239182274
perc,resp,1156,0,2.2.1left.bmp,3.2.3right.bmp,,ACC033,"[0, 0, -2]","[2, 0, 2]",[],non-match,0.3545027756320971,2,-0.2812347007632997,0.009328894399359465,-1.2260940422649103,2nd,3rd,1st,-0.3380964783325295,0.2434256138838892,-1.2433379239182274
perc,resp,1250,1,3.1.1left.bmp,1.1.1right.bmp,,ACC033,"[2, -2, -2]","[-2, -2, -2]",[],non-match,0.42264973081037416,2,0.29244884676313443,-0.3061438266264963,-1.283359401065566,3rd,2nd,1st,0.30110682378285597,-0.36905985399775637,-1.2433379239182274
perc,resp,1345,1,2.3.3left.bmp,2.3.3right.bmp,,ACC033,"[0, 2, 2]","[0, 2, 2]",[],match,1.0,,-0.8136316107833955,-0.4618152696095269,-1.4252078239556876,1st,2nd,1st,-1.2362963738146713,-0.36905985399775637,-1.2433379239182274
perc,resp,1006,1,3.3.1left.bmp,1.2.3right.bmp,,ACC033,"[2, 2, -2]","[-2, 0, 2]",[],non-match,0.1339745962155613,1,0.8514798903426044,-0.07984528870620011,-1.3227222744419842,4th,2nd,1st,1.2777140698905634,-0.36905985399775637,-1.2433379239182274
perc,resp,1007,1,1.3.3left.bmp,2.2.2right.bmp,,ACC033,"[-2, 2, 2]","[0, 0, 0]",[],non-match,0.5,3,1.4830535116530716,0.6028885912752593,-1.5050913866230944,4th,4th,1st,1.2777140698905634,1.322325235713222,-1.2433379239182274
perc,resp,886,1,1.3.1left.bmp,1.1.2right.bmp,,ACC033,"[-2, 2, -2]","[-2, -2, 0]",[],non-match,0.3545027756320971,2,1.169608025525471,2.5210094705345916,-1.5227690792531516,4th,4th,1st,1.2777140698905634,1.322325235713222,-1.2433379239182274
perc,resp,937,1,3.1.3left.bmp,1.2.2right.bmp,,ACC033,"[2, -2, 2]","[-2, 0, 0]",[],non-match,0.29289321881345254,1,1.093631939961432,1.2670297124110645,-1.4705569085013441,4th,4th,1st,1.2777140698905634,1.322325235713222,-1.2433379239182274
perc,resp,1076,1,1.1.1left.bmp,1.1.1right.bmp,,ACC033,"[-2, -2, -2]","[-2, -2, -2]",[],match,1.0,,0.8033276163932589,0.41303296281783375,-1.3470625277113693,4th,3rd,1st,1.2777140698905634,0.2434256138838892,-1.2433379239182274
perc,resp,1229,1,3.2.3left.bmp,1.3.2right.bmp,,ACC033,"[2, 0, 2]","[-2, 2, 0]",[],non-match,0.29289321881345254,1,-0.43784816347569966,-0.6016217593030743,-1.2939264176443726,2nd,2nd,1st,-0.3380964783325295,-0.36905985399775637,-1.2433379239182274
perc,resp,1524,1,3.3.3left.bmp,2.1.3right.bmp,,ACC033,"[2, 2, 2]","[0, -2, 2]",[],non-match,0.3545027756320971,2,0.21844081932007497,0.7853420128123187,-1.3354375525097115,3rd,4th,1st,0.30110682378285597,1.322325235713222,-1.2433379239182274
perc,resp,1026,1,1.1.3left.bmp,3.3.2right.bmp,,ACC033,"[-2, -2, 2]","[2, 2, 0]",[],non-match,0.1339745962155613,1,0.31245730486389994,0.08397154219320482,-1.2486519451243052,3rd,3rd,1st,0.30110682378285597,0.2434256138838892,-1.2433379239182274
perc,resp,1048,0,3.2.1left.bmp,3.3.1right.bmp,,ACC033,"[2, 0, -2]","[2, 2, -2]",[],non-match,0.7113248654051871,4,-0.8534363659576069,-2.401057073626581,-1.1659905177076546,1st,1st,1st,-1.2362963738146713,-1.1931112071598857,-1.2433379239182274
perc,resp,1191,1,2.3.2left.bmp,2.3.2right.bmp,,ACC033,"[0, 2, 0]","[0, 2, 0]",[],match,1.0,,-1.2173618406728937,0.31202576344646243,-1.1075382806412906,1st,3rd,1st,-1.2362963738146713,0.2434256138838892,-1.2433379239182274
perc,resp,1678,1,1.3.2left.bmp,1.3.2right.bmp,,ACC033,"[-2, 2, 0]","[-2, 2, 0]",[],match,1.0,,-0.18857659468780752,-1.3809104195813346,-1.1769779602367891,2nd,1st,1st,-0.3380964783325295,-1.1931112071598857,-1.2433379239182274
perc,resp,1170,1,3.1.2left.bmp,3.1.2right.bmp,,ACC033,"[2, -2, 0]","[2, -2, 0]",[],match,1.0,,0.0657660752983383,-0.1131703529699823,-1.3054789403363232,3rd,2nd,1st,0.30110682378285597,-0.36905985399775637,-1.2433379239182274
perc,resp,1023,1,3.2.2left.bmp,1.3.1right.bmp,,ACC033,"[2, 0, 0]","[-2, 2, -2]",[],non-match,0.29289321881345254,1,0.6759965004313149,2.7989799635481205,-1.6832458119921005,4th,4th,1st,1.2777140698905634,1.322325235713222,-1.2433379239182274
perc,resp,1132,1,2.1.3left.bmp,2.1.3right.bmp,,ACC033,"[0, -2, 2]","[0, -2, 2]",[],match,1.0,,-0.6614023715630899,-0.9891260767140729,-1.806474462744335,2nd,1st,1st,-0.3380964783325295,-1.1931112071598857,-1.2433379239182274
perc,resp,1165,1,2.2.3left.bmp,2.2.3right.bmp,,ACC033,"[0, 0, 2]","[0, 0, 2]",[],match,1.0,,-0.2042466243517894,-1.3972894407151486,-1.8456222757430172,2nd,1st,1st,-0.3380964783325295,-1.1931112071598857,-1.2433379239182274
perc,resp,1198,1,3.2.2left.bmp,3.2.2right.bmp,,ACC033,"[2, 0, 0]","[2, 0, 0]",[],match,1.0,,0.2031876077444643,0.21413888121843344,-1.8344702792383913,3rd,3rd,1st,0.30110682378285597,0.2434256138838892,-1.2433379239182274
perc,resp,1409,0,2.2.1left.bmp,2.2.1right.bmp,,ACC033,"[0, 0, -2]","[0, 0, -2]",[],match,1.0,,-0.5399365217425879,-0.9011188095607188,-1.80027144836061,2nd,1st,1st,-0.3380964783325295,-1.1931112071598857,-1.2433379239182274
perc,resp,1293,1,3.1.1left.bmp,3.1.1right.bmp,,ACC033,"[2, -2, -2]","[2, -2, -2]",[],match,1.0,,0.06343997456869237,0.24996079005185642,-1.623835842250503,3rd,3rd,1st,0.30110682378285597,0.2434256138838892,-1.2433379239182274
perc,resp,892,1,1.1.3left.bmp,1.3.1right.bmp,,ACC033,"[-2, -2, 2]","[-2, 2, -2]",[],non-match,0.18350341907227385,1,0.033979312935839376,-2.0086671618824674,-1.6477210159867188,3rd,1st,1st,0.30110682378285597,-1.1931112071598857,-1.2433379239182274
perc,resp,1072,1,3.1.3left.bmp,3.1.3right.bmp,,ACC033,"[2, -2, 2]","[2, -2, 2]",[],match,1.0,,-0.23115033980932417,-0.3368689481578846,-1.6333338962354171,2nd,2nd,1st,-0.3380964783325295,-0.36905985399775637,-1.2433379239182274
perc,resp,1443,1,1.1.1left.bmp,2.1.2right.bmp,,ACC033,"[-2, -2, -2]","[0, -2, 0]",[],non-match,0.5917517095361369,3,-0.5045267107975485,0.7368347492763365,-1.6053940668458904,2nd,4th,1st,-0.3380964783325295,1.322325235713222,-1.2433379239182274
perc,resp,1286,1,1.3.2left.bmp,1.3.2right.bmp,,ACC033,"[-2, 2, 0]","[-2, 2, 0]",[],match,1.0,,-0.42661546528590805,-1.019216047996089,-1.4221672768887634,2nd,1st,1st,-0.3380964783325295,-1.1931112071598857,-1.2433379239182274
perc,resp,1105,1,2.1.3left.bmp,2.2.1right.bmp,,ACC033,"[0, -2, 2]","[0, 0, -2]",[],non-match,0.3545027756320971,2,-1.1958422820584378,-1.017531444365028,-1.0877436031349028,1st,1st,1st,-1.2362963738146713,-1.1931112071598857,-1.2433379239182274
perc,resp,1080,1,2.3.2left.bmp,3.1.2right.bmp,,ACC033,"[0, 2, 0]","[2, -2, 0]",[],non-match,0.3545027756320971,2,-1.293370723021023,-0.8870868933719237,-0.9350276864351669,1st,1st,1st,-1.2362963738146713,-1.1931112071598857,-1.2433379239182274
perc,resp,993,1,1.2.3left.bmp,3.3.1right.bmp,,ACC033,"[-2, 0, 2]","[2, 2, -2]",[],non-match,0.1339745962155613,1,0.7900402949374177,-0.036891519245851614,-0.9672591903734501,4th,3rd,1st,1.2777140698905634,0.2434256138838892,-1.2433379239182274
perc,resp,1326,1,2.2.2left.bmp,2.2.2right.bmp,,ACC033,"[0, 0, 0]","[0, 0, 0]",[],match,1.0,,-0.7629585930058133,-0.839445872959113,-0.8002435123306615,1st,1st,1st,-1.2362963738146713,-1.1931112071598857,-1.2433379239182274
perc,resp,1361,0,2.3.3left.bmp,2.2.3right.bmp,,ACC033,"[0, 2, 2]","[0, 0, 2]",[],non-match,0.7113248654051871,4,-1.7802430103247164,0.7709301557772497,-0.9919128360720645,1st,4th,1st,-1.2362963738146713,1.322325235713222,-1.2433379239182274
perc,resp,1262,1,3.3.2left.bmp,3.2.1right.bmp,,ACC033,"[2, 2, 0]","[2, 0, -2]",[],non-match,0.5917517095361369,3,1.1500888382310008,1.811747649489606,-0.7917814088283358,4th,4th,1st,1.2777140698905634,1.322325235713222,-1.2433379239182274
perc,resp,1455,1,3.2.3left.bmp,2.2.1right.bmp,,ACC033,"[2, 0, 2]","[0, 0, -2]",[],non-match,0.3545027756320971,2,0.4505822450866092,-0.12814952121114667,-0.827779313073015,3rd,2nd,1st,0.30110682378285597,-0.36905985399775637,-1.2433379239182274
perc,resp,1347,1,1.3.1left.bmp,1.3.1right.bmp,,ACC033,"[-2, 2, -2]","[-2, 2, -2]",[],match,1.0,,-0.998734620779905,-0.3009291999331744,-0.7729702237490866,1st,2nd,1st,-1.2362963738146713,-0.36905985399775637,-1.2433379239182274
perc,resp,1236,1,2.1.1left.bmp,1.2.1right.bmp,,ACC033,"[0, -2, -2]","[-2, 0, -2]",[],non-match,0.5917517095361369,3,0.7795928373416253,-0.7033472694996138,-0.7450841335781136,4th,1st,2nd,1.2777140698905634,-1.1931112071598857,-0.3302942238326666
perc,resp,864,1,3.2.1left.bmp,1.2.2right.bmp,,ACC033,"[2, 0, -2]","[-2, 0, 0]",[],non-match,0.3545027756320971,2,0.7366977043925298,0.5063014693937954,-0.4159781400012578,4th,3rd,2nd,1.2777140698905634,0.2434256138838892,-0.3302942238326666
perc,resp,873,1,2.3.1left.bmp,1.2.3right.bmp,,ACC033,"[0, 2, -2]","[-2, 0, 2]",[],non-match,0.29289321881345254,1,0.39717299006638246,-1.2022838772121935,-0.35925836260614435,3rd,1st,2nd,0.30110682378285597,-1.1931112071598857,-0.3302942238326666
perc,resp,1446,1,3.3.3left.bmp,3.1.3right.bmp,,ACC033,"[2, 2, 2]","[2, -2, 2]",[],non-match,0.42264973081037416,2,-0.31745695044222666,-0.456087593901032,-0.48906037930315144,2nd,2nd,2nd,-0.3380964783325295,-0.36905985399775637,-0.3302942238326666
perc,resp,1085,1,3.1.2left.bmp,3.1.2right.bmp,,ACC033,"[2, -2, 0]","[2, -2, 0]",[],match,1.0,,-1.4527870709152675,-0.940730713874038,-0.4664131997443674,1st,1st,2nd,-1.2362963738146713,-1.1931112071598857,-0.3302942238326666
perc,resp,1216,0,2.1.2left.bmp,3.2.2right.bmp,,ACC033,"[0, -2, 0]","[2, 0, 0]",[],non-match,0.5917517095361369,3,0.3680191510101813,-0.31937213484055865,-0.44885017734530686,3rd,2nd,2nd,0.30110682378285597,-0.36905985399775637,-0.3302942238326666
perc,resp,947,1,3.3.1left.bmp,1.1.3right.bmp,,ACC033,"[2, 2, -2]","[-2, -2, 2]",[],non-match,0.0,1,0.4088991279271013,-1.5567426489414258,-0.6638227353986361,3rd,1st,2nd,0.30110682378285597,-1.1931112071598857,-0.3302942238326666
perc,resp,946,0,1.2.1left.bmp,3.3.3right.bmp,,ACC033,"[-2, 0, -2]","[2, 2, 2]",[],non-match,0.1339745962155613,1,0.8648314868788676,2.027839831045303,-0.7477049042349515,4th,4th,2nd,1.2777140698905634,1.322325235713222,-0.3302942238326666
perc,resp,1037,1,2.2.3left.bmp,1.1.1right.bmp,,ACC033,"[0, 0, 2]","[-2, -2, -2]",[],non-match,0.29289321881345254,1,2.2803668872038756,0.319721438382735,-0.8223584342952245,4th,3rd,1st,1.2777140698905634,0.2434256138838892,-1.2433379239182274
perc,resp,974,1,1.2.2left.bmp,2.3.1right.bmp,,ACC033,"[-2, 0, 0]","[0, 2, -2]",[],non-match,0.5,3,0.8042043942433388,-0.028240317273094406,-0.9228557072708413,4th,3rd,1st,1.2777140698905634,0.2434256138838892,-1.2433379239182274
perc,resp,1214,1,1.3.3left.bmp,1.3.3right.bmp,,ACC033,"[-2, 2, 2]","[-2, 2, 2]",[],match,1.0,,-0.7093722348887355,-0.6011828686154954,-0.9721522684541815,1st,2nd,1st,-1.2362963738146713,-0.36905985399775637,-1.2433379239182274
perc,resp,1050,1,1.1.2left.bmp,1.1.2right.bmp,,ACC033,"[-2, -2, 0]","[-2, -2, 0]",[],match,1.0,,0.29360809583907055,-0.6617293447427945,-1.0559074746025587,3rd,1st,1st,0.30110682378285597,-1.1931112071598857,-1.2433379239182274
perc,resp,1381,1,2.3.3left.bmp,2.3.3right.bmp,,ACC033,"[0, 2, 2]","[0, 2, 2]",[],match,1.0,,-0.4828973826361331,-0.5222386007090934,-1.5506177912819925,2nd,2nd,1st,-0.3380964783325295,-0.36905985399775637,-1.2433379239182274
perc,resp,1456,0,3.3.2left.bmp,3.2.2right.bmp,,ACC033,"[2, 2, 0]","[2, 0, 0]",[],non-match,0.7113248654051871,4,-0.9597399763108659,-0.2404069910634823,-1.8733273079372856,1st,2nd,1st,-1.2362963738146713,-0.36905985399775637,-1.2433379239182274
perc,resp,1198,1,1.3.2left.bmp,1.2.1right.bmp,,ACC033,"[-2, 2, 0]","[-2, 0, -2]",[],non-match,0.5917517095361369,3,0.8797441050194165,1.1375179209435036,-1.5737618792348835,4th,4th,1st,1.2777140698905634,1.322325235713222,-1.2433379239182274
perc,resp,1359,1,2.2.1left.bmp,2.2.1right.bmp,,ACC033,"[0, 0, -2]","[0, 0, -2]",[],match,1.0,,-1.0750542678295365,-0.21626067785087158,-1.3847281107057738,1st,2nd,1st,-1.2362963738146713,-0.36905985399775637,-1.2433379239182274
perc,resp,1332,1,2.1.2left.bmp,2.1.2right.bmp,,ACC033,"[0, -2, 0]","[0, -2, 0]",[],match,1.0,,0.037473565031254034,-1.2314565720630914,-1.3060995815694907,3rd,1st,1st,0.30110682378285597,-1.1931112071598857,-1.2433379239182274
perc,resp,1101,1,1.1.2left.bmp,2.1.1right.bmp,,ACC033,"[-2, -2, 0]","[0, -2, -2]",[],non-match,0.5917517095361369,3,1.030872348996168,-0.5191769922417638,-1.302917904087835,4th,2nd,1st,1.2777140698905634,-0.36905985399775637,-1.2433379239182274
perc,resp,920,1,2.2.3left.bmp,2.2.3right.bmp,,ACC033,"[0, 0, 2]","[0, 0, 2]",[],match,1.0,,1.2518909134666074,-0.32018697207424596,-1.4059040806922543,4th,2nd,1st,1.2777140698905634,-0.36905985399775637,-1.2433379239182274
perc,resp,919,1,3.2.1left.bmp,2.3.2right.bmp,,ACC033,"[2, 0, -2]","[0, 2, 0]",[],non-match,0.5,3,-0.6650009883604933,-1.7260681809959861,-1.3748570236500781,2nd,1st,1st,-0.3380964783325295,-1.1931112071598857,-1.2433379239182274
perc,resp,1683,1,2.3.1left.bmp,3.3.3right.bmp,,ACC033,"[0, 2, -2]","[2, 2, 2]",[],non-match,0.3545027756320971,2,-1.323649414009312,-1.286664996679914,-1.2608444306983622,1st,1st,1st,-1.2362963738146713,-1.1931112071598857,-1.2433379239182274
perc,resp,1155,1,3.1.2left.bmp,3.1.2right.bmp,,ACC033,"[2, -2, 0]","[2, -2, 0]",[],match,1.0,,0.04986667857726016,-0.5144355770717791,-1.3461772515571142,3rd,2nd,1st,0.30110682378285597,-0.36905985399775637,-1.2433379239182274
perc,resp,934,0,1.1.1left.bmp,1.1.1right.bmp,,ACC033,"[-2, -2, -2]","[-2, -2, -2]",[],match,1.0,,-0.5288838186279826,0.14820908327536625,-1.304064821182511,2nd,3rd,1st,-0.3380964783325295,0.2434256138838892,-1.2433379239182274
perc,resp,1200,1,2.2.2left.bmp,2.2.2right.bmp,,ACC033,"[0, 0, 0]","[0, 0, 0]",[],match,1.0,,-1.4206683625179006,-1.4676932472077937,-0.9178095168779181,1st,1st,1st,-1.2362963738146713,-1.1931112071598857,-1.2433379239182274
perc,resp,1463,1,1.3.3left.bmp,1.3.3right.bmp,,ACC033,"[-2, 2, 2]","[-2, 2, 2]",[],match,1.0,,-0.4737241445784903,0.3289027216694829,-0.9645095767232416,2nd,3rd,1st,-0.3380964783325295,0.2434256138838892,-1.2433379239182274
perc,resp,1302,1,1.2.3left.bmp,3.2.3right.bmp,,ACC033,"[-2, 0, 2]","[2, 0, 2]",[],non-match,0.42264973081037416,2,0.17362123461640286,1.7397012063661133,-1.083601141586423,3rd,4th,1st,0.30110682378285597,1.322325235713222,-1.2433379239182274
perc,resp,902,0,2.3.1left.bmp,3.3.2right.bmp,,ACC033,"[0, 2, -2]","[2, 2, 0]",[],non-match,0.5917517095361369,3,-0.35717075105946283,-0.15782644794221878,-1.067480676867748,2nd,2nd,1st,-0.3380964783325295,-0.36905985399775637,-1.2433379239182274
perc,resp,1262,1,1.1.1left.bmp,1.3.1right.bmp,,ACC033,"[-2, -2, -2]","[-2, 2, -2]",[],non-match,0.42264973081037416,2,0.6016708472472814,1.0879724408212035,-0.6750086199896477,4th,4th,2nd,1.2777140698905634,1.322325235713222,-0.3302942238326666
perc,resp,932,1,2.3.3left.bmp,2.3.3right.bmp,,ACC033,"[0, 2, 2]","[0, 2, 2]",[],match,1.0,,-0.5756494060868937,1.3660299342141788,-1.0080346245920324,2nd,4th,1st,-0.3380964783325295,1.322325235713222,-1.2433379239182274
perc,resp,1182,1,3.1.2left.bmp,3.1.2right.bmp,,ACC033,"[2, -2, 0]","[2, -2, 0]",[],match,1.0,,0.5005967643145696,0.5868437437500366,-1.1289893543196075,3rd,3rd,1st,0.30110682378285597,0.2434256138838892,-1.2433379239182274
perc,resp,1233,1,2.2.3left.bmp,1.1.3right.bmp,,ACC033,"[0, 0, 2]","[-2, -2, 2]",[],non-match,0.5917517095361369,3,1.9444880395414545,-0.3732869874499156,-1.030092106759439,4th,2nd,1st,1.2777140698905634,-0.36905985399775637,-1.2433379239182274
perc,resp,1636,1,3.1.1left.bmp,3.1.1right.bmp,,ACC033,"[2, -2, -2]","[2, -2, -2]",[],match,1.0,,2.700527736095754,1.648839529414185,-0.7984743444971628,4th,4th,1st,1.2777140698905634,1.322325235713222,-1.2433379239182274
perc,resp,1479,1,1.2.1left.bmp,1.2.1right.bmp,,ACC033,"[-2, 0, -2]","[-2, 0, -2]",[],match,1.0,,-0.11313399041345837,-0.8731143415272811,-0.49952630143673243,2nd,1st,2nd,-0.3380964783325295,-1.1931112071598857,-0.3302942238326666
perc,resp,896,1,1.3.2left.bmp,1.1.1right.bmp,,ACC033,"[-2, 2, 0]","[-2, -2, -2]",[],non-match,0.3545027756320971,2,0.42947082915475926,-0.583837974359922,-0.19360418464082357,3rd,2nd,2nd,0.30110682378285597,-0.36905985399775637,-0.3302942238326666
perc,resp,945,1,3.2.1left.bmp,3.2.1right.bmp,,ACC033,"[2, 0, -2]","[2, 0, -2]",[],match,1.0,,-1.8062029964180202,0.01896408091317477,0.151101561788034,1st,3rd,3rd,-1.2362963738146713,0.2434256138838892,0.24083150803970244
perc,resp,1728,1,3.1.3left.bmp,3.1.3right.bmp,,ACC033,"[2, -2, 2]","[2, -2, 2]",[],match,1.0,,-0.5312219507485653,-0.6307092629852498,0.38663438118018956,2nd,2nd,3rd,-0.3380964783325295,-0.36905985399775637,0.24083150803970244
perc,resp,1180,1,2.1.3left.bmp,2.1.3right.bmp,,ACC033,"[0, -2, 2]","[0, -2, 2]",[],match,1.0,,1.2848875645865296,-1.3798283609582005,0.433389800058164,4th,1st,3rd,1.2777140698905634,-1.1931112071598857,0.24083150803970244
perc,resp,1080,1,1.1.3left.bmp,1.1.3right.bmp,,ACC033,"[-2, -2, 2]","[-2, -2, 2]",[],match,1.0,,0.3986940168301117,0.966844640181768,0.40011686970345783,3rd,4th,3rd,0.30110682378285597,1.322325235713222,0.24083150803970244
perc,resp,883,0,3.2.3left.bmp,3.2.2right.bmp,,ACC033,"[2, 0, 2]","[2, 0, 0]",[],non-match,0.7113248654051871,4,0.9415449351548169,1.1841339662518637,0.3415926338374783,4th,4th,3rd,1.2777140698905634,1.322325235713222,0.24083150803970244
perc,resp,1012,1,2.3.2left.bmp,3.2.1right.bmp,,ACC033,"[0, 2, 0]","[2, 0, -2]",[],non-match,0.5,3,1.849402577239696,0.19367579508866256,0.20002420197387646,4th,3rd,3rd,1.2777140698905634,0.2434256138838892,0.24083150803970244
perc,resp,1031,1,1.3.3left.bmp,1.3.3right.bmp,,ACC033,"[-2, 2, 2]","[-2, 2, 2]",[],match,1.0,,-0.33641203247219864,0.24376474119871464,0.3414040793647162,2nd,3rd,3rd,-0.3380964783325295,0.2434256138838892,0.24083150803970244
perc,resp,962,1,1.1.2left.bmp,1.1.2right.bmp,,ACC033,"[-2, -2, 0]","[-2, -2, 0]",[],match,1.0,,0.5906656595212039,1.2923541783712509,0.13593158795660554,3rd,4th,3rd,0.30110682378285597,1.322325235713222,0.24083150803970244
perc,resp,1473,1,1.2.2left.bmp,2.2.2right.bmp,,ACC033,"[-2, 0, 0]","[0, 0, 0]",[],non-match,0.7113248654051871,4,-0.8603664238364936,-0.6276558466014664,-0.14334907475212583,1st,2nd,2nd,-1.2362963738146713,-0.36905985399775637,-0.3302942238326666
perc,resp,1396,1,2.1.2left.bmp,3.1.2right.bmp,,ACC033,"[0, -2, 0]","[2, -2, 0]",[],non-match,0.7113248654051871,4,-1.4539016144879744,-0.6375834384966158,-0.2274703945566505,1st,2nd,2nd,-1.2362963738146713,-0.36905985399775637,-0.3302942238326666
perc,resp,1659,1,3.2.2left.bmp,2.1.3right.bmp,,ACC033,"[2, 0, 0]","[0, -2, 2]",[],non-match,0.5,3,-0.23935524808584518,-0.055913974352289224,-0.2656692388828774,2nd,3rd,2nd,-0.3380964783325295,0.2434256138838892,-0.3302942238326666
perc,resp,1524,0,3.3.1left.bmp,3.1.3right.bmp,,ACC033,"[2, 2, -2]","[2, -2, 2]",[],non-match,0.18350341907227385,1,-1.0626039187824061,-0.5164928978949473,-0.21342128307136715,1st,2nd,2nd,-1.2362963738146713,-0.36905985399775637,-0.3302942238326666
perc,resp,1214,1,2.1.1left.bmp,2.1.1right.bmp,,ACC033,"[0, -2, -2]","[0, -2, -2]",[],match,1.0,,0.35607439747282227,0.725931726671615,-0.21626705296190177,3rd,4th,2nd,0.30110682378285597,1.322325235713222,-0.3302942238326666
perc,resp,1187,1,3.3.3left.bmp,3.1.1right.bmp,,ACC033,"[2, 2, 2]","[2, -2, -2]",[],non-match,0.18350341907227385,1,1.2347995406967718,0.6993073194908932,0.1018545274099676,4th,4th,3rd,1.2777140698905634,1.322325235713222,0.24083150803970244
perc,resp,1490,1,2.2.1left.bmp,2.2.1right.bmp,,ACC033,"[0, 0, -2]","[0, 0, -2]",[],match,1.0,,0.2162104081129371,-1.3593710984756782,0.25259372886201814,3rd,1st,3rd,0.30110682378285597,-1.1931112071598857,0.24083150803970244
perc,resp,1125,1,1.3.1left.bmp,1.3.1right.bmp,,ACC033,"[-2, 2, -2]","[-2, 2, -2]",[],match,1.0,,-0.2847871393527569,0.6971930233672563,-0.08469900639484874,2nd,4th,2nd,-0.3380964783325295,1.322325235713222,-0.3302942238326666
perc,resp,1487,0,2.2.2left.bmp,2.3.1right.bmp,,ACC033,"[0, 0, 0]","[0, 2, -2]",[],non-match,0.5917517095361369,3,-1.856769303747826,-0.6638977824747075,0.162152093311298,1st,1st,3rd,-1.2362963738146713,-1.1931112071598857,0.24083150803970244
perc,resp,1006,1,3.3.2left.bmp,2.1.3right.bmp,,ACC033,"[2, 2, 0]","[0, -2, 2]",[],non-match,0.29289321881345254,1,0.02997141231017017,0.24355411346095027,0.19586029328792084,3rd,3rd,3rd,0.30110682378285597,0.2434256138838892,0.24083150803970244
perc,resp,1117,1,2.2.3left.bmp,1.1.2right.bmp,,ACC033,"[0, 0, 2]","[-2, -2, 0]",[],non-match,0.5,3,0.16299038315266673,1.4551170566489693,-0.12978947919573697,3rd,4th,2nd,0.30110682378285597,1.322325235713222,-0.3302942238326666
perc,resp,1126,1,1.1.1left.bmp,2.3.3right.bmp,,ACC033,"[-2, -2, -2]","[0, 2, 2]",[],non-match,0.1339745962155613,1,0.3335206381863584,-0.3616744264075583,-0.2185299952844473,3rd,2nd,2nd,0.30110682378285597,-0.36905985399775637,-0.3302942238326666
perc,resp,1054,1,3.1.3left.bmp,2.2.1right.bmp,,ACC033,"[2, -2, 2]","[0, 0, -2]",[],non-match,0.29289321881345254,1,-0.1680939895381041,-1.549020110452439,-0.3505398171906255,2nd,1st,2nd,-0.3380964783325295,-1.1931112071598857,-0.3302942238326666
perc,resp,853,1,2.2.2left.bmp,1.2.1right.bmp,,ACC033,"[0, 0, 0]","[-2, 0, -2]",[],non-match,0.5917517095361369,3,1.1531273483726265,2.810372853154228,-0.4035054994858337,4th,4th,2nd,1.2777140698905634,1.322325235713222,-0.3302942238326666
perc,resp,880,0,2.1.1left.bmp,2.1.1right.bmp,,ACC033,"[0, -2, -2]","[0, -2, -2]",[],match,1.0,,0.3843954348851871,-0.5882078291775642,-0.4764272105616779,3rd,2nd,2nd,0.30110682378285597,-0.36905985399775637,-0.3302942238326666
perc,resp,1644,1,1.2.3left.bmp,2.1.3right.bmp,,ACC033,"[-2, 0, 2]","[0, -2, 2]",[],non-match,0.5917517095361369,3,0.2722846549765858,1.0852736203186835,-0.4271239801427024,3rd,4th,2nd,0.30110682378285597,1.322325235713222,-0.3302942238326666
perc,resp,1438,0,2.2.1left.bmp,3.1.3right.bmp,,ACC033,"[0, 0, -2]","[2, -2, 2]",[],non-match,0.29289321881345254,1,0.4109758088271489,0.7334800194682092,-0.3136991987964701,3rd,4th,2nd,0.30110682378285597,1.322325235713222,-0.3302942238326666
perc,resp,1137,1,1.1.3left.bmp,2.2.3right.bmp,,ACC033,"[-2, -2, 2]","[0, 0, 2]",[],non-match,0.5917517095361369,3,-0.03599791005894119,-0.6464106157691013,-0.4758657161894161,2nd,2nd,2nd,-0.3380964783325295,-0.36905985399775637,-0.3302942238326666
perc,resp,1228,1,3.3.1left.bmp,3.1.1right.bmp,,ACC033,"[2, 2, -2]","[2, -2, -2]",[],non-match,0.42264973081037416,2,-0.17603321308785036,0.8171029392770955,-0.1029324348539807,2nd,4th,2nd,-0.3380964783325295,1.322325235713222,-0.3302942238326666
perc,resp,1611,1,3.1.2left.bmp,3.2.2right.bmp,,ACC033,"[2, -2, 0]","[2, 0, 0]",[],non-match,0.7113248654051871,4,0.8323360305330503,0.10447348608080793,-0.31314124404803295,4th,3rd,2nd,1.2777140698905634,0.2434256138838892,-0.3302942238326666
perc,resp,1455,1,2.1.2left.bmp,2.1.2right.bmp,,ACC033,"[0, -2, 0]","[0, -2, 0]",[],match,1.0,,-1.1102338681547717,1.2336611178118977,-0.26607852300754564,1st,4th,2nd,-1.2362963738146713,1.322325235713222,-0.3302942238326666
perc,resp,1086,0,2.3.2left.bmp,2.3.2right.bmp,,ACC033,"[0, 2, 0]","[0, 2, 0]",[],match,1.0,,0.2075531892322947,1.4345667591201219,-0.16129922809680822,3rd,4th,2nd,0.30110682378285597,1.322325235713222,-0.3302942238326666
perc,resp,1052,1,1.3.3left.bmp,1.3.3right.bmp,,ACC033,"[-2, 2, 2]","[-2, 2, 2]",[],match,1.0,,-0.3629879818574849,0.40156874857632613,0.09513142741187994,2nd,3rd,3rd,-0.3380964783325295,0.2434256138838892,0.24083150803970244
perc,resp,1233,1,3.2.3left.bmp,3.2.3right.bmp,,ACC033,"[2, 0, 2]","[2, 0, 2]",[],match,1.0,,-0.30194016844365384,-0.6465481704230901,0.03845936362972327,2nd,2nd,3rd,-0.3380964783325295,-0.36905985399775637,0.24083150803970244
perc,resp,1466,1,3.2.2left.bmp,3.3.3right.bmp,,ACC033,"[2, 0, 0]","[2, 2, 2]",[],non-match,0.5917517095361369,3,0.5266820736910778,1.2859637201462983,-0.09652669998871292,3rd,4th,2nd,0.30110682378285597,1.322325235713222,-0.3302942238326666
perc,resp,945,1,3.1.1left.bmp,1.2.3right.bmp,,ACC033,"[2, -2, -2]","[-2, 0, 2]",[],non-match,0.1339745962155613,1,1.0334556818635936,-0.0122132858338914,-0.14005853450013248,4th,3rd,2nd,1.2777140698905634,0.2434256138838892,-0.3302942238326666
perc,resp,1608,0,2.3.3left.bmp,2.3.3right.bmp,,ACC033,"[0, 2, 2]","[0, 2, 2]",[],match,1.0,,-0.38465775422908166,0.1770794628296971,-0.04984978406090248,2nd,3rd,2nd,-0.3380964783325295,0.2434256138838892,-0.3302942238326666
perc,resp,1077,0,1.2.2left.bmp,1.1.3right.bmp,,ACC033,"[-2, 0, 0]","[-2, -2, 2]",[],non-match,0.5917517095361369,3,-0.8081277266797906,-0.391683392528584,-0.011399735329418665,1st,2nd,3rd,-1.2362963738146713,-0.36905985399775637,0.24083150803970244
perc,resp,1106,1,3.3.3left.bmp,2.1.1right.bmp,,ACC033,"[2, 2, 2]","[0, -2, -2]",[],non-match,0.1339745962155613,1,1.2389689644452602,-0.06876853665354159,-0.22672634753452248,4th,3rd,2nd,1.2777140698905634,0.2434256138838892,-0.3302942238326666
perc,resp,1075,1,1.2.1left.bmp,3.2.3right.bmp,,ACC033,"[-2, 0, -2]","[2, 0, 2]",[],non-match,0.18350341907227385,1,-0.9878890608531228,-0.6855864555506188,-0.38396244753580977,1st,1st,2nd,-1.2362963738146713,-1.1931112071598857,-0.3302942238326666
perc,resp,1570,1,1.3.2left.bmp,1.3.2right.bmp,,ACC033,"[-2, 2, 0]","[-2, 2, 0]",[],match,1.0,,-1.5480165979349798,-1.3865907260928478,-0.2584086335867586,1st,1st,2nd,-1.2362963738146713,-1.1931112071598857,-0.3302942238326666
perc,resp,1531,0,3.2.1left.bmp,3.2.1right.bmp,,ACC033,"[2, 0, -2]","[2, 0, -2]",[],match,1.0,,-0.8568984457443788,-0.06511376707527398,-0.09482770968187997,1st,3rd,2nd,-1.2362963738146713,0.2434256138838892,-0.3302942238326666
perc,resp,1143,1,1.1.2left.bmp,2.1.2right.bmp,,ACC033,"[-2, -2, 0]","[0, -2, 0]",[],non-match,0.7113248654051871,4,-0.01954520049048179,1.4553219265653634,-0.2511076741404633,3rd,4th,2nd,0.30110682378285597,1.322325235713222,-0.3302942238326666
perc,resp,901,0,3.3.2left.bmp,1.3.3right.bmp,,ACC033,"[2, 2, 0]","[-2, 2, 2]",[],non-match,0.3545027756320971,2,-0.20898241147992427,2.174862152106228,-0.09767447371687828,2nd,4th,2nd,-0.3380964783325295,1.322325235713222,-0.3302942238326666
perc,resp,1200,1,2.3.1left.bmp,2.3.1right.bmp,,ACC033,"[0, 2, -2]","[0, 2, -2]",[],match,1.0,,-0.3213605295066061,0.5534047288853171,0.09710964774089699,2nd,3rd,3rd,-0.3380964783325295,0.2434256138838892,0.24083150803970244
perc,resp,1313,1,1.3.1left.bmp,1.3.1right.bmp,,ACC033,"[-2, 2, -2]","[-2, 2, -2]",[],match,1.0,,-0.31451317713067756,-0.3270594292828996,0.28987410551008036,2nd,2nd,3rd,-0.3380964783325295,-0.36905985399775637,0.24083150803970244
perc,resp,1576,0,2.1.3left.bmp,2.1.3right.bmp,,ACC033,"[0, -2, 2]","[0, -2, 2]",[],match,1.0,,0.5300319190144849,-0.8658177348595828,-0.022283396391300475,3rd,1st,3rd,0.30110682378285597,-1.1931112071598857,0.24083150803970244
perc,resp,1036,1,3.1.2left.bmp,1.2.3right.bmp,,ACC033,"[2, -2, 0]","[-2, 0, 2]",[],non-match,0.29289321881345254,1,1.2181942407866786,-0.006391826972085224,0.2867870883507225,4th,3rd,3rd,1.2777140698905634,0.2434256138838892,0.24083150803970244
perc,resp,1014,0,3.3.1left.bmp,3.2.2right.bmp,,ACC033,"[2, 2, -2]","[2, 0, 0]",[],non-match,0.5917517095361369,3,0.7804366767662535,0.9400503320521351,0.4495250277954412,4th,4th,3rd,1.2777140698905634,1.322325235713222,0.24083150803970244
perc,resp,1717,1,2.3.3left.bmp,2.3.3right.bmp,,ACC033,"[0, 2, 2]","[0, 2, 2]",[],match,1.0,,-2.11104684421045,-0.7538425414462758,0.5862604952924504,1st,1st,4th,-1.2362963738146713,-1.1931112071598857,1.336342279535304
perc,resp,1139,1,2.2.3left.bmp,2.2.3right.bmp,,ACC033,"[0, 0, 2]","[0, 0, 2]",[],match,1.0,,0.46865206876269605,1.9614112731306732,0.32548278825237476,3rd,4th,3rd,0.30110682378285597,1.322325235713222,0.24083150803970244
perc,resp,1037,1,2.2.2left.bmp,1.2.2right.bmp,,ACC033,"[0, 0, 0]","[-2, 0, 0]",[],non-match,0.7113248654051871,4,-0.36941452950681103,0.2889043725833947,0.08580770484835058,2nd,3rd,3rd,-0.3380964783325295,0.2434256138838892,0.24083150803970244
perc,resp,1045,1,1.2.3left.bmp,1.2.3right.bmp,,ACC033,"[-2, 0, 2]","[-2, 0, 2]",[],match,1.0,,-1.109636711753597,0.11027827439173647,0.3020555350536951,1st,3rd,3rd,-1.2362963738146713,0.2434256138838892,0.24083150803970244
perc,resp,1074,1,3.1.3left.bmp,3.3.1right.bmp,,ACC033,"[2, -2, 2]","[2, 2, -2]",[],non-match,0.18350341907227385,1,0.2409982287351089,0.23233109465809362,0.18748567236357588,3rd,3rd,3rd,0.30110682378285597,0.2434256138838892,0.24083150803970244
perc,resp,1639,1,3.1.1left.bmp,3.1.1right.bmp,,ACC033,"[2, -2, -2]","[2, -2, -2]",[],match,1.0,,-0.5903267501702127,-0.7075118172887682,0.39624137120396935,2nd,1st,3rd,-0.3380964783325295,-1.1931112071598857,0.24083150803970244
perc,resp,1240,1,3.2.1left.bmp,2.3.2right.bmp,,ACC033,"[2, 0, -2]","[0, 2, 0]",[],non-match,0.5,3,-0.7041150751635347,1.344745047202886,0.10818111667298207,2nd,4th,3rd,-0.3380964783325295,1.322325235713222,0.24083150803970244
perc,resp,1179,1,1.3.2left.bmp,1.3.2right.bmp,,ACC033,"[-2, 2, 0]","[-2, 2, 0]",[],match,1.0,,-1.8064863882887772,-0.09843470138341379,-0.039700663210939346,1st,2nd,2nd,-1.2362963738146713,-0.36905985399775637,-0.3302942238326666
perc,resp,1088,1,1.3.1left.bmp,1.3.1right.bmp,,ACC033,"[-2, 2, -2]","[-2, 2, -2]",[],match,1.0,,-1.374623691304711,-2.082895977569958,-0.18844890542208667,1st,1st,2nd,-1.2362963738146713,-1.1931112071598857,-0.3302942238326666
perc,resp,1583,1,1.2.2left.bmp,1.2.2right.bmp,,ACC033,"[-2, 0, 0]","[-2, 0, 0]",[],match,1.0,,-0.7374748985668373,0.20279618413893083,-0.21573837102349536,1st,3rd,2nd,-1.2362963738146713,0.2434256138838892,-0.3302942238326666
perc,resp,1587,0,3.2.3left.bmp,3.2.3right.bmp,,ACC033,"[2, 0, 2]","[2, 0, 2]",[],match,1.0,,-0.5915787418829285,0.9542851134708262,-0.25644260600138724,2nd,4th,2nd,-0.3380964783325295,1.322325235713222,-0.3302942238326666
perc,resp,1188,1,1.1.2left.bmp,2.3.2right.bmp,,ACC033,"[-2, -2, 0]","[0, 2, 0]",[],non-match,0.3545027756320971,2,2.7979518563197527,2.739992379874704,-0.3424120043539553,4th,4th,2nd,1.2777140698905634,1.322325235713222,-0.3302942238326666
perc,resp,1057,0,1.2.1left.bmp,1.3.3right.bmp,,ACC033,"[-2, 0, -2]","[-2, 2, 2]",[],non-match,0.3545027756320971,2,-0.3956204209139228,-1.6639655088029286,-0.45383209179851886,2nd,1st,2nd,-0.3380964783325295,-1.1931112071598857,-0.3302942238326666
perc,resp,1002,1,1.3.3left.bmp,1.3.3right.bmp,,ACC033,"[-2, 2, 2]","[-2, 2, 2]",[],match,1.0,,-1.0445898730655272,1.0079008608255535,-0.3067173445394831,1st,4th,2nd,-1.2362963738146713,1.322325235713222,-0.3302942238326666
perc,resp,1273,1,3.2.2left.bmp,3.2.2right.bmp,,ACC033,"[2, 0, 0]","[2, 0, 0]",[],match,1.0,,-2.2597047123201888,-1.966533052019614,-0.528178493943731,1st,1st,2nd,-1.2362963738146713,-1.1931112071598857,-0.3302942238326666
perc,resp,1224,1,2.3.1left.bmp,3.3.1right.bmp,,ACC033,"[0, 2, -2]","[2, 2, -2]",[],non-match,0.7113248654051871,4,-0.32170324440183734,-0.6807548897795487,-0.3806940032402327,2nd,1st,2nd,-0.3380964783325295,-1.1931112071598857,-0.3302942238326666
perc,resp,961,1,3.1.3left.bmp,1.3.2right.bmp,,ACC033,"[2, -2, 2]","[-2, 2, 0]",[],non-match,0.1339745962155613,1,0.9919784902425842,0.49403441589192676,-0.2458626137410084,4th,3rd,2nd,1.2777140698905634,0.2434256138838892,-0.3302942238326666
perc,resp,1382,1,3.2.1left.bmp,2.3.3right.bmp,,ACC033,"[2, 0, -2]","[0, 2, 2]",[],non-match,0.29289321881345254,1,-0.7029924641340822,-1.3724334925045794,-0.3047491278836428,2nd,1st,2nd,-0.3380964783325295,-1.1931112071598857,-0.3302942238326666
perc,resp,963,1,1.3.1left.bmp,1.3.1right.bmp,,ACC033,"[-2, 2, -2]","[-2, 2, -2]",[],match,1.0,,-0.4811815920907568,0.29429129680572663,-0.750102842378952,2nd,3rd,1st,-0.3380964783325295,0.2434256138838892,-1.2433379239182274
perc,resp,1272,1,2.1.2left.bmp,3.1.2right.bmp,,ACC033,"[0, -2, 0]","[2, -2, 0]",[],non-match,0.7113248654051871,4,-1.068630844636513,0.6936944422300687,-0.7262107168654037,1st,4th,2nd,-1.2362963738146713,1.322325235713222,-0.3302942238326666
perc,resp,1183,1,2.2.3left.bmp,2.2.3right.bmp,,ACC033,"[0, 0, 2]","[0, 0, 2]",[],match,1.0,,-1.6660284229503326,-0.11975523563957685,-0.7131084798732356,1st,2nd,2nd,-1.2362963738146713,-0.36905985399775637,-0.3302942238326666
perc,resp,1466,0,1.2.1left.bmp,1.2.1right.bmp,,ACC033,"[-2, 0, -2]","[-2, 0, -2]",[],match,1.0,,-0.39861934854712344,-1.0888087360050234,-1.0012513864094785,2nd,1st,1st,-0.3380964783325295,-1.1931112071598857,-1.2433379239182274
perc,resp,1225,1,3.1.1left.bmp,3.1.1right.bmp,,ACC033,"[2, -2, -2]","[2, -2, -2]",[],match,1.0,,0.2317264881200652,-0.02375294713002752,-0.761186708364225,3rd,3rd,1st,0.30110682378285597,0.2434256138838892,-1.2433379239182274
perc,resp,1034,1,2.2.1left.bmp,1.1.2right.bmp,,ACC033,"[0, 0, -2]","[-2, -2, 0]",[],non-match,0.5,3,0.8325370588977294,-0.828986247818383,-0.784103355639435,4th,1st,1st,1.2777140698905634,-1.1931112071598857,-1.2433379239182274
perc,resp,893,1,2.1.1left.bmp,1.1.1right.bmp,,ACC033,"[0, -2, -2]","[-2, -2, -2]",[],non-match,0.7113248654051871,4,-1.059746324623735,0.036683746034053666,-0.4379076997185776,1st,3rd,2nd,-1.2362963738146713,0.2434256138838892,-0.3302942238326666
perc,resp,1092,1,2.3.3left.bmp,2.3.3right.bmp,,ACC033,"[0, 2, 2]","[0, 2, 2]",[],match,1.0,,-0.03126079524734748,-0.9626431732690124,-0.03744359635992046,2nd,1st,2nd,-0.3380964783325295,-1.1931112071598857,-0.3302942238326666
perc,resp,829,1,1.1.3left.bmp,1.3.1right.bmp,,ACC033,"[-2, -2, 2]","[-2, 2, -2]",[],non-match,0.18350341907227385,1,0.45507497967808463,-2.072060537770389,0.13415519460433561,3rd,1st,3rd,0.30110682378285597,-1.1931112071598857,0.24083150803970244
perc,resp,1419,1,1.1.2left.bmp,1.1.2right.bmp,,ACC033,"[-2, -2, 0]","[-2, -2, 0]",[],match,1.0,,0.5186313562525662,-1.9016285391160812,0.29060783573194754,3rd,1st,3rd,0.30110682378285597,-1.1931112071598857,0.24083150803970244
perc,resp,1250,0,3.1.2left.bmp,3.1.2right.bmp,,ACC033,"[2, -2, 0]","[2, -2, 0]",[],match,1.0,,-0.8713560644355537,0.5181957341076106,0.21522144377304528,1st,3rd,3rd,-1.2362963738146713,0.2434256138838892,0.24083150803970244
perc,resp,1059,1,1.2.2left.bmp,2.3.1right.bmp,,ACC033,"[-2, 0, 0]","[0, 2, -2]",[],non-match,0.5,3,-0.6607627209355339,-2.006487334742772,0.34558187386739175,2nd,1st,3rd,-0.3380964783325295,-1.1931112071598857,0.24083150803970244
perc,resp,1250,1,3.2.3left.bmp,3.2.3right.bmp,,ACC033,"[2, 0, 2]","[2, 0, 2]",[],match,1.0,,-0.1610625412391145,0.7750074921673268,0.4560704028832916,2nd,4th,3rd,-0.3380964783325295,1.322325235713222,0.24083150803970244
perc,resp,985,1,3.3.3left.bmp,1.3.3right.bmp,,ACC033,"[2, 2, 2]","[-2, 2, 2]",[],non-match,0.42264973081037416,2,2.0064518444751838,1.5003154117824924,0.6543076103418031,4th,4th,4th,1.2777140698905634,1.322325235713222,1.336342279535304
perc,resp,1578,0,1.2.3left.bmp,1.2.1right.bmp,,ACC033,"[-2, 0, 2]","[-2, 0, -2]",[],non-match,0.42264973081037416,2,-1.323837782119832,-1.2447138983026225,1.055300687471551,1st,1st,4th,-1.2362963738146713,-1.1931112071598857,1.336342279535304
perc,resp,885,1,1.1.1left.bmp,3.1.2right.bmp,,ACC033,"[-2, -2, -2]","[2, -2, 0]",[],non-match,0.3545027756320971,2,0.6152122487552932,-0.6595099608427376,1.4338660770863094,4th,1st,4th,1.2777140698905634,-1.1931112071598857,1.336342279535304
perc,resp,1186,1,1.3.2left.bmp,1.3.2right.bmp,,ACC033,"[-2, 2, 0]","[-2, 2, 0]",[],match,1.0,,-1.2025761971732711,0.33110045344807876,1.290729037742576,1st,3rd,4th,-1.2362963738146713,0.2434256138838892,1.336342279535304
perc,resp,1005,1,3.3.1left.bmp,3.3.1right.bmp,,ACC033,"[2, 2, -2]","[2, 2, -2]",[],match,1.0,,0.2280941863157883,-0.9564044381590112,0.8717197104370162,3rd,1st,4th,0.30110682378285597,-1.1931112071598857,1.336342279535304
perc,resp,1154,1,3.3.2left.bmp,3.3.2right.bmp,,ACC033,"[2, 2, 0]","[2, 2, 0]",[],match,1.0,,-1.7575246521023107,-1.0772468950383478,1.1184477918274087,1st,1st,4th,-1.2362963738146713,-1.1931112071598857,1.336342279535304
perc,resp,981,1,2.3.2left.bmp,1.1.2right.bmp,,ACC033,"[0, 2, 0]","[-2, -2, 0]",[],non-match,0.3545027756320971,2,0.5269663493642036,1.194876523499763,1.2279380525870212,3rd,4th,4th,0.30110682378285597,1.322325235713222,1.336342279535304
perc,resp,819,1,2.1.3left.bmp,3.2.1right.bmp,,ACC033,"[0, -2, 2]","[2, 0, -2]",[],non-match,0.29289321881345254,1,0.3497464640918362,-1.1201227454998146,1.2726122872221517,3rd,1st,4th,0.30110682378285597,-1.1931112071598857,1.336342279535304
perc,resp,1278,1,2.2.2left.bmp,2.2.2right.bmp,,ACC033,"[0, 0, 0]","[0, 0, 0]",[],match,1.0,,0.1281237901197659,0.5246991481266673,1.2493709125720727,3rd,3rd,4th,0.30110682378285597,0.2434256138838892,1.336342279535304
perc,resp,1007,0,3.3.3left.bmp,3.2.2right.bmp,,ACC033,"[2, 2, 2]","[2, 0, 0]",[],non-match,0.5917517095361369,3,-0.43972185005181963,-0.9633423415990499,1.5112840408621993,2nd,1st,4th,-0.3380964783325295,-1.1931112071598857,1.336342279535304
perc,resp,1116,1,2.3.3left.bmp,2.3.3right.bmp,,ACC033,"[0, 2, 2]","[0, 2, 2]",[],match,1.0,,-1.7153231466280643,-1.2016488159867285,1.7565240835933777,1st,1st,4th,-1.2362963738146713,-1.1931112071598857,1.336342279535304
perc,resp,1314,1,1.3.1left.bmp,1.3.1right.bmp,,ACC033,"[-2, 2, -2]","[-2, 2, -2]",[],match,1.0,,-1.3524286127550587,-1.5491466223737542,1.5949895880955103,1st,1st,4th,-1.2362963738146713,-1.1931112071598857,1.336342279535304
perc,resp,828,1,2.1.1left.bmp,1.1.3right.bmp,,ACC033,"[0, -2, -2]","[-2, -2, 2]",[],non-match,0.3545027756320971,2,1.9100551601564348,0.6972493957544923,1.3738052585907097,4th,4th,4th,1.2777140698905634,1.322325235713222,1.336342279535304
perc,resp,1058,1,1.2.2left.bmp,2.2.1right.bmp,,ACC033,"[-2, 0, 0]","[0, 0, -2]",[],non-match,0.5917517095361369,3,-1.3120686561554957,-0.6675874946430046,1.0125626006181758,1st,1st,4th,-1.2362963738146713,-1.1931112071598857,1.336342279535304
perc,resp,1106,1,1.3.2left.bmp,2.1.2right.bmp,,ACC033,"[-2, 2, 0]","[0, -2, 0]",[],non-match,0.3545027756320971,2,-1.729644758979161,-1.2412489484191835,1.1794221185050153,1st,1st,4th,-1.2362963738146713,-1.1931112071598857,1.336342279535304
perc,resp,1165,1,1.3.3left.bmp,1.3.3right.bmp,,ACC033,"[-2, 2, 2]","[-2, 2, 2]",[],match,1.0,,-1.0404499051498068,-1.0757165053075304,0.9889597521027695,1st,1st,4th,-1.2362963738146713,-1.1931112071598857,1.336342279535304
perc,resp,1590,0,3.1.1left.bmp,3.1.1right.bmp,,ACC033,"[2, -2, -2]","[2, -2, -2]",[],match,1.0,,-1.5062456233645845,-0.6396864978248825,0.860823303446277,1st,2nd,4th,-1.2362963738146713,-0.36905985399775637,1.336342279535304
perc,resp,1946,1,2.2.1left.bmp,2.2.2right.bmp,,ACC033,"[0, 0, -2]","[0, 0, 0]",[],non-match,0.7113248654051871,4,-0.09153329751661199,1.1069418395631827,0.9456429936300187,2nd,4th,4th,-0.3380964783325295,1.322325235713222,1.336342279535304
perc,resp,1255,1,2.1.3left.bmp,3.1.2right.bmp,,ACC033,"[0, -2, 2]","[2, -2, 0]",[],non-match,0.5917517095361369,3,-1.8239732413081773,-1.2238071622389441,0.9313617019925323,1st,1st,4th,-1.2362963738146713,-1.1931112071598857,1.336342279535304
perc,resp,1368,1,3.3.1left.bmp,3.3.1right.bmp,,ACC033,"[2, 2, -2]","[2, 2, -2]",[],match,1.0,,-1.020503957312001,-1.2738282768421354,0.6377670638569679,1st,1st,4th,-1.2362963738146713,-1.1931112071598857,1.336342279535304
perc,resp,1431,1,2.3.1left.bmp,2.3.1right.bmp,,ACC033,"[0, 2, -2]","[0, 2, -2]",[],match,1.0,,-1.2250670569397653,-1.365284154930328,0.4898789860772279,1st,1st,3rd,-1.2362963738146713,-1.1931112071598857,0.24083150803970244
perc,resp,1183,0,3.1.3left.bmp,3.1.3right.bmp,,ACC033,"[2, -2, 2]","[2, -2, 2]",[],match,1.0,,-0.07460009563503747,0.5481066891462821,0.7596093181061887,2nd,3rd,4th,-0.3380964783325295,0.2434256138838892,1.336342279535304
perc,resp,1394,0,2.3.2left.bmp,2.3.3right.bmp,,ACC033,"[0, 2, 0]","[0, 2, 2]",[],non-match,0.7113248654051871,4,-0.11050778586949504,-0.8503067368560537,0.5028503005367622,2nd,1st,4th,-0.3380964783325295,-1.1931112071598857,1.336342279535304
perc,resp,1265,1,1.1.3left.bmp,1.2.1right.bmp,,ACC033,"[-2, -2, 2]","[-2, 0, -2]",[],non-match,0.3545027756320971,2,0.574002729317564,2.820500710215958,0.3205144653674626,3rd,4th,3rd,0.30110682378285597,1.322325235713222,0.24083150803970244
perc,resp,798,1,1.2.3left.bmp,2.2.3right.bmp,,ACC033,"[-2, 0, 2]","[0, 0, 2]",[],non-match,0.7113248654051871,4,1.8755880215654137,-0.5708303173161139,0.37695040468111934,4th,2nd,3rd,1.2777140698905634,-0.36905985399775637,0.24083150803970244
perc,resp,1158,1,2.2.2left.bmp,3.3.1right.bmp,,ACC033,"[0, 0, 0]","[2, 2, -2]",[],non-match,0.5,3,0.2821267322279919,-1.5999720269972724,0.021304872203809225,3rd,1st,3rd,0.30110682378285597,-1.1931112071598857,0.24083150803970244
perc,resp,1449,0,1.2.1left.bmp,2.2.1right.bmp,,ACC033,"[-2, 0, -2]","[0, 0, -2]",[],non-match,0.7113248654051871,4,-0.03753459689756616,-0.3535631407708958,0.12785611539859112,2nd,2nd,3rd,-0.3380964783325295,-0.36905985399775637,0.24083150803970244
perc,resp,1322,1,3.3.2left.bmp,2.1.1right.bmp,,ACC033,"[2, 2, 0]","[0, -2, -2]",[],non-match,0.29289321881345254,1,1.7357134936381897,1.5150283033945346,0.288032796866083,4th,4th,3rd,1.2777140698905634,1.322325235713222,0.24083150803970244
perc,resp,1303,1,3.2.1left.bmp,3.2.1right.bmp,,ACC033,"[2, 0, -2]","[2, 0, -2]",[],match,1.0,,-0.9223068699942382,0.26531858780301387,0.21279033981153053,1st,3rd,3rd,-1.2362963738146713,0.2434256138838892,0.24083150803970244
perc,resp,889,1,3.2.2left.bmp,3.2.2right.bmp,,ACC033,"[2, 0, 0]","[2, 0, 0]",[],match,1.0,,-1.9951772618773476,-0.3156988256803927,0.09141481500151458,1st,2nd,3rd,-1.2362963738146713,-0.36905985399775637,0.24083150803970244
perc,resp,1471,1,3.1.2left.bmp,3.1.3right.bmp,,ACC033,"[2, -2, 0]","[2, -2, 2]",[],non-match,0.7113248654051871,4,1.0137404916081088,0.6657780183696107,0.09812871165074373,4th,4th,3rd,1.2777140698905634,1.322325235713222,0.24083150803970244
perc,resp,1575,1,1.1.2left.bmp,1.1.2right.bmp,,ACC033,"[-2, -2, 0]","[-2, -2, 0]",[],match,1.0,,-0.7488954718065555,-0.35664028179037693,0.30940696609084395,1st,2nd,3rd,-1.2362963738146713,-0.36905985399775637,0.24083150803970244
perc,resp,986,0,2.1.2left.bmp,2.1.2right.bmp,,ACC033,"[0, -2, 0]","[0, -2, 0]",[],match,1.0,,-0.9036030136929679,0.13033116850379398,0.6072625078309613,1st,3rd,4th,-1.2362963738146713,0.2434256138838892,1.336342279535304
perc,resp,1063,1,1.1.1left.bmp,3.2.1right.bmp,,ACC033,"[-2, -2, -2]","[2, 0, -2]",[],non-match,0.3545027756320971,2,-0.028216464754124204,0.43705560345363337,0.7428515731452391,3rd,3rd,4th,0.30110682378285597,0.2434256138838892,1.336342279535304
perc,resp,1141,1,1.2.3left.bmp,1.2.3right.bmp,,ACC033,"[-2, 0, 2]","[-2, 0, 2]",[],match,1.0,,-0.1785204176221061,0.6913301443663793,0.8487878396002276,2nd,4th,4th,-0.3380964783325295,1.322325235713222,1.336342279535304
perc,resp,1264,1,1.1.3left.bmp,1.1.3right.bmp,,ACC033,"[-2, -2, 2]","[-2, -2, 2]",[],match,1.0,,-1.3234321447101218,-0.23937260862850127,0.8272551437203485,1st,2nd,4th,-1.2362963738146713,-0.36905985399775637,1.336342279535304
perc,resp,1956,1,2.1.2left.bmp,2.1.2right.bmp,,ACC033,"[0, -2, 0]","[0, -2, 0]",[],match,1.0,,-0.29819271103234524,-0.20350376299992956,0.6189636442581368,2nd,2nd,4th,-0.3380964783325295,-0.36905985399775637,1.336342279535304
perc,resp,917,1,1.1.2left.bmp,3.2.2right.bmp,,ACC033,"[-2, -2, 0]","[2, 0, 0]",[],non-match,0.3545027756320971,2,1.3900938510694902,0.17177132429401848,0.5664570171167246,4th,3rd,4th,1.2777140698905634,0.2434256138838892,1.336342279535304
perc,resp,946,1,1.3.3left.bmp,1.3.3right.bmp,,ACC033,"[-2, 2, 2]","[-2, 2, 2]",[],match,1.0,,-0.3480890876651601,-0.11567613572829488,0.745808123537056,2nd,2nd,4th,-0.3380964783325295,-0.36905985399775637,1.336342279535304
perc,resp,1240,1,1.2.1left.bmp,1.3.2right.bmp,,ACC033,"[-2, 0, -2]","[-2, 2, 0]",[],non-match,0.5917517095361369,3,1.3873387900967973,-0.09843792696920774,1.0076259868775455,4th,2nd,4th,1.2777140698905634,-0.36905985399775637,1.336342279535304
perc,resp,1375,1,2.1.3left.bmp,2.1.3right.bmp,,ACC033,"[0, -2, 2]","[0, -2, 2]",[],match,1.0,,-0.033198552381039394,-0.4244516513493464,0.8934942835646619,2nd,2nd,4th,-0.3380964783325295,-0.36905985399775637,1.336342279535304
perc,resp,1024,1,2.1.1left.bmp,1.1.1right.bmp,,ACC033,"[0, -2, -2]","[-2, -2, -2]",[],non-match,0.7113248654051871,4,0.41885169345524914,-0.2237316319525701,1.0086355286310236,3rd,2nd,4th,0.30110682378285597,-0.36905985399775637,1.336342279535304
perc,resp,1193,1,2.3.2left.bmp,2.3.2right.bmp,,ACC033,"[0, 2, 0]","[0, 2, 0]",[],match,1.0,,1.3810002125687793,0.1466443576359592,1.005415929455731,4th,3rd,4th,1.2777140698905634,0.2434256138838892,1.336342279535304
perc,resp,1102,1,2.2.3left.bmp,3.1.1right.bmp,,ACC033,"[0, 0, 2]","[2, -2, -2]",[],non-match,0.29289321881345254,1,0.15112535937855887,-0.12742484965137554,1.006504744232803,3rd,2nd,4th,0.30110682378285597,-0.36905985399775637,1.336342279535304
perc,resp,1314,1,3.3.3left.bmp,3.3.3right.bmp,,ACC033,"[2, 2, 2]","[2, 2, 2]",[],match,1.0,,-1.3712078166388773,-0.6531129760820433,0.9956154461760838,1st,1st,4th,-1.2362963738146713,-1.1931112071598857,1.336342279535304
perc,resp,870,1,3.1.3left.bmp,1.1.3right.bmp,,ACC033,"[2, -2, 2]","[-2, -2, 2]",[],non-match,0.42264973081037416,2,1.2486098880702936,0.5368824946626224,0.8434139988312268,4th,3rd,4th,1.2777140698905634,0.2434256138838892,1.336342279535304
perc,resp,1098,1,3.2.3left.bmp,3.2.3right.bmp,,ACC033,"[2, 0, 2]","[2, 0, 2]",[],match,1.0,,-0.39407056478519176,0.9291167718921887,0.8304784784328633,2nd,4th,4th,-0.3380964783325295,1.322325235713222,1.336342279535304
perc,resp,1079,1,3.2.2left.bmp,3.2.2right.bmp,,ACC033,"[2, 0, 0]","[2, 0, 0]",[],match,1.0,,0.5505895760251075,-0.11675519968611375,0.4466221693430516,3rd,2nd,3rd,0.30110682378285597,-0.36905985399775637,0.24083150803970244
perc,resp,1350,0,3.3.1left.bmp,3.3.1right.bmp,,ACC033,"[2, 2, -2]","[2, 2, -2]",[],match,1.0,,1.005779064396031,-0.7336309982535085,0.49962572283905243,4th,1st,3rd,1.2777140698905634,-1.1931112071598857,0.24083150803970244
perc,resp,1312,1,2.3.1left.bmp,3.2.1right.bmp,,ACC033,"[0, 2, -2]","[2, 0, -2]",[],non-match,0.5917517095361369,3,0.31593960983891023,-0.22025570151188514,0.36651209365221604,3rd,2nd,3rd,0.30110682378285597,-0.36905985399775637,0.24083150803970244
perc,resp,999,1,3.3.3left.bmp,3.3.3right.bmp,,ACC033,"[2, 2, 2]","[2, 2, 2]",[],match,1.0,,-0.24481941449270356,0.9897531122367877,0.2916274735554021,2nd,4th,3rd,-0.3380964783325295,1.322325235713222,0.24083150803970244
perc,resp,1107,1,1.1.2left.bmp,1.1.2right.bmp,,ACC033,"[-2, -2, 0]","[-2, -2, 0]",[],match,1.0,,-0.5052785760517334,-0.5526331147694551,0.10812944503598663,2nd,2nd,3rd,-0.3380964783325295,-0.36905985399775637,0.24083150803970244
perc,resp,1068,1,2.1.3left.bmp,2.3.3right.bmp,,ACC033,"[0, -2, 2]","[0, 2, 2]",[],non-match,0.42264973081037416,2,0.886872964333232,0.567206618603093,-0.2778485789551904,4th,3rd,2nd,1.2777140698905634,0.2434256138838892,-0.3302942238326666
perc,resp,1177,1,2.2.3left.bmp,3.1.3right.bmp,,ACC033,"[0, 0, 2]","[2, -2, 2]",[],non-match,0.5917517095361369,3,1.4089087443752402,-0.03558081602411659,-0.41645046317875756,4th,3rd,2nd,1.2777140698905634,0.2434256138838892,-0.3302942238326666
perc,resp,1278,1,2.2.2left.bmp,2.2.2right.bmp,,ACC033,"[0, 0, 0]","[0, 0, 0]",[],match,1.0,,-0.050640688455303604,0.27488606716082253,-0.29342966425652967,2nd,3rd,2nd,-0.3380964783325295,0.2434256138838892,-0.3302942238326666
perc,resp,811,1,3.3.1left.bmp,1.1.2right.bmp,,ACC033,"[2, 2, -2]","[-2, -2, 0]",[],non-match,0.1339745962155613,1,1.5399486233582886,1.2828160307422023,0.022607044289604247,4th,4th,3rd,1.2777140698905634,1.322325235713222,0.24083150803970244
perc,resp,1754,1,3.2.1left.bmp,3.2.1right.bmp,,ACC033,"[2, 0, -2]","[2, 0, -2]",[],match,1.0,,0.02302079123007247,1.135623989606336,0.08115343726579546,3rd,4th,3rd,0.30110682378285597,1.322325235713222,0.24083150803970244
perc,resp,963,1,2.3.2left.bmp,2.1.1right.bmp,,ACC033,"[0, 2, 0]","[0, -2, -2]",[],non-match,0.3545027756320971,2,0.179515626391241,1.705396106642946,-0.357722477684325,3rd,4th,2nd,0.30110682378285597,1.322325235713222,-0.3302942238326666
perc,resp,1414,1,2.2.1left.bmp,2.2.1right.bmp,,ACC033,"[0, 0, -2]","[0, 0, -2]",[],match,1.0,,0.5938036521427018,-0.021847432322380584,-0.42934751630884427,3rd,3rd,2nd,0.30110682378285597,0.2434256138838892,-0.3302942238326666
perc,resp,1285,1,1.3.1left.bmp,1.2.3right.bmp,,ACC033,"[-2, 2, -2]","[-2, 0, 2]",[],non-match,0.3545027756320971,2,0.45435684152934747,-0.07903434026286212,-0.3964670427254407,3rd,2nd,2nd,0.30110682378285597,-0.36905985399775637,-0.3302942238326666
perc,resp,1014,1,1.3.2left.bmp,2.1.2right.bmp,,ACC033,"[-2, 2, 0]","[0, -2, 0]",[],non-match,0.3545027756320971,2,1.084838677318848,0.4290859798173557,-0.40322676944104635,4th,3rd,2nd,1.2777140698905634,0.2434256138838892,-0.3302942238326666
perc,resp,1093,1,1.1.3left.bmp,3.2.3right.bmp,,ACC033,"[-2, -2, 2]","[2, 0, 2]",[],non-match,0.3545027756320971,2,0.46358393347230903,0.4979247135244599,-0.35999212906274936,3rd,3rd,2nd,0.30110682378285597,0.2434256138838892,-0.3302942238326666
perc,resp,1315,1,1.1.1left.bmp,1.1.1right.bmp,,ACC033,"[-2, -2, -2]","[-2, -2, -2]",[],match,1.0,,0.03739566946738307,0.8686898836045506,-0.40224117023190237,3rd,4th,2nd,0.30110682378285597,1.322325235713222,-0.3302942238326666
perc,resp,1595,1,3.3.2left.bmp,3.3.2right.bmp,,ACC033,"[2, 2, 0]","[2, 2, 0]",[],match,1.0,,0.5883135419859501,2.163478667946549,0.020918889399338017,3rd,4th,3rd,0.30110682378285597,1.322325235713222,0.24083150803970244
perc,resp,854,1,3.1.2left.bmp,1.3.3right.bmp,,ACC033,"[2, -2, 0]","[-2, 2, 2]",[],non-match,0.1339745962155613,1,1.9060853430268805,-0.28896764256619967,0.3855059675039986,4th,2nd,3rd,1.2777140698905634,-0.36905985399775637,0.24083150803970244
perc,resp,1587,1,3.2.2left.bmp,3.3.3right.bmp,,ACC033,"[2, 0, 0]","[2, 2, 2]",[],non-match,0.5917517095361369,3,-0.10412002992404185,-0.6882234830991215,0.1544201131055822,2nd,1st,3rd,-0.3380964783325295,-1.1931112071598857,0.24083150803970244
perc,resp,1066,1,3.2.3left.bmp,3.2.3right.bmp,,ACC033,"[2, 0, 2]","[2, 0, 2]",[],match,1.0,,0.15804816568050575,0.4420362244486016,-0.020041922511571126,3rd,3rd,3rd,0.30110682378285597,0.2434256138838892,0.24083150803970244
perc,resp,1197,1,1.2.2left.bmp,1.2.2right.bmp,,ACC033,"[-2, 0, 0]","[-2, 0, 0]",[],match,1.0,,1.5126458385368704,0.9472037769727822,0.06341574938126424,4th,4th,3rd,1.2777140698905634,1.322325235713222,0.24083150803970244
perc,resp,1277,0,2.1.2left.bmp,2.1.2right.bmp,,ACC033,"[0, -2, 0]","[0, -2, 0]",[],match,1.0,,-1.4175897095855283,0.24793675003912083,-0.06810354147175207,1st,3rd,2nd,-1.2362963738146713,0.2434256138838892,-0.3302942238326666
perc,resp,1015,1,2.3.1left.bmp,1.2.3right.bmp,,ACC033,"[0, 2, -2]","[-2, 0, 2]",[],non-match,0.29289321881345254,1,1.4269942875980235,-0.2295277232401201,-0.056416094482478835,4th,2nd,2nd,1.2777140698905634,-0.36905985399775637,-0.3302942238326666
perc,resp,972,1,1.3.3left.bmp,3.3.2right.bmp,,ACC033,"[-2, 2, 2]","[2, 2, 0]",[],non-match,0.3545027756320971,2,0.5998237905392987,-0.9916779823346695,-0.032829152226576924,3rd,1st,3rd,0.30110682378285597,-1.1931112071598857,0.24083150803970244
perc,resp,1121,1,3.1.1left.bmp,3.2.1right.bmp,,ACC033,"[2, -2, -2]","[2, 0, -2]",[],non-match,0.7113248654051871,4,0.48549993179570783,-0.5255381639564494,-0.24493244874921202,3rd,2nd,2nd,0.30110682378285597,-0.36905985399775637,-0.3302942238326666
perc,resp,1512,1,1.2.1left.bmp,1.2.1right.bmp,,ACC033,"[-2, 0, -2]","[-2, 0, -2]",[],match,1.0,,-0.5041817632378132,-0.3779054686117992,-0.6068812475805705,2nd,2nd,2nd,-0.3380964783325295,-0.36905985399775637,-0.3302942238326666
perc,resp,1343,1,3.1.3left.bmp,2.3.1right.bmp,,ACC033,"[2, -2, 2]","[0, 2, -2]",[],non-match,0.1339745962155613,1,1.145291671594475,0.7558068611278624,-0.15861140464391124,4th,4th,2nd,1.2777140698905634,1.322325235713222,-0.3302942238326666
perc,resp,1484,1,2.1.1left.bmp,2.1.1right.bmp,,ACC033,"[0, -2, -2]","[0, -2, -2]",[],match,1.0,,-0.7442063549398846,-0.09471731926595396,0.13068560454490089,1st,2nd,3rd,-1.2362963738146713,-0.36905985399775637,0.24083150803970244
perc,resp,1759,1,1.2.3left.bmp,1.2.3right.bmp,,ACC033,"[-2, 0, 2]","[-2, 0, 2]",[],match,1.0,,-0.43009978035859514,-0.16733402787038093,0.03723425434108859,2nd,2nd,3rd,-0.3380964783325295,-0.36905985399775637,0.24083150803970244
perc,resp,1665,0,2.3.3left.bmp,2.3.3right.bmp,,ACC033,"[0, 2, 2]","[0, 2, 2]",[],match,1.0,,-0.2599367558814835,-0.3622439382469523,0.4139394689841623,2nd,2nd,3rd,-0.3380964783325295,-0.36905985399775637,0.24083150803970244
perc,resp,1566,1,1.2.1left.bmp,1.1.3right.bmp,,ACC033,"[-2, 0, -2]","[-2, -2, 2]",[],non-match,0.3545027756320971,2,0.7020566377449079,0.7447660728495212,0.4293354995487024,4th,4th,3rd,1.2777140698905634,1.322325235713222,0.24083150803970244
perc,resp,1337,1,1.2.3left.bmp,1.2.3right.bmp,,ACC033,"[-2, 0, 2]","[-2, 0, 2]",[],match,1.0,,0.06683621852347839,0.12075702695476648,0.24844186458555068,3rd,3rd,3rd,0.30110682378285597,0.2434256138838892,0.24083150803970244
perc,resp,1378,0,2.3.1left.bmp,2.3.1right.bmp,,ACC033,"[0, 2, -2]","[0, 2, -2]",[],match,1.0,,-0.12578387906107968,0.5239852762501728,0.2050327692596703,2nd,3rd,3rd,-0.3380964783325295,0.2434256138838892,0.24083150803970244
perc,resp,1409,1,2.1.3left.bmp,2.1.3right.bmp,,ACC033,"[0, -2, 2]","[0, -2, 2]",[],match,1.0,,0.8628867776132407,-0.3102093534536323,0.2839959665532989,4th,2nd,3rd,1.2777140698905634,-0.36905985399775637,0.24083150803970244
perc,resp,1442,1,3.1.1left.bmp,3.1.1right.bmp,,ACC033,"[2, -2, -2]","[2, -2, -2]",[],match,1.0,,-0.42098742575088854,0.6492210864903873,0.4801260138268869,2nd,4th,3rd,-0.3380964783325295,1.322325235713222,0.24083150803970244
perc,resp,1705,1,2.1.1left.bmp,2.1.1right.bmp,,ACC033,"[0, -2, -2]","[0, -2, -2]",[],match,1.0,,-1.1067971062219366,-1.2273617314061822,0.462308076871985,1st,1st,3rd,-1.2362963738146713,-1.1931112071598857,0.24083150803970244
perc,resp,824,1,1.3.1left.bmp,3.2.3right.bmp,,ACC033,"[-2, 2, -2]","[2, 0, 2]",[],non-match,0.1339745962155613,1,1.2307769666725554,2.475530399000029,0.46318928274835164,4th,4th,3rd,1.2777140698905634,1.322325235713222,0.24083150803970244
perc,resp,1535,1,2.2.3left.bmp,2.2.3right.bmp,,ACC033,"[0, 0, 2]","[0, 0, 2]",[],match,1.0,,-0.950836926747511,-0.7109409164441209,0.30247772859894734,1st,1st,3rd,-1.2362963738146713,-1.1931112071598857,0.24083150803970244
perc,resp,1294,1,1.3.2left.bmp,2.2.1right.bmp,,ACC033,"[-2, 2, 0]","[0, 0, -2]",[],non-match,0.5,3,1.0060553425984866,1.6999750123131636,0.36509885275880377,4th,4th,3rd,1.2777140698905634,1.322325235713222,0.24083150803970244
perc,resp,1035,1,3.1.2left.bmp,2.3.1right.bmp,,ACC033,"[2, -2, 0]","[0, 2, -2]",[],non-match,0.29289321881345254,1,-1.0092817770666913,-0.5895685139062713,0.41714992554893365,1st,2nd,3rd,-1.2362963738146713,-0.36905985399775637,0.24083150803970244
perc,resp,1346,1,1.3.3left.bmp,1.3.3right.bmp,,ACC033,"[-2, 2, 2]","[-2, 2, 2]",[],match,1.0,,0.3276860373313747,-0.8120342042886737,0.9172529152253959,3rd,1st,4th,0.30110682378285597,-1.1931112071598857,1.336342279535304
perc,resp,1549,1,3.1.3left.bmp,3.1.3right.bmp,,ACC033,"[2, -2, 2]","[2, -2, 2]",[],match,1.0,,-0.745488085481566,0.43704422346637023,1.12968932255089,1st,3rd,4th,-1.2362963738146713,0.2434256138838892,1.336342279535304
perc,resp,1089,1,3.3.2left.bmp,3.3.2right.bmp,,ACC033,"[2, 2, 0]","[2, 2, 0]",[],match,1.0,,1.8045505809823934,0.2305099952394083,1.1014508422404214,4th,3rd,4th,1.2777140698905634,0.2434256138838892,1.336342279535304
perc,resp,1187,0,2.2.2left.bmp,3.2.2right.bmp,,ACC033,"[0, 0, 0]","[2, 0, 0]",[],non-match,0.7113248654051871,4,0.69517154199484,0.9304254855002566,1.1907425560395528,4th,4th,4th,1.2777140698905634,1.322325235713222,1.336342279535304
perc,resp,1178,0,1.1.3left.bmp,1.1.2right.bmp,,ACC033,"[-2, -2, 2]","[-2, -2, 0]",[],non-match,0.7113248654051871,4,-0.7490350800152998,0.27393524284755083,1.2857835307936145,1st,3rd,4th,-1.2362963738146713,0.2434256138838892,1.336342279535304
perc,resp,935,1,3.3.1left.bmp,1.3.1right.bmp,,ACC033,"[2, 2, -2]","[-2, 2, -2]",[],non-match,0.42264973081037416,2,3.16957155724448,1.6867425741434587,1.3190627999489248,4th,4th,4th,1.2777140698905634,1.322325235713222,1.336342279535304
perc,resp,962,1,2.2.1left.bmp,1.2.3right.bmp,,ACC033,"[0, 0, -2]","[-2, 0, 2]",[],non-match,0.3545027756320971,2,0.4652032386913173,-1.8939751886887286,1.4223290939959172,3rd,1st,4th,0.30110682378285597,-1.1931112071598857,1.336342279535304
perc,resp,1383,1,1.1.1left.bmp,1.1.1right.bmp,,ACC033,"[-2, -2, -2]","[-2, -2, -2]",[],match,1.0,,-0.5346254278323734,-0.618046427091924,1.444885606044688,2nd,2nd,4th,-0.3380964783325295,-0.36905985399775637,1.336342279535304
perc,resp,710,1,2.3.3left.bmp,1.2.2right.bmp,,ACC033,"[0, 2, 2]","[-2, 0, 0]",[],non-match,0.5,3,1.299876416992005,-0.01738567845527875,1.3705758223025069,4th,3rd,4th,1.2777140698905634,0.2434256138838892,1.336342279535304
perc,resp,1695,1,3.3.3left.bmp,2.2.3right.bmp,,ACC033,"[2, 2, 2]","[0, 0, 2]",[],non-match,0.5917517095361369,3,0.2854237952264654,0.35855863687440326,1.2614757218117254,3rd,3rd,4th,0.30110682378285597,0.2434256138838892,1.336342279535304
perc,resp,1646,1,1.1.2left.bmp,1.1.2right.bmp,,ACC033,"[-2, -2, 0]","[-2, -2, 0]",[],match,1.0,,3.9622944698444313,1.4026464826880012,1.2426999327908057,4th,4th,4th,1.2777140698905634,1.322325235713222,1.336342279535304
perc,resp,1721,1,3.2.2left.bmp,3.2.2right.bmp,,ACC033,"[2, 0, 0]","[2, 0, 0]",[],match,1.0,,0.06657351994897061,-0.044321520466234623,1.6904810987232364,3rd,3rd,4th,0.30110682378285597,0.2434256138838892,1.336342279535304
perc,resp,1550,1,1.2.2left.bmp,1.2.2right.bmp,,ACC033,"[-2, 0, 0]","[-2, 0, 0]",[],match,1.0,,0.21821983675467654,-0.7143438340923536,1.6309622120628162,3rd,1st,4th,0.30110682378285597,-1.1931112071598857,1.336342279535304
perc,resp,1472,1,2.1.2left.bmp,2.1.2right.bmp,,ACC033,"[0, -2, 0]","[0, -2, 0]",[],match,1.0,,-0.9476341167200627,0.2974742415610917,1.7625382380427874,1st,3rd,4th,-1.2362963738146713,0.2434256138838892,1.336342279535304
perc,resp,899,1,2.3.2left.bmp,1.1.1right.bmp,,ACC033,"[0, 2, 0]","[-2, -2, -2]",[],non-match,0.29289321881345254,1,1.2465188074741318,0.8747936565874626,1.6842466256109534,4th,4th,4th,1.2777140698905634,1.322325235713222,1.336342279535304
perc,resp,1308,1,3.2.3left.bmp,3.2.3right.bmp,,ACC033,"[2, 0, 2]","[2, 0, 2]",[],match,1.0,,1.054140759723928,0.054772062450928125,1.6900133254534506,4th,3rd,4th,1.2777140698905634,0.2434256138838892,1.336342279535304
perc,resp,1059,1,3.3.3left.bmp,3.3.3right.bmp,,ACC033,"[2, 2, 2]","[2, 2, 2]",[],match,1.0,,-0.09092536480576555,1.235621429895961,1.8080537841689077,2nd,4th,4th,-0.3380964783325295,1.322325235713222,1.336342279535304
perc,resp,694,1,3.1.2left.bmp,1.3.2right.bmp,,ACC033,"[2, -2, 0]","[-2, 2, 0]",[],non-match,0.18350341907227385,1,1.6487856206736544,1.0220575649806396,1.8512658869556062,4th,4th,4th,1.2777140698905634,1.322325235713222,1.336342279535304
perc,resp,1364,1,3.1.1left.bmp,2.3.2right.bmp,,ACC033,"[2, -2, -2]","[0, 2, 0]",[],non-match,0.29289321881345254,1,0.6148455938050421,0.09249953884690602,1.9023755619309601,4th,3rd,4th,1.2777140698905634,0.2434256138838892,1.336342279535304
perc,resp,781,1,1.2.3left.bmp,2.2.1right.bmp,,ACC033,"[-2, 0, 2]","[0, 0, -2]",[],non-match,0.3545027756320971,2,0.9735352615496398,1.479198797854382,1.9247508476933175,4th,4th,4th,1.2777140698905634,1.322325235713222,1.336342279535304
perc,resp,1180,1,2.2.3left.bmp,1.1.3right.bmp,,ACC033,"[0, 0, 2]","[-2, -2, 2]",[],non-match,0.5917517095361369,3,0.5677243784861294,-0.40463742797677904,1.9484417704554244,3rd,2nd,4th,0.30110682378285597,-0.36905985399775637,1.336342279535304
perc,resp,1653,0,2.1.3left.bmp,2.1.3right.bmp,,ACC033,"[0, -2, 2]","[0, -2, 2]",[],match,1.0,,-1.1023896217266687,-0.40622367008216964,2.3949851119321495,1st,2nd,4th,-1.2362963738146713,-0.36905985399775637,1.336342279535304
perc,resp,1947,1,2.2.2left.bmp,3.3.2right.bmp,,ACC033,"[0, 0, 0]","[2, 2, 0]",[],non-match,0.5917517095361369,3,-0.2411720251197905,-0.20166508300820654,2.4482533838982636,2nd,2nd,4th,-0.3380964783325295,-0.36905985399775637,1.336342279535304
perc,resp,1348,1,3.2.2left.bmp,3.2.2right.bmp,,ACC033,"[2, 0, 0]","[2, 0, 0]",[],match,1.0,,-0.5768392919403965,-0.5777410595150297,2.5228443332935706,2nd,2nd,4th,-0.3380964783325295,-0.36905985399775637,1.336342279535304
perc,resp,1522,0,1.1.1left.bmp,2.1.2right.bmp,,ACC033,"[-2, -2, -2]","[0, -2, 0]",[],non-match,0.5917517095361369,3,-0.8433371961033992,0.5834660429477523,2.5936806276610174,1st,3rd,4th,-1.2362963738146713,0.2434256138838892,1.336342279535304
perc,resp,1565,1,1.2.2left.bmp,1.2.2right.bmp,,ACC033,"[-2, 0, 0]","[-2, 0, 0]",[],match,1.0,,-0.24600559164571972,-0.4113400219185983,2.480934684214555,2nd,2nd,4th,-0.3380964783325295,-0.36905985399775637,1.336342279535304
perc,resp,1832,0,3.2.3left.bmp,3.3.3right.bmp,,ACC033,"[2, 0, 2]","[2, 2, 2]",[],non-match,0.7113248654051871,4,-0.5265587219469628,-0.5859776079121537,2.7689823169408365,2nd,2nd,4th,-0.3380964783325295,-0.36905985399775637,1.336342279535304
perc,resp,1342,1,2.3.2left.bmp,2.3.2right.bmp,,ACC033,"[0, 2, 0]","[0, 2, 0]",[],match,1.0,,-0.9621120091564205,-0.31589715398821466,2.426588626288839,1st,2nd,4th,-1.2362963738146713,-0.36905985399775637,1.336342279535304
perc,resp,1021,1,3.3.1left.bmp,2.2.2right.bmp,,ACC033,"[2, 2, -2]","[0, 0, 0]",[],non-match,0.5,3,0.41190147025627094,2.060646751677098,2.1576804766306643,3rd,4th,4th,0.30110682378285597,1.322325235713222,1.336342279535304
perc,resp,1434,1,2.1.1left.bmp,2.1.1right.bmp,,ACC033,"[0, -2, -2]","[0, -2, -2]",[],match,1.0,,-1.6951214233934508,0.18602504590219004,2.1335229207713766,1st,3rd,4th,-1.2362963738146713,0.2434256138838892,1.336342279535304
