mode,type,rt,acc,item_1,item_2,item_cue,subj_idx,item_1_number,item_2_number,item_cue_number,trial_type,similarity,similarity_bin,ams,pams,slps,ams_quantile,pams_quantile,slps_quantile,ams_bin,pam_bin,slp_bin
perc,resp,0,0,3.2.2left.bmp,3.2.2right.bmp,,ACC025,"[2, 0, 0]","[2, 0, 0]",[],match,1.0,,0.5175900327555797,0.7581620968135352,2.437008173668691,3rd,4th,4th,0.3442932618033167,1.1288606451332104,1.2209120438909258
perc,resp,1190,0,2.3.1left.bmp,3.3.1right.bmp,,ACC025,"[0, 2, -2]","[2, 2, -2]",[],non-match,0.7113248654051871,4,-0.2343971650892075,-0.20542275002028085,2.2862182525882746,2nd,2nd,4th,-0.1879332299557455,-0.20970201942599778,1.2209120438909258
perc,resp,1413,1,3.1.3left.bmp,1.3.2right.bmp,,ACC025,"[2, -2, 2]","[-2, 2, 0]",[],non-match,0.1339745962155613,1,0.8327456835990689,1.531988302354562,2.2345048602348387,4th,4th,4th,1.0416813842142179,1.1288606451332104,1.2209120438909258
perc,resp,1198,1,3.2.1left.bmp,2.3.3right.bmp,,ACC025,"[2, 0, -2]","[0, 2, 2]",[],non-match,0.29289321881345254,1,1.089024764448019,0.9024628680494378,1.9842546483763916,4th,4th,4th,1.0416813842142179,1.1288606451332104,1.2209120438909258
perc,resp,1302,1,1.3.1left.bmp,1.3.1right.bmp,,ACC025,"[-2, 2, -2]","[-2, 2, -2]",[],match,1.0,,0.9362488581197705,1.252715089954804,2.142047802745617,4th,4th,4th,1.0416813842142179,1.1288606451332104,1.2209120438909258
perc,resp,2215,0,2.1.2left.bmp,3.1.2right.bmp,,ACC025,"[0, -2, 0]","[2, -2, 0]",[],non-match,0.7113248654051871,4,0.4817318992406245,1.0444107955154271,1.9148351672888604,3rd,4th,4th,0.3442932618033167,1.1288606451332104,1.2209120438909258
perc,resp,2197,1,2.2.3left.bmp,2.2.3right.bmp,,ACC025,"[0, 0, 2]","[0, 0, 2]",[],match,1.0,,0.7770523165929459,1.8490565801828331,1.9613477321574544,4th,4th,4th,1.0416813842142179,1.1288606451332104,1.2209120438909258
perc,resp,1384,1,1.2.1left.bmp,1.2.1right.bmp,,ACC025,"[-2, 0, -2]","[-2, 0, -2]",[],match,1.0,,0.8893555681895338,0.1376378162745458,1.9025066537876973,4th,3rd,4th,1.0416813842142179,0.23789167600384026,1.2209120438909258
perc,resp,1032,1,3.1.1left.bmp,3.1.1right.bmp,,ACC025,"[2, -2, -2]","[2, -2, -2]",[],match,1.0,,-0.2756260319495138,0.7509838125004227,1.8857420140181715,2nd,4th,4th,-0.1879332299557455,1.1288606451332104,1.2209120438909258
perc,resp,1135,1,2.2.1left.bmp,1.1.2right.bmp,,ACC025,"[0, 0, -2]","[-2, -2, 0]",[],non-match,0.5,3,1.1666494877576075,-0.7304345968501458,1.7844337820671625,4th,1st,4th,1.0416813842142179,-1.156588176193384,1.2209120438909258
perc,resp,1098,0,2.1.1left.bmp,1.1.1right.bmp,,ACC025,"[0, -2, -2]","[-2, -2, -2]",[],non-match,0.7113248654051871,4,0.7655806707296613,0.7990331913718656,1.8050726040090508,4th,4th,4th,1.0416813842142179,1.1288606451332104,1.2209120438909258
perc,resp,1806,1,2.3.3left.bmp,2.3.3right.bmp,,ACC025,"[0, 2, 2]","[0, 2, 2]",[],match,1.0,,0.9867526488243832,-0.014194348749213822,1.7934468231071425,4th,2nd,4th,1.0416813842142179,-0.20970201942599778,1.2209120438909258
perc,resp,1489,1,1.1.3left.bmp,1.3.1right.bmp,,ACC025,"[-2, -2, 2]","[-2, 2, -2]",[],non-match,0.18350341907227385,1,0.35968776162087285,0.7924485842548963,1.8682679551758603,3rd,4th,4th,0.3442932618033167,1.1288606451332104,1.2209120438909258
perc,resp,1123,1,1.1.2left.bmp,1.1.2right.bmp,,ACC025,"[-2, -2, 0]","[-2, -2, 0]",[],match,1.0,,1.870502088067777,0.6475025007497671,1.7398097972336455,4th,4th,4th,1.0416813842142179,1.1288606451332104,1.2209120438909258
perc,resp,952,1,3.1.2left.bmp,3.1.2right.bmp,,ACC025,"[2, -2, 0]","[2, -2, 0]",[],match,1.0,,0.30529622913505755,0.3641152596972806,1.6629581664608275,3rd,3rd,4th,0.3442932618033167,0.23789167600384026,1.2209120438909258
perc,resp,1365,0,1.2.2left.bmp,2.3.1right.bmp,,ACC025,"[-2, 0, 0]","[0, 2, -2]",[],non-match,0.5,3,-0.04348201442426591,0.9576275431725286,1.722905835691423,2nd,4th,4th,-0.1879332299557455,1.1288606451332104,1.2209120438909258
perc,resp,1208,1,3.2.3left.bmp,3.2.3right.bmp,,ACC025,"[2, 0, 2]","[2, 0, 2]",[],match,1.0,,0.9775788318805932,0.9373109920308439,1.738205264744545,4th,4th,4th,1.0416813842142179,1.1288606451332104,1.2209120438909258
perc,resp,1161,1,3.3.3left.bmp,1.3.3right.bmp,,ACC025,"[2, 2, 2]","[-2, 2, 2]",[],non-match,0.42264973081037416,2,1.457149754157572,0.0008847009311536652,1.5986534732378017,4th,3rd,4th,1.0416813842142179,0.23789167600384026,1.2209120438909258
perc,resp,910,0,1.2.3left.bmp,1.2.1right.bmp,,ACC025,"[-2, 0, 2]","[-2, 0, -2]",[],non-match,0.42264973081037416,2,1.3631600293092014,1.5805871658636705,1.5437737062631316,4th,4th,4th,1.0416813842142179,1.1288606451332104,1.2209120438909258
perc,resp,1223,1,1.1.1left.bmp,3.1.2right.bmp,,ACC025,"[-2, -2, -2]","[2, -2, 0]",[],non-match,0.3545027756320971,2,0.805330118109985,0.6033782704428683,1.639705806161937,4th,3rd,4th,1.0416813842142179,0.23789167600384026,1.2209120438909258
perc,resp,932,0,1.3.2left.bmp,1.3.2right.bmp,,ACC025,"[-2, 2, 0]","[-2, 2, 0]",[],match,1.0,,0.6273419058672983,0.4357904596793076,1.4543425606560108,4th,3rd,4th,1.0416813842142179,0.23789167600384026,1.2209120438909258
perc,resp,1353,1,3.3.1left.bmp,3.3.1right.bmp,,ACC025,"[2, 2, -2]","[2, 2, -2]",[],match,1.0,,0.6455429085598599,0.2099471227057858,1.5839833147755709,4th,3rd,4th,1.0416813842142179,0.23789167600384026,1.2209120438909258
perc,resp,1126,1,3.3.2left.bmp,3.3.2right.bmp,,ACC025,"[2, 2, 0]","[2, 2, 0]",[],match,1.0,,0.43799916533291566,0.26759171097245266,1.4738642010850136,3rd,3rd,4th,0.3442932618033167,0.23789167600384026,1.2209120438909258
perc,resp,967,1,2.3.2left.bmp,1.1.2right.bmp,,ACC025,"[0, 2, 0]","[-2, -2, 0]",[],non-match,0.3545027756320971,2,0.827656267077887,0.8005502449563731,1.5444159835627607,4th,4th,4th,1.0416813842142179,1.1288606451332104,1.2209120438909258
perc,resp,1220,1,2.1.3left.bmp,3.2.1right.bmp,,ACC025,"[0, -2, 2]","[2, 0, -2]",[],non-match,0.29289321881345254,1,0.48460030946615595,-0.06644163173106739,1.6072494464671265,3rd,2nd,4th,0.3442932618033167,-0.20970201942599778,1.2209120438909258
perc,resp,1232,1,2.2.2left.bmp,2.2.2right.bmp,,ACC025,"[0, 0, 0]","[0, 0, 0]",[],match,1.0,,0.46516333354286626,-0.42984998039765404,1.5879926222180107,3rd,2nd,4th,0.3442932618033167,-0.20970201942599778,1.2209120438909258
perc,resp,1001,0,3.3.3left.bmp,3.2.2right.bmp,,ACC025,"[2, 2, 2]","[2, 0, 0]",[],non-match,0.5917517095361369,3,0.41415541758401436,-0.2705948321130549,1.3933166510491393,3rd,2nd,4th,0.3442932618033167,-0.20970201942599778,1.2209120438909258
perc,resp,1364,1,2.3.3left.bmp,2.3.3right.bmp,,ACC025,"[0, 2, 2]","[0, 2, 2]",[],match,1.0,,1.859669940882987,0.056922042427837494,1.1913771539688438,4th,3rd,4th,1.0416813842142179,0.23789167600384026,1.2209120438909258
perc,resp,1195,1,1.3.1left.bmp,1.3.1right.bmp,,ACC025,"[-2, 2, -2]","[-2, 2, -2]",[],match,1.0,,1.2365576118420465,0.13712813016837289,1.2232815105658437,4th,3rd,4th,1.0416813842142179,0.23789167600384026,1.2209120438909258
perc,resp,1467,1,2.1.1left.bmp,1.1.3right.bmp,,ACC025,"[0, -2, -2]","[-2, -2, 2]",[],non-match,0.3545027756320971,2,0.5607960688896816,0.5701910045654692,0.9084535279657486,3rd,3rd,4th,0.3442932618033167,0.23789167600384026,1.2209120438909258
perc,resp,1406,0,1.3.2left.bmp,2.1.2right.bmp,,ACC025,"[-2, 2, 0]","[0, -2, 0]",[],non-match,0.3545027756320971,2,-0.35847793408849504,-0.11566200828190693,0.8567265088644167,2nd,2nd,4th,-0.1879332299557455,-0.20970201942599778,1.2209120438909258
perc,resp,1247,1,1.3.3left.bmp,1.3.3right.bmp,,ACC025,"[-2, 2, 2]","[-2, 2, 2]",[],match,1.0,,0.0615040947790928,0.36392839791814147,0.8189064047728063,3rd,3rd,4th,0.3442932618033167,0.23789167600384026,1.2209120438909258
perc,resp,1208,1,3.1.1left.bmp,3.1.1right.bmp,,ACC025,"[2, -2, -2]","[2, -2, -2]",[],match,1.0,,1.0807334746389123,0.8128067209725417,0.8518935871007288,4th,4th,4th,1.0416813842142179,1.1288606451332104,1.2209120438909258
perc,resp,1419,1,2.2.1left.bmp,2.2.2right.bmp,,ACC025,"[0, 0, -2]","[0, 0, 0]",[],non-match,0.7113248654051871,4,1.0694380887354016,0.17677566691591073,0.8839903473172311,4th,3rd,4th,1.0416813842142179,0.23789167600384026,1.2209120438909258
perc,resp,1280,1,2.1.3left.bmp,3.1.2right.bmp,,ACC025,"[0, -2, 2]","[2, -2, 0]",[],non-match,0.5917517095361369,3,0.16297014533852847,0.1410762159742584,0.6351453857151698,3rd,3rd,4th,0.3442932618033167,0.23789167600384026,1.2209120438909258
perc,resp,1688,0,2.2.3left.bmp,2.3.2right.bmp,,ACC025,"[0, 0, 2]","[0, 2, 0]",[],non-match,0.5917517095361369,3,-0.3079060140917317,0.3990740542913537,0.6506925576634088,2nd,3rd,4th,-0.1879332299557455,0.23789167600384026,1.2209120438909258
perc,resp,1571,1,3.3.1left.bmp,3.3.1right.bmp,,ACC025,"[2, 2, -2]","[2, 2, -2]",[],match,1.0,,0.6775788431213713,-0.2969289296261042,0.8496611182135574,4th,2nd,4th,1.0416813842142179,-0.20970201942599778,1.2209120438909258
perc,resp,2835,1,2.3.1left.bmp,2.3.1right.bmp,,ACC025,"[0, 2, -2]","[0, 2, -2]",[],match,1.0,,0.4961724795342533,1.0153250279554324,0.748774514532197,3rd,4th,4th,0.3442932618033167,1.1288606451332104,1.2209120438909258
perc,resp,1732,1,3.1.3left.bmp,3.1.3right.bmp,,ACC025,"[2, -2, 2]","[2, -2, 2]",[],match,1.0,,0.03818849455617563,0.38387151983828444,0.7300687075474805,2nd,3rd,4th,-0.1879332299557455,0.23789167600384026,1.2209120438909258
perc,resp,3388,0,2.3.2left.bmp,2.3.3right.bmp,,ACC025,"[0, 2, 0]","[0, 2, 2]",[],non-match,0.7113248654051871,4,0.656525253878014,0.9505909189255541,0.701914015131158,4th,4th,4th,1.0416813842142179,1.1288606451332104,1.2209120438909258
perc,resp,1541,0,1.1.3left.bmp,1.2.1right.bmp,,ACC025,"[-2, -2, 2]","[-2, 0, -2]",[],non-match,0.3545027756320971,2,0.5923222312124501,0.2538235845532841,0.8400380018977577,3rd,3rd,4th,0.3442932618033167,0.23789167600384026,1.2209120438909258
perc,resp,1576,1,3.2.3left.bmp,3.2.3right.bmp,,ACC025,"[2, 0, 2]","[2, 0, 2]",[],match,1.0,,0.10886169857461479,-0.09989279151617898,0.9098920812812074,3rd,2nd,4th,0.3442932618033167,-0.20970201942599778,1.2209120438909258
perc,resp,1367,0,1.2.3left.bmp,2.2.3right.bmp,,ACC025,"[-2, 0, 2]","[0, 0, 2]",[],non-match,0.7113248654051871,4,0.3133207056232259,0.1036864312069122,0.826528599723512,3rd,3rd,4th,0.3442932618033167,0.23789167600384026,1.2209120438909258
perc,resp,1218,1,2.2.2left.bmp,3.3.1right.bmp,,ACC025,"[0, 0, 0]","[2, 2, -2]",[],non-match,0.5,3,0.6661679643253966,-0.03944628571695202,0.914002545627556,4th,2nd,4th,1.0416813842142179,-0.20970201942599778,1.2209120438909258
perc,resp,1065,0,1.2.1left.bmp,2.2.1right.bmp,,ACC025,"[-2, 0, -2]","[0, 0, -2]",[],non-match,0.7113248654051871,4,0.8498587984331387,-0.20519913819726998,0.8647466565117914,4th,2nd,4th,1.0416813842142179,-0.20970201942599778,1.2209120438909258
perc,resp,1329,1,3.3.2left.bmp,2.1.1right.bmp,,ACC025,"[2, 2, 0]","[0, -2, -2]",[],non-match,0.29289321881345254,1,1.1848218740756995,0.5349767256847068,0.737173152734712,4th,3rd,4th,1.0416813842142179,0.23789167600384026,1.2209120438909258
perc,resp,1292,1,3.2.1left.bmp,3.2.1right.bmp,,ACC025,"[2, 0, -2]","[2, 0, -2]",[],match,1.0,,0.8121987628936922,-0.7213496691330836,0.6856379164193112,4th,1st,4th,1.0416813842142179,-1.156588176193384,1.2209120438909258
perc,resp,1818,1,3.2.2left.bmp,3.2.2right.bmp,,ACC025,"[2, 0, 0]","[2, 0, 0]",[],match,1.0,,2.0916285849282996,-0.26113707797345775,0.8325583513324415,4th,2nd,4th,1.0416813842142179,-0.20970201942599778,1.2209120438909258
perc,resp,1778,0,3.1.2left.bmp,3.1.3right.bmp,,ACC025,"[2, -2, 0]","[2, -2, 2]",[],non-match,0.7113248654051871,4,1.1626627943244239,0.9256285987938339,0.7505095008623069,4th,4th,4th,1.0416813842142179,1.1288606451332104,1.2209120438909258
perc,resp,1896,1,1.1.2left.bmp,1.1.2right.bmp,,ACC025,"[-2, -2, 0]","[-2, -2, 0]",[],match,1.0,,0.3784192377606464,0.13898461708143547,0.49342158524733826,3rd,3rd,3rd,0.3442932618033167,0.23789167600384026,0.3150076340633964
perc,resp,1344,1,2.1.2left.bmp,2.1.2right.bmp,,ACC025,"[0, -2, 0]","[0, -2, 0]",[],match,1.0,,-0.29308228684340343,0.934532411196623,0.3635942946322659,2nd,4th,3rd,-0.1879332299557455,1.1288606451332104,0.3150076340633964
perc,resp,1089,1,1.1.1left.bmp,3.2.1right.bmp,,ACC025,"[-2, -2, -2]","[2, 0, -2]",[],non-match,0.3545027756320971,2,1.017053933083447,-0.1842184162112135,0.0921558337955053,4th,2nd,2nd,1.0416813842142179,-0.20970201942599778,-0.19318183276530584
perc,resp,1220,1,1.2.3left.bmp,1.2.3right.bmp,,ACC025,"[-2, 0, 2]","[-2, 0, 2]",[],match,1.0,,0.9828024494054874,-0.3017590059728925,0.044520580739429,4th,2nd,2nd,1.0416813842142179,-0.20970201942599778,-0.19318183276530584
perc,resp,2801,1,1.1.3left.bmp,1.1.3right.bmp,,ACC025,"[-2, -2, 2]","[-2, -2, 2]",[],match,1.0,,1.2608649128452272,0.7537460786698578,0.0033087805087962745,4th,4th,2nd,1.0416813842142179,1.1288606451332104,-0.19318183276530584
perc,resp,1521,1,2.1.2left.bmp,2.1.2right.bmp,,ACC025,"[0, -2, 0]","[0, -2, 0]",[],match,1.0,,0.501611908840647,0.33074020698243034,-0.026412737999702902,3rd,3rd,2nd,0.3442932618033167,0.23789167600384026,-0.19318183276530584
perc,resp,1420,1,1.1.2left.bmp,3.2.2right.bmp,,ACC025,"[-2, -2, 0]","[2, 0, 0]",[],non-match,0.3545027756320971,2,1.1484168925585505,-0.3982800002753347,-0.31833198226728165,4th,2nd,2nd,1.0416813842142179,-0.20970201942599778,-0.19318183276530584
perc,resp,1289,1,1.3.3left.bmp,1.3.3right.bmp,,ACC025,"[-2, 2, 2]","[-2, 2, 2]",[],match,1.0,,0.482881534064442,0.1605220559792378,-0.29694656028834765,3rd,3rd,2nd,0.3442932618033167,0.23789167600384026,-0.19318183276530584
perc,resp,1000,1,1.2.1left.bmp,1.3.2right.bmp,,ACC025,"[-2, 0, -2]","[-2, 2, 0]",[],non-match,0.5917517095361369,3,-0.37800924022661847,0.7468502314788148,-0.24683386599566248,2nd,4th,2nd,-0.1879332299557455,1.1288606451332104,-0.19318183276530584
perc,resp,1063,1,2.1.3left.bmp,2.1.3right.bmp,,ACC025,"[0, -2, 2]","[0, -2, 2]",[],match,1.0,,1.613194086649811,-0.1732787186548812,-0.23960972160196656,4th,2nd,2nd,1.0416813842142179,-0.20970201942599778,-0.19318183276530584
perc,resp,1186,1,2.3.1left.bmp,3.3.2right.bmp,,ACC025,"[0, 2, -2]","[2, 2, 0]",[],non-match,0.5917517095361369,3,1.295717144554566,0.033610551927054075,-0.11021353821257399,4th,3rd,2nd,1.0416813842142179,0.23789167600384026,-0.19318183276530584
perc,resp,1691,0,1.1.1left.bmp,1.3.1right.bmp,,ACC025,"[-2, -2, -2]","[-2, 2, -2]",[],non-match,0.42264973081037416,2,-0.4384407364317737,-0.31298119321142537,-0.16619874312650795,2nd,2nd,2nd,-0.1879332299557455,-0.20970201942599778,-0.19318183276530584
perc,resp,1051,1,2.3.3left.bmp,2.3.3right.bmp,,ACC025,"[0, 2, 2]","[0, 2, 2]",[],match,1.0,,-1.5717443349970872,-0.10970673515422028,-0.2816703796718288,1st,2nd,2nd,-1.1954781368511729,-0.20970201942599778,-0.19318183276530584
perc,resp,1533,1,3.1.2left.bmp,3.1.2right.bmp,,ACC025,"[2, -2, 0]","[2, -2, 0]",[],match,1.0,,-0.6740538681441416,-0.24653856455039086,-0.4075607214646656,1st,2nd,2nd,-1.1954781368511729,-0.20970201942599778,-0.19318183276530584
perc,resp,1355,1,2.2.3left.bmp,1.1.3right.bmp,,ACC025,"[0, 0, 2]","[-2, -2, 2]",[],non-match,0.5917517095361369,3,1.0697166219727432,-0.23600662849342835,-0.2831250259993454,4th,2nd,2nd,1.0416813842142179,-0.20970201942599778,-0.19318183276530584
perc,resp,1175,1,3.1.1left.bmp,3.1.1right.bmp,,ACC025,"[2, -2, -2]","[2, -2, -2]",[],match,1.0,,0.04664292674208053,-0.7375126463646796,0.0121003801800054,3rd,1st,2nd,0.3442932618033167,-1.156588176193384,-0.19318183276530584
perc,resp,1065,1,1.2.1left.bmp,1.2.1right.bmp,,ACC025,"[-2, 0, -2]","[-2, 0, -2]",[],match,1.0,,0.8845954488758232,-0.5686554024581613,0.09511288298830267,4th,1st,2nd,1.0416813842142179,-1.156588176193384,-0.19318183276530584
perc,resp,1344,1,1.3.2left.bmp,1.1.1right.bmp,,ACC025,"[-2, 2, 0]","[-2, -2, -2]",[],non-match,0.3545027756320971,2,-1.9421004645541988,-1.251583489518947,0.1594160338141768,1st,1st,3rd,-1.1954781368511729,-1.156588176193384,0.3150076340633964
perc,resp,774,1,3.2.1left.bmp,3.2.1right.bmp,,ACC025,"[2, 0, -2]","[2, 0, -2]",[],match,1.0,,-3.943398117267185,-4.910236193837811,0.13867473601701505,1st,1st,3rd,-1.1954781368511729,-1.156588176193384,0.3150076340633964
perc,resp,1089,1,3.1.3left.bmp,3.1.3right.bmp,,ACC025,"[2, -2, 2]","[2, -2, 2]",[],match,1.0,,-0.09246608361440538,-1.8576914142822487,0.29203129943183315,2nd,1st,3rd,-0.1879332299557455,-1.156588176193384,0.3150076340633964
perc,resp,977,0,2.1.3left.bmp,2.1.3right.bmp,,ACC025,"[0, -2, 2]","[0, -2, 2]",[],match,1.0,,-0.3451509901550536,-0.9248619509443283,0.33598210921327004,2nd,1st,3rd,-0.1879332299557455,-1.156588176193384,0.3150076340633964
perc,resp,1054,1,1.1.3left.bmp,1.1.3right.bmp,,ACC025,"[-2, -2, 2]","[-2, -2, 2]",[],match,1.0,,0.47271114474062115,-0.9554250379434988,0.13957587884280157,3rd,1st,3rd,0.3442932618033167,-1.156588176193384,0.3150076340633964
perc,resp,1641,0,3.2.3left.bmp,3.2.2right.bmp,,ACC025,"[2, 0, 2]","[2, 0, 0]",[],non-match,0.7113248654051871,4,0.5741724512527462,0.6390136190482699,0.293920354310651,3rd,4th,3rd,0.3442932618033167,1.1288606451332104,0.3150076340633964
perc,resp,1279,0,2.3.2left.bmp,3.2.1right.bmp,,ACC025,"[0, 2, 0]","[2, 0, -2]",[],non-match,0.5,3,-0.6983689099183774,-0.7090005279627597,0.20082137504397868,1st,1st,3rd,-1.1954781368511729,-1.156588176193384,0.3150076340633964
perc,resp,1222,1,1.3.3left.bmp,1.3.3right.bmp,,ACC025,"[-2, 2, 2]","[-2, 2, 2]",[],match,1.0,,0.39917523464799143,1.2846900248654771,0.17403088382982904,3rd,4th,3rd,0.3442932618033167,1.1288606451332104,0.3150076340633964
perc,resp,1209,1,1.1.2left.bmp,1.1.2right.bmp,,ACC025,"[-2, -2, 0]","[-2, -2, 0]",[],match,1.0,,-0.472540529470592,0.043583563546751955,0.23704755404170763,1st,3rd,3rd,-1.1954781368511729,0.23789167600384026,0.3150076340633964
perc,resp,1124,0,1.2.2left.bmp,2.2.2right.bmp,,ACC025,"[-2, 0, 0]","[0, 0, 0]",[],non-match,0.7113248654051871,4,0.1501162762389557,0.09778451712461894,0.06305735390595395,3rd,3rd,2nd,0.3442932618033167,0.23789167600384026,-0.19318183276530584
perc,resp,1741,0,2.1.2left.bmp,3.1.2right.bmp,,ACC025,"[0, -2, 0]","[2, -2, 0]",[],non-match,0.7113248654051871,4,-0.6230529999184663,0.833962257955621,0.16087102968560324,1st,4th,3rd,-1.1954781368511729,1.1288606451332104,0.3150076340633964
perc,resp,1042,0,3.2.2left.bmp,2.1.3right.bmp,,ACC025,"[2, 0, 0]","[0, -2, 2]",[],non-match,0.5,3,-0.08522779190404635,0.907443087667572,0.1623292476571499,2nd,4th,3rd,-0.1879332299557455,1.1288606451332104,0.3150076340633964
perc,resp,2025,1,3.3.1left.bmp,3.1.3right.bmp,,ACC025,"[2, 2, -2]","[2, -2, 2]",[],non-match,0.18350341907227385,1,-1.0096285391726045,0.8093037143593175,0.12487500272776002,1st,4th,3rd,-1.1954781368511729,1.1288606451332104,0.3150076340633964
perc,resp,1286,1,2.1.1left.bmp,2.1.1right.bmp,,ACC025,"[0, -2, -2]","[0, -2, -2]",[],match,1.0,,0.1335429985064502,-0.1183373505060395,0.3480785198065491,3rd,2nd,3rd,0.3442932618033167,-0.20970201942599778,0.3150076340633964
perc,resp,1783,1,3.3.3left.bmp,3.1.1right.bmp,,ACC025,"[2, 2, 2]","[2, -2, -2]",[],non-match,0.18350341907227385,1,0.6054726019659554,0.7286387346235902,0.6341555520012377,3rd,4th,4th,0.3442932618033167,1.1288606451332104,1.2209120438909258
perc,resp,1689,1,2.2.1left.bmp,2.2.1right.bmp,,ACC025,"[0, 0, -2]","[0, 0, -2]",[],match,1.0,,-0.07709918425451318,-0.5301780048813544,0.771608600315086,2nd,2nd,4th,-0.1879332299557455,-0.20970201942599778,1.2209120438909258
perc,resp,1524,1,1.3.1left.bmp,1.3.1right.bmp,,ACC025,"[-2, 2, -2]","[-2, 2, -2]",[],match,1.0,,-0.016497417282172383,-1.0678324765007274,0.6725391292545583,2nd,1st,4th,-0.1879332299557455,-1.156588176193384,1.2209120438909258
perc,resp,1868,1,2.2.2left.bmp,2.3.1right.bmp,,ACC025,"[0, 0, 0]","[0, 2, -2]",[],non-match,0.5917517095361369,3,0.8681570643301659,1.0978445603913864,0.506835428220507,4th,4th,3rd,1.0416813842142179,1.1288606451332104,0.3150076340633964
perc,resp,1233,1,3.3.2left.bmp,2.1.3right.bmp,,ACC025,"[2, 2, 0]","[0, -2, 2]",[],non-match,0.29289321881345254,1,-0.4848568120193467,0.8086968550822193,0.555028108601176,1st,4th,3rd,-1.1954781368511729,1.1288606451332104,0.3150076340633964
perc,resp,1536,1,2.2.3left.bmp,1.1.2right.bmp,,ACC025,"[0, 0, 2]","[-2, -2, 0]",[],non-match,0.5,3,0.14083086118215343,-1.0367675387969721,0.7288279620966247,3rd,1st,4th,0.3442932618033167,-1.156588176193384,1.2209120438909258
perc,resp,1461,1,1.1.1left.bmp,2.3.3right.bmp,,ACC025,"[-2, -2, -2]","[0, 2, 2]",[],non-match,0.1339745962155613,1,-0.8780706648255102,-0.6396299215500247,0.6490081185753043,1st,1st,4th,-1.1954781368511729,-1.156588176193384,1.2209120438909258
perc,resp,1544,1,3.1.3left.bmp,2.2.1right.bmp,,ACC025,"[2, -2, 2]","[0, 0, -2]",[],non-match,0.29289321881345254,1,-0.6521969416243365,-0.8997115483244177,0.2895610170988995,1st,1st,3rd,-1.1954781368511729,-1.156588176193384,0.3150076340633964
perc,resp,1093,1,2.2.2left.bmp,1.2.1right.bmp,,ACC025,"[0, 0, 0]","[-2, 0, -2]",[],non-match,0.5917517095361369,3,0.04340637243129864,1.9125696542882253,0.1474718558576273,2nd,4th,3rd,-0.1879332299557455,1.1288606451332104,0.3150076340633964
perc,resp,904,0,2.1.1left.bmp,2.1.1right.bmp,,ACC025,"[0, -2, -2]","[0, -2, -2]",[],match,1.0,,-0.1026264357106798,0.1600276964073802,0.27047737691454166,2nd,3rd,3rd,-0.1879332299557455,0.23789167600384026,0.3150076340633964
perc,resp,1641,1,1.2.3left.bmp,2.1.3right.bmp,,ACC025,"[-2, 0, 2]","[0, -2, 2]",[],non-match,0.5917517095361369,3,0.13808527906262527,2.0646727878133837,0.24460566299884315,3rd,4th,3rd,0.3442932618033167,1.1288606451332104,0.3150076340633964
perc,resp,1972,1,2.2.1left.bmp,3.1.3right.bmp,,ACC025,"[0, 0, -2]","[2, -2, 2]",[],non-match,0.29289321881345254,1,-1.4759462354657917,0.6174698098625424,0.10883162893141109,1st,4th,2nd,-1.1954781368511729,1.1288606451332104,-0.19318183276530584
perc,resp,1290,1,1.1.3left.bmp,2.2.3right.bmp,,ACC025,"[-2, -2, 2]","[0, 0, 2]",[],non-match,0.5917517095361369,3,0.17595345643530516,0.16987468985604312,-0.09536996035263469,3rd,3rd,2nd,0.3442932618033167,0.23789167600384026,-0.19318183276530584
perc,resp,1573,1,3.3.1left.bmp,3.1.1right.bmp,,ACC025,"[2, 2, -2]","[2, -2, -2]",[],non-match,0.42264973081037416,2,0.6569006824879141,1.9533654827383968,0.10275295290016319,4th,4th,2nd,1.0416813842142179,1.1288606451332104,-0.19318183276530584
perc,resp,1602,1,2.1.2left.bmp,2.1.2right.bmp,,ACC025,"[0, -2, 0]","[0, -2, 0]",[],match,1.0,,0.045977681249728425,0.5741815799815754,0.0410677618369145,3rd,3rd,2nd,0.3442932618033167,0.23789167600384026,-0.19318183276530584
perc,resp,1411,0,2.3.2left.bmp,2.3.2right.bmp,,ACC025,"[0, 2, 0]","[0, 2, 0]",[],match,1.0,,0.18758811900106143,0.0899393078162495,0.04611365145446275,3rd,3rd,2nd,0.3442932618033167,0.23789167600384026,-0.19318183276530584
perc,resp,1587,1,1.3.3left.bmp,1.3.3right.bmp,,ACC025,"[-2, 2, 2]","[-2, 2, 2]",[],match,1.0,,-0.19332029878837828,-0.49664230409589716,-0.1208977387439109,2nd,2nd,2nd,-0.1879332299557455,-0.20970201942599778,-0.19318183276530584
perc,resp,1974,1,3.2.3left.bmp,3.2.3right.bmp,,ACC025,"[2, 0, 2]","[2, 0, 2]",[],match,1.0,,-0.5584621912442039,-0.03455905548328352,0.17883272623793722,1st,2nd,3rd,-1.1954781368511729,-0.20970201942599778,0.3150076340633964
perc,resp,1463,1,3.2.2left.bmp,3.3.3right.bmp,,ACC025,"[2, 0, 0]","[2, 2, 2]",[],non-match,0.5917517095361369,3,-0.8623187907144642,-0.06835278118078142,0.2125588872697604,1st,2nd,3rd,-1.1954781368511729,-0.20970201942599778,0.3150076340633964
perc,resp,1129,0,3.1.1left.bmp,1.2.3right.bmp,,ACC025,"[2, -2, -2]","[-2, 0, 2]",[],non-match,0.1339745962155613,1,0.6480255969523224,1.0852711678069529,0.11649016117120305,4th,4th,2nd,1.0416813842142179,1.1288606451332104,-0.19318183276530584
perc,resp,2807,1,2.3.3left.bmp,2.3.3right.bmp,,ACC025,"[0, 2, 2]","[0, 2, 2]",[],match,1.0,,-0.20747917352634535,-0.01970384889050499,-0.14104096214102485,2nd,2nd,2nd,-0.1879332299557455,-0.20970201942599778,-0.19318183276530584
perc,resp,1542,0,1.2.2left.bmp,1.1.3right.bmp,,ACC025,"[-2, 0, 0]","[-2, -2, 2]",[],non-match,0.5917517095361369,3,0.6384588423285464,0.3266136900424817,-0.2053488522596359,4th,3rd,2nd,1.0416813842142179,0.23789167600384026,-0.19318183276530584
perc,resp,1254,1,3.3.3left.bmp,2.1.1right.bmp,,ACC025,"[2, 2, 2]","[0, -2, -2]",[],non-match,0.1339745962155613,1,-0.021632094644732074,-0.5711169913614088,-0.1490573178120092,2nd,1st,2nd,-0.1879332299557455,-1.156588176193384,-0.19318183276530584
perc,resp,1225,1,1.2.1left.bmp,3.2.3right.bmp,,ACC025,"[-2, 0, -2]","[2, 0, 2]",[],non-match,0.18350341907227385,1,-0.3321444668862549,-0.5547825455706556,-0.07477977582105663,2nd,1st,2nd,-0.1879332299557455,-1.156588176193384,-0.19318183276530584
perc,resp,1705,1,1.3.2left.bmp,1.3.2right.bmp,,ACC025,"[-2, 2, 0]","[-2, 2, 0]",[],match,1.0,,0.020880619725387548,0.26500074878326296,-0.10481942045239452,2nd,3rd,2nd,-0.1879332299557455,0.23789167600384026,-0.19318183276530584
perc,resp,2879,1,3.2.1left.bmp,3.2.1right.bmp,,ACC025,"[2, 0, -2]","[2, 0, -2]",[],match,1.0,,0.31004230340172495,0.895060467336053,0.09557306925171048,3rd,4th,2nd,0.3442932618033167,1.1288606451332104,-0.19318183276530584
perc,resp,1231,1,1.1.2left.bmp,2.1.2right.bmp,,ACC025,"[-2, -2, 0]","[0, -2, 0]",[],non-match,0.7113248654051871,4,-0.6307105619447008,1.0957348387652581,0.2068390821333531,1st,4th,3rd,-1.1954781368511729,1.1288606451332104,0.3150076340633964
perc,resp,1644,1,3.3.2left.bmp,1.3.3right.bmp,,ACC025,"[2, 2, 0]","[-2, 2, 2]",[],non-match,0.3545027756320971,2,-1.1507849154726648,1.3978129250713,0.4125047744381792,1st,4th,3rd,-1.1954781368511729,1.1288606451332104,0.3150076340633964
perc,resp,1434,0,2.3.1left.bmp,2.3.1right.bmp,,ACC025,"[0, 2, -2]","[0, 2, -2]",[],match,1.0,,-0.0038097154067360055,-0.04063248378634825,0.32554895795961963,2nd,2nd,3rd,-0.1879332299557455,-0.20970201942599778,0.3150076340633964
perc,resp,2094,1,1.3.1left.bmp,1.3.1right.bmp,,ACC025,"[-2, 2, -2]","[-2, 2, -2]",[],match,1.0,,0.15881409785228565,0.2774155043791175,0.3229119871810758,3rd,3rd,3rd,0.3442932618033167,0.23789167600384026,0.3150076340633964
perc,resp,1581,0,2.1.3left.bmp,2.1.3right.bmp,,ACC025,"[0, -2, 2]","[0, -2, 2]",[],match,1.0,,0.3175270594619937,0.9543622555215817,0.09560429239568206,3rd,4th,2nd,0.3442932618033167,1.1288606451332104,-0.19318183276530584
perc,resp,1269,1,3.1.2left.bmp,1.2.3right.bmp,,ACC025,"[2, -2, 0]","[-2, 0, 2]",[],non-match,0.29289321881345254,1,0.13458734511864934,-0.4643526056113418,-0.0062207594011768124,3rd,2nd,2nd,0.3442932618033167,-0.20970201942599778,-0.19318183276530584
perc,resp,1790,1,3.3.1left.bmp,3.2.2right.bmp,,ACC025,"[2, 2, -2]","[2, 0, 0]",[],non-match,0.5917517095361369,3,0.8133127297731696,0.6515660296282506,0.036801446849519436,4th,4th,2nd,1.0416813842142179,1.1288606451332104,-0.19318183276530584
perc,resp,2312,0,2.3.3left.bmp,2.3.3right.bmp,,ACC025,"[0, 2, 2]","[0, 2, 2]",[],match,1.0,,1.3531633329646204,3.4329503371612304,0.18748477338310257,4th,4th,3rd,1.0416813842142179,1.1288606451332104,0.3150076340633964
perc,resp,1300,0,2.2.3left.bmp,2.2.3right.bmp,,ACC025,"[0, 0, 2]","[0, 0, 2]",[],match,1.0,,-0.2924341424213414,0.3953459851954918,-0.02558983710362708,2nd,3rd,2nd,-0.1879332299557455,0.23789167600384026,-0.19318183276530584
perc,resp,1967,1,2.2.2left.bmp,1.2.2right.bmp,,ACC025,"[0, 0, 0]","[-2, 0, 0]",[],non-match,0.7113248654051871,4,0.5731180696289637,-0.00824197694078039,-0.2538488747803431,3rd,3rd,2nd,0.3442932618033167,0.23789167600384026,-0.19318183276530584
perc,resp,1424,1,1.2.3left.bmp,1.2.3right.bmp,,ACC025,"[-2, 0, 2]","[-2, 0, 2]",[],match,1.0,,0.5888384435379769,-0.7521547406776953,-0.4808876706652027,3rd,1st,2nd,0.3442932618033167,-1.156588176193384,-0.19318183276530584
perc,resp,954,1,3.1.3left.bmp,3.3.1right.bmp,,ACC025,"[2, -2, 2]","[2, 2, -2]",[],non-match,0.18350341907227385,1,1.1761016735464984,0.6414313009962735,-0.7183901089720124,4th,4th,1st,1.0416813842142179,1.1288606451332104,-1.3407407009054415
perc,resp,1554,1,3.1.1left.bmp,3.1.1right.bmp,,ACC025,"[2, -2, -2]","[2, -2, -2]",[],match,1.0,,-0.05578781519356228,-0.37009418042513387,-0.725834441054613,2nd,2nd,1st,-0.1879332299557455,-0.20970201942599778,-1.3407407009054415
perc,resp,988,1,3.2.1left.bmp,2.3.2right.bmp,,ACC025,"[2, 0, -2]","[0, 2, 0]",[],non-match,0.5,3,-0.4710743696375493,0.2715982436444504,-0.6364710335119964,1st,3rd,1st,-1.1954781368511729,0.23789167600384026,-1.3407407009054415
perc,resp,1735,1,3.3.3left.bmp,3.3.3right.bmp,,ACC025,"[2, 2, 2]","[2, 2, 2]",[],match,1.0,,-0.31697097333290625,-1.3632848641790751,-0.6858134934157801,2nd,1st,1st,-0.1879332299557455,-1.156588176193384,-1.3407407009054415
perc,resp,1387,1,1.1.2left.bmp,1.1.2right.bmp,,ACC025,"[-2, -2, 0]","[-2, -2, 0]",[],match,1.0,,-0.9957502988101832,-0.24437495564954886,-0.671765002115137,1st,2nd,1st,-1.1954781368511729,-0.20970201942599778,-1.3407407009054415
perc,resp,2508,1,2.1.3left.bmp,2.3.3right.bmp,,ACC025,"[0, -2, 2]","[0, 2, 2]",[],non-match,0.42264973081037416,2,-2.166105844275698,-1.0408678886755052,-0.5848904306634272,1st,1st,2nd,-1.1954781368511729,-1.156588176193384,-0.19318183276530584
perc,resp,3274,1,2.2.3left.bmp,3.1.3right.bmp,,ACC025,"[0, 0, 2]","[2, -2, 2]",[],non-match,0.5917517095361369,3,-3.024827903733058,-3.1418005357760403,-0.7033599040087773,1st,1st,1st,-1.1954781368511729,-1.156588176193384,-1.3407407009054415
perc,resp,1241,1,2.2.2left.bmp,2.2.2right.bmp,,ACC025,"[0, 0, 0]","[0, 0, 0]",[],match,1.0,,1.127245032874691,1.5385144626054186,-0.474666257035611,4th,4th,2nd,1.0416813842142179,1.1288606451332104,-0.19318183276530584
perc,resp,985,1,3.3.1left.bmp,1.1.2right.bmp,,ACC025,"[2, 2, -2]","[-2, -2, 0]",[],non-match,0.1339745962155613,1,0.638383868283799,-1.380459659746633,-0.560924678769529,4th,1st,2nd,1.0416813842142179,-1.156588176193384,-0.19318183276530584
perc,resp,2133,1,3.2.1left.bmp,3.2.1right.bmp,,ACC025,"[2, 0, -2]","[2, 0, -2]",[],match,1.0,,0.8812656324533773,-0.5613506488063663,-0.35833956429605524,4th,1st,2nd,1.0416813842142179,-1.156588176193384,-0.19318183276530584
perc,resp,1312,1,2.3.2left.bmp,2.1.1right.bmp,,ACC025,"[0, 2, 0]","[0, -2, -2]",[],non-match,0.3545027756320971,2,1.0248814983096923,-0.01897674254479979,-0.5671808978315138,4th,2nd,2nd,1.0416813842142179,-0.20970201942599778,-0.19318183276530584
perc,resp,2425,1,2.2.1left.bmp,2.2.1right.bmp,,ACC025,"[0, 0, -2]","[0, 0, -2]",[],match,1.0,,-0.7974088911791655,-1.3681128749126996,-0.5910630247412092,1st,1st,2nd,-1.1954781368511729,-1.156588176193384,-0.19318183276530584
perc,resp,1721,1,1.3.1left.bmp,1.2.3right.bmp,,ACC025,"[-2, 2, -2]","[-2, 0, 2]",[],non-match,0.3545027756320971,2,-0.25249540440831464,-0.18782788862659366,-0.5699120457272421,2nd,2nd,2nd,-0.1879332299557455,-0.20970201942599778,-0.19318183276530584
perc,resp,1470,1,1.3.2left.bmp,2.1.2right.bmp,,ACC025,"[-2, 2, 0]","[0, -2, 0]",[],non-match,0.3545027756320971,2,-0.7062695808739293,0.22614480966265332,-0.6593364969401885,1st,3rd,1st,-1.1954781368511729,0.23789167600384026,-1.3407407009054415
perc,resp,1168,1,1.1.3left.bmp,3.2.3right.bmp,,ACC025,"[-2, -2, 2]","[2, 0, 2]",[],non-match,0.3545027756320971,2,-1.3659205860707968,-1.0484463553170402,-0.5087616091156568,1st,1st,2nd,-1.1954781368511729,-1.156588176193384,-0.19318183276530584
perc,resp,1551,1,1.1.1left.bmp,1.1.1right.bmp,,ACC025,"[-2, -2, -2]","[-2, -2, -2]",[],match,1.0,,-0.061793869142943665,-0.16920501939097263,-0.7159723484998465,2nd,2nd,1st,-0.1879332299557455,-0.20970201942599778,-1.3407407009054415
perc,resp,3288,1,3.3.2left.bmp,3.3.2right.bmp,,ACC025,"[2, 2, 0]","[2, 2, 0]",[],match,1.0,,-1.0863273759631003,-1.3274638324554808,-0.7393040683685042,1st,1st,1st,-1.1954781368511729,-1.156588176193384,-1.3407407009054415
perc,resp,1248,1,3.1.2left.bmp,1.3.3right.bmp,,ACC025,"[2, -2, 0]","[-2, 2, 2]",[],non-match,0.1339745962155613,1,-1.5659284197406793,-0.12992825757834112,-0.611891114000278,1st,2nd,1st,-1.1954781368511729,-0.20970201942599778,-1.3407407009054415
perc,resp,2662,0,3.2.2left.bmp,3.3.3right.bmp,,ACC025,"[2, 0, 0]","[2, 2, 2]",[],non-match,0.5917517095361369,3,-0.725753591310219,-0.8768240183555001,-0.48928826459989866,1st,1st,2nd,-1.1954781368511729,-1.156588176193384,-0.19318183276530584
perc,resp,1657,0,3.2.3left.bmp,3.2.3right.bmp,,ACC025,"[2, 0, 2]","[2, 0, 2]",[],match,1.0,,-2.148658408891806,-1.9340885008365982,-0.4497572660266253,1st,1st,2nd,-1.1954781368511729,-1.156588176193384,-0.19318183276530584
perc,resp,1358,1,1.2.2left.bmp,1.2.2right.bmp,,ACC025,"[-2, 0, 0]","[-2, 0, 0]",[],match,1.0,,-0.7405246516501207,-1.0006487026828919,-0.28108446919611424,1st,1st,2nd,-1.1954781368511729,-1.156588176193384,-0.19318183276530584
perc,resp,1752,1,2.3.1left.bmp,1.2.3right.bmp,,ACC025,"[0, 2, -2]","[-2, 0, 2]",[],non-match,0.29289321881345254,1,-0.23318293327582637,-0.969152085991975,0.06507705925178504,2nd,1st,2nd,-0.1879332299557455,-1.156588176193384,-0.19318183276530584
perc,resp,1122,1,1.3.3left.bmp,3.3.2right.bmp,,ACC025,"[-2, 2, 2]","[2, 2, 0]",[],non-match,0.3545027756320971,2,-1.431759936862163,-0.848707149513671,0.3141732370100217,1st,1st,3rd,-1.1954781368511729,-1.156588176193384,0.3150076340633964
perc,resp,1433,0,3.1.1left.bmp,3.2.1right.bmp,,ACC025,"[2, -2, -2]","[2, 0, -2]",[],non-match,0.7113248654051871,4,-0.19635776027890312,-0.07187494070588704,0.2361706952339406,2nd,2nd,3rd,-0.1879332299557455,-0.20970201942599778,0.3150076340633964
perc,resp,2370,1,1.2.1left.bmp,1.2.1right.bmp,,ACC025,"[-2, 0, -2]","[-2, 0, -2]",[],match,1.0,,-0.49481204005657564,1.3356030899358966,0.16218307005893762,1st,4th,3rd,-1.1954781368511729,1.1288606451332104,0.3150076340633964
perc,resp,1376,1,3.1.3left.bmp,2.3.1right.bmp,,ACC025,"[2, -2, 2]","[0, 2, -2]",[],non-match,0.1339745962155613,1,-7.630391987065928,-6.625964383943306,0.23858236057290977,1st,1st,3rd,-1.1954781368511729,-1.156588176193384,0.3150076340633964
perc,resp,1326,1,2.1.1left.bmp,2.1.1right.bmp,,ACC025,"[0, -2, -2]","[0, -2, -2]",[],match,1.0,,0.0959924780525106,0.25257481890347383,0.4741182152210278,3rd,3rd,3rd,0.3442932618033167,0.23789167600384026,0.3150076340633964
perc,resp,1581,1,1.2.3left.bmp,1.2.3right.bmp,,ACC025,"[-2, 0, 2]","[-2, 0, 2]",[],match,1.0,,-1.2579754233003222,-1.2705978134731726,0.5770227467356219,1st,1st,4th,-1.1954781368511729,-1.156588176193384,1.2209120438909258
perc,resp,1323,1,2.3.3left.bmp,2.3.3right.bmp,,ACC025,"[0, 2, 2]","[0, 2, 2]",[],match,1.0,,-1.2754187660077783,-0.6178844706762098,0.578572855352848,1st,1st,4th,-1.1954781368511729,-1.156588176193384,1.2209120438909258
perc,resp,1720,1,1.2.1left.bmp,1.1.3right.bmp,,ACC025,"[-2, 0, -2]","[-2, -2, 2]",[],non-match,0.3545027756320971,2,-0.07521267396105517,-0.06494035932601137,0.49379621731115586,2nd,2nd,3rd,-0.1879332299557455,-0.20970201942599778,0.3150076340633964
perc,resp,1365,1,1.2.3left.bmp,1.2.3right.bmp,,ACC025,"[-2, 0, 2]","[-2, 0, 2]",[],match,1.0,,0.42651186691633275,0.0055106652636789655,0.7007363312183745,3rd,3rd,4th,0.3442932618033167,0.23789167600384026,1.2209120438909258
perc,resp,3117,1,2.3.1left.bmp,2.3.1right.bmp,,ACC025,"[0, 2, -2]","[0, 2, -2]",[],match,1.0,,-0.2896678222357132,-0.5010516241078298,0.4043140175165772,2nd,2nd,3rd,-0.1879332299557455,-0.20970201942599778,0.3150076340633964
perc,resp,1331,1,2.1.3left.bmp,2.1.3right.bmp,,ACC025,"[0, -2, 2]","[0, -2, 2]",[],match,1.0,,-0.2253373768593145,0.20917789467077985,0.35196187784969557,2nd,3rd,3rd,-0.1879332299557455,0.23789167600384026,0.3150076340633964
perc,resp,1140,1,3.1.1left.bmp,3.1.1right.bmp,,ACC025,"[2, -2, -2]","[2, -2, -2]",[],match,1.0,,-0.6254239302067311,-0.11684936267419388,0.3015099777945215,1st,2nd,3rd,-1.1954781368511729,-0.20970201942599778,0.3150076340633964
perc,resp,1048,1,2.1.1left.bmp,2.1.1right.bmp,,ACC025,"[0, -2, -2]","[0, -2, -2]",[],match,1.0,,0.8685243843445806,0.3072349167651634,0.4940025041838554,4th,3rd,3rd,1.0416813842142179,0.23789167600384026,0.3150076340633964
perc,resp,946,1,1.3.1left.bmp,3.2.3right.bmp,,ACC025,"[-2, 2, -2]","[2, 0, 2]",[],non-match,0.1339745962155613,1,-0.16687837357484386,-0.12062023674106474,0.4573998389037877,2nd,2nd,3rd,-0.1879332299557455,-0.20970201942599778,0.3150076340633964
perc,resp,1849,1,2.2.3left.bmp,2.2.3right.bmp,,ACC025,"[0, 0, 2]","[0, 0, 2]",[],match,1.0,,0.24553872837595994,-1.1228861971864414,0.4778019342517502,3rd,1st,3rd,0.3442932618033167,-1.156588176193384,0.3150076340633964
perc,resp,1787,1,1.3.2left.bmp,2.2.1right.bmp,,ACC025,"[-2, 2, 0]","[0, 0, -2]",[],non-match,0.5,3,-1.7473760839066637,-0.5478371420597257,0.4305429758704747,1st,1st,3rd,-1.1954781368511729,-1.156588176193384,0.3150076340633964
perc,resp,1096,1,3.1.2left.bmp,2.3.1right.bmp,,ACC025,"[2, -2, 0]","[0, 2, -2]",[],non-match,0.29289321881345254,1,-0.41719930636102953,0.006062378450916019,0.5414241721656252,2nd,3rd,3rd,-0.1879332299557455,0.23789167600384026,0.3150076340633964
perc,resp,1027,0,1.3.3left.bmp,1.3.3right.bmp,,ACC025,"[-2, 2, 2]","[-2, 2, 2]",[],match,1.0,,-0.9295718158794282,-0.5540878136378837,0.3995381652426492,1st,1st,3rd,-1.1954781368511729,-1.156588176193384,0.3150076340633964
perc,resp,2244,0,3.1.3left.bmp,3.1.3right.bmp,,ACC025,"[2, -2, 2]","[2, -2, 2]",[],match,1.0,,-0.31839868827097323,0.12135180464487366,0.4359223058880702,2nd,3rd,3rd,-0.1879332299557455,0.23789167600384026,0.3150076340633964
perc,resp,2597,1,2.2.2left.bmp,3.2.2right.bmp,,ACC025,"[0, 0, 0]","[2, 0, 0]",[],non-match,0.7113248654051871,4,-0.18156953874557788,-0.0971203602173318,0.2569168798830364,2nd,2nd,3rd,-0.1879332299557455,-0.20970201942599778,0.3150076340633964
perc,resp,2040,1,1.1.3left.bmp,1.1.2right.bmp,,ACC025,"[-2, -2, 2]","[-2, -2, 0]",[],non-match,0.7113248654051871,4,-1.202911184913182,-0.8239896281939277,0.11774631695081954,1st,1st,2nd,-1.1954781368511729,-1.156588176193384,-0.19318183276530584
perc,resp,1405,1,3.3.1left.bmp,1.3.1right.bmp,,ACC025,"[2, 2, -2]","[-2, 2, -2]",[],non-match,0.42264973081037416,2,-0.6718926452839252,-0.09864505604494435,0.25752295202740366,1st,2nd,3rd,-1.1954781368511729,-0.20970201942599778,0.3150076340633964
perc,resp,2573,1,3.2.1left.bmp,3.2.1right.bmp,,ACC025,"[2, 0, -2]","[2, 0, -2]",[],match,1.0,,0.6555726300749768,0.8552753491885733,0.25951482016723304,4th,4th,3rd,1.0416813842142179,1.1288606451332104,0.3150076340633964
perc,resp,1605,1,2.2.1left.bmp,1.2.3right.bmp,,ACC025,"[0, 0, -2]","[-2, 0, 2]",[],non-match,0.3545027756320971,2,-0.07423352480460788,-0.33966746462888003,0.45658584998203006,2nd,2nd,3rd,-0.1879332299557455,-0.20970201942599778,0.3150076340633964
perc,resp,1891,1,1.1.1left.bmp,1.1.1right.bmp,,ACC025,"[-2, -2, -2]","[-2, -2, -2]",[],match,1.0,,-0.7671093679036287,0.7533459068534617,0.6171535140269351,1st,4th,4th,-1.1954781368511729,1.1288606451332104,1.2209120438909258
perc,resp,1639,1,2.3.3left.bmp,1.2.2right.bmp,,ACC025,"[0, 2, 2]","[-2, 0, 0]",[],non-match,0.5,3,-0.855492245871524,-0.8552353228175603,0.4591513633090602,1st,1st,3rd,-1.1954781368511729,-1.156588176193384,0.3150076340633964
perc,resp,1418,1,3.3.3left.bmp,2.2.3right.bmp,,ACC025,"[2, 2, 2]","[0, 0, 2]",[],non-match,0.5917517095361369,3,-0.38155195699535155,-0.5673150016967516,0.4031360192974264,2nd,1st,3rd,-0.1879332299557455,-1.156588176193384,0.3150076340633964
perc,resp,1764,1,1.1.2left.bmp,1.1.2right.bmp,,ACC025,"[-2, -2, 0]","[-2, -2, 0]",[],match,1.0,,-0.0981251461570792,-0.30627879358398485,0.28480875080148327,2nd,2nd,3rd,-0.1879332299557455,-0.20970201942599778,0.3150076340633964
perc,resp,1919,1,3.2.2left.bmp,3.2.2right.bmp,,ACC025,"[2, 0, 0]","[2, 0, 0]",[],match,1.0,,-0.9338882138439111,0.34184376074838907,0.6561485793892172,1st,3rd,4th,-1.1954781368511729,0.23789167600384026,1.2209120438909258
perc,resp,1571,1,1.2.2left.bmp,1.2.2right.bmp,,ACC025,"[-2, 0, 0]","[-2, 0, 0]",[],match,1.0,,0.544878270841104,-1.3422097678490905,0.5976425221767725,3rd,1st,4th,0.3442932618033167,-1.156588176193384,1.2209120438909258
perc,resp,1736,0,2.1.2left.bmp,2.1.2right.bmp,,ACC025,"[0, -2, 0]","[0, -2, 0]",[],match,1.0,,0.24717180651885542,0.744057165072381,0.5893833216225604,3rd,4th,4th,0.3442932618033167,1.1288606451332104,1.2209120438909258
perc,resp,1631,1,2.3.2left.bmp,1.1.1right.bmp,,ACC025,"[0, 2, 0]","[-2, -2, -2]",[],non-match,0.29289321881345254,1,-1.0632616840336833,-1.650601729291294,0.3851905125948397,1st,1st,3rd,-1.1954781368511729,-1.156588176193384,0.3150076340633964
perc,resp,2509,0,3.2.3left.bmp,3.2.3right.bmp,,ACC025,"[2, 0, 2]","[2, 0, 2]",[],match,1.0,,-0.035792285994234584,-1.5190887723238615,0.40221825099021763,2nd,1st,3rd,-0.1879332299557455,-1.156588176193384,0.3150076340633964
perc,resp,0,0,3.3.3left.bmp,3.3.3right.bmp,,ACC025,"[2, 2, 2]","[2, 2, 2]",[],match,1.0,,-0.11307355017811702,1.514144768467214,0.3494121182711106,2nd,4th,3rd,-0.1879332299557455,1.1288606451332104,0.3150076340633964
perc,resp,2804,1,3.1.2left.bmp,1.3.2right.bmp,,ACC025,"[2, -2, 0]","[-2, 2, 0]",[],non-match,0.18350341907227385,1,-0.4942330991975039,-1.5791084320400088,0.3236557799184,1st,1st,3rd,-1.1954781368511729,-1.156588176193384,0.3150076340633964
perc,resp,1220,1,3.1.1left.bmp,2.3.2right.bmp,,ACC025,"[2, -2, -2]","[0, 2, 0]",[],non-match,0.29289321881345254,1,0.30707999904591937,0.20840347369479167,0.27654488587492937,3rd,3rd,3rd,0.3442932618033167,0.23789167600384026,0.3150076340633964
perc,resp,1663,1,1.2.3left.bmp,2.2.1right.bmp,,ACC025,"[-2, 0, 2]","[0, 0, -2]",[],non-match,0.3545027756320971,2,-1.8693005736192028,-0.39752751527018493,-0.09531150943510752,1st,2nd,2nd,-1.1954781368511729,-0.20970201942599778,-0.19318183276530584
perc,resp,1413,1,1.2.2left.bmp,1.3.3right.bmp,,ACC025,"[-2, 0, 0]","[-2, 2, 2]",[],non-match,0.5917517095361369,3,0.28808006688498206,0.4561039623333713,-0.21185630723996557,3rd,3rd,2nd,0.3442932618033167,0.23789167600384026,-0.19318183276530584
perc,resp,1729,1,2.3.1left.bmp,2.3.1right.bmp,,ACC025,"[0, 2, -2]","[0, 2, -2]",[],match,1.0,,-0.5875660671081158,-0.304582714278928,-0.40188828936844756,1st,2nd,2nd,-1.1954781368511729,-0.20970201942599778,-0.19318183276530584
perc,resp,1624,1,1.1.2left.bmp,1.1.2right.bmp,,ACC025,"[-2, -2, 0]","[-2, -2, 0]",[],match,1.0,,-0.016076916757425366,-0.18672257008738932,-0.3804495471282342,2nd,2nd,2nd,-0.1879332299557455,-0.20970201942599778,-0.19318183276530584
perc,resp,3351,1,1.2.1left.bmp,1.2.1right.bmp,,ACC025,"[-2, 0, -2]","[-2, 0, -2]",[],match,1.0,,-0.5238755555406628,-1.4095167662669774,-0.6497878277004683,1st,1st,1st,-1.1954781368511729,-1.156588176193384,-1.3407407009054415
perc,resp,1464,1,3.3.2left.bmp,3.3.2right.bmp,,ACC025,"[2, 2, 0]","[2, 2, 0]",[],match,1.0,,0.4755710486185249,2.4381885443556475,-0.7626355077264854,3rd,4th,1st,0.3442932618033167,1.1288606451332104,-1.3407407009054415
perc,resp,1568,1,1.2.3left.bmp,1.2.3right.bmp,,ACC025,"[-2, 0, 2]","[-2, 0, 2]",[],match,1.0,,-1.3392520805922106,0.2535861809517946,-0.8584521252333837,1st,3rd,1st,-1.1954781368511729,0.23789167600384026,-1.3407407009054415
perc,resp,1127,1,2.1.1left.bmp,2.1.1right.bmp,,ACC025,"[0, -2, -2]","[0, -2, -2]",[],match,1.0,,-1.082431456891314,-0.8179959178421512,-1.1243883180633314,1st,1st,1st,-1.1954781368511729,-1.156588176193384,-1.3407407009054415
perc,resp,1226,0,2.1.2left.bmp,2.1.2right.bmp,,ACC025,"[0, -2, 0]","[0, -2, 0]",[],match,1.0,,0.4422929604312992,1.4286209830168777,-1.0764611840115148,3rd,4th,1st,0.3442932618033167,1.1288606451332104,-1.3407407009054415
perc,resp,1196,0,2.2.2left.bmp,1.2.2right.bmp,,ACC025,"[0, 0, 0]","[-2, 0, 0]",[],non-match,0.7113248654051871,4,0.02148600714805725,0.12030375825284495,-1.1187296125242785,2nd,3rd,1st,-0.1879332299557455,0.23789167600384026,-1.3407407009054415
perc,resp,2305,1,2.2.1left.bmp,3.2.3right.bmp,,ACC025,"[0, 0, -2]","[2, 0, 2]",[],non-match,0.3545027756320971,2,-0.655583066545199,-1.0666655785115797,-1.2444274181177517,1st,1st,1st,-1.1954781368511729,-1.156588176193384,-1.3407407009054415
perc,resp,1145,1,3.1.1left.bmp,1.1.1right.bmp,,ACC025,"[2, -2, -2]","[-2, -2, -2]",[],non-match,0.42264973081037416,2,1.091264967941616,1.5197816533429565,-1.480082178520472,4th,4th,1st,1.0416813842142179,1.1288606451332104,-1.3407407009054415
perc,resp,1990,0,2.3.3left.bmp,2.3.3right.bmp,,ACC025,"[0, 2, 2]","[0, 2, 2]",[],match,1.0,,-0.5445878383660173,-0.21604962544258385,-1.3555455129928,1st,2nd,1st,-1.1954781368511729,-0.20970201942599778,-1.3407407009054415
perc,resp,1082,1,3.3.1left.bmp,1.2.3right.bmp,,ACC025,"[2, 2, -2]","[-2, 0, 2]",[],non-match,0.1339745962155613,1,-0.44113220476801834,-0.16408166276700795,-1.5335279411903822,2nd,2nd,1st,-0.1879332299557455,-0.20970201942599778,-1.3407407009054415
perc,resp,2389,1,1.3.3left.bmp,2.2.2right.bmp,,ACC025,"[-2, 2, 2]","[0, 0, 0]",[],non-match,0.5,3,-0.09482081427274838,-1.3408571722877143,-1.8570047085685808,2nd,1st,1st,-0.1879332299557455,-1.156588176193384,-1.3407407009054415
perc,resp,1163,1,1.3.1left.bmp,1.1.2right.bmp,,ACC025,"[-2, 2, -2]","[-2, -2, 0]",[],non-match,0.3545027756320971,2,0.1397700304545544,-0.25382769818061734,-1.924557738082356,3rd,2nd,1st,0.3442932618033167,-0.20970201942599778,-1.3407407009054415
perc,resp,1059,1,3.1.3left.bmp,1.2.2right.bmp,,ACC025,"[2, -2, 2]","[-2, 0, 0]",[],non-match,0.29289321881345254,1,0.5785144512027154,-0.04989744736398518,-1.70962418056087,3rd,2nd,1st,0.3442932618033167,-0.20970201942599778,-1.3407407009054415
perc,resp,796,0,1.1.1left.bmp,1.1.1right.bmp,,ACC025,"[-2, -2, -2]","[-2, -2, -2]",[],match,1.0,,0.6145238053372425,1.0645270715324406,-1.7823843956615424,3rd,4th,1st,0.3442932618033167,1.1288606451332104,-1.3407407009054415
perc,resp,1631,1,3.2.3left.bmp,1.3.2right.bmp,,ACC025,"[2, 0, 2]","[-2, 2, 0]",[],non-match,0.29289321881345254,1,-0.17930456160835895,-0.2862050124332048,-1.6806549250029335,2nd,2nd,1st,-0.1879332299557455,-0.20970201942599778,-1.3407407009054415
perc,resp,1067,1,3.3.3left.bmp,2.1.3right.bmp,,ACC025,"[2, 2, 2]","[0, -2, 2]",[],non-match,0.3545027756320971,2,-0.039025028448904,0.4535022989014293,-1.8365139721570924,2nd,3rd,1st,-0.1879332299557455,0.23789167600384026,-1.3407407009054415
perc,resp,924,1,1.1.3left.bmp,3.3.2right.bmp,,ACC025,"[-2, -2, 2]","[2, 2, 0]",[],non-match,0.1339745962155613,1,-0.3897458110317453,1.2168901884915357,-2.091045286933629,2nd,4th,1st,-0.1879332299557455,1.1288606451332104,-1.3407407009054415
perc,resp,1776,0,3.2.1left.bmp,3.3.1right.bmp,,ACC025,"[2, 0, -2]","[2, 2, -2]",[],non-match,0.7113248654051871,4,-0.3651657420581834,1.0073307160663187,-2.0611828597268858,2nd,4th,1st,-0.1879332299557455,1.1288606451332104,-1.3407407009054415
perc,resp,1358,0,2.3.2left.bmp,2.3.2right.bmp,,ACC025,"[0, 2, 0]","[0, 2, 0]",[],match,1.0,,0.557250987270111,0.25117899000601807,-1.9380157469964896,3rd,3rd,1st,0.3442932618033167,0.23789167600384026,-1.3407407009054415
perc,resp,1422,1,1.3.2left.bmp,1.3.2right.bmp,,ACC025,"[-2, 2, 0]","[-2, 2, 0]",[],match,1.0,,-0.5408047582443217,-0.8252386040842632,-1.849111502680688,1st,1st,1st,-1.1954781368511729,-1.156588176193384,-1.3407407009054415
perc,resp,1341,1,3.1.2left.bmp,3.1.2right.bmp,,ACC025,"[2, -2, 0]","[2, -2, 0]",[],match,1.0,,-1.2435795852685692,-0.8872435598274854,-1.7219827401767562,1st,1st,1st,-1.1954781368511729,-1.156588176193384,-1.3407407009054415
perc,resp,1206,1,3.2.2left.bmp,1.3.1right.bmp,,ACC025,"[2, 0, 0]","[-2, 2, -2]",[],non-match,0.29289321881345254,1,1.5039852969228604,-0.3815331808336817,-1.8381735467505305,4th,2nd,1st,1.0416813842142179,-0.20970201942599778,-1.3407407009054415
perc,resp,1836,0,2.1.3left.bmp,2.1.3right.bmp,,ACC025,"[0, -2, 2]","[0, -2, 2]",[],match,1.0,,-1.06599424647472,0.723299277019391,-1.744217642727353,1st,4th,1st,-1.1954781368511729,1.1288606451332104,-1.3407407009054415
perc,resp,1640,1,2.2.3left.bmp,2.2.3right.bmp,,ACC025,"[0, 0, 2]","[0, 0, 2]",[],match,1.0,,-0.07391847690024078,-0.6315873174121845,-1.624513361759352,2nd,1st,1st,-0.1879332299557455,-1.156588176193384,-1.3407407009054415
perc,resp,1664,1,3.2.2left.bmp,3.2.2right.bmp,,ACC025,"[2, 0, 0]","[2, 0, 0]",[],match,1.0,,-0.0510083147144292,1.1247513951442312,-1.4292083087678409,2nd,4th,1st,-0.1879332299557455,1.1288606451332104,-1.3407407009054415
perc,resp,1715,1,2.2.1left.bmp,2.2.1right.bmp,,ACC025,"[0, 0, -2]","[0, 0, -2]",[],match,1.0,,-1.3215304527040783,-0.12270501332883238,-1.4232844815923134,1st,2nd,1st,-1.1954781368511729,-0.20970201942599778,-1.3407407009054415
perc,resp,1193,1,3.1.1left.bmp,3.1.1right.bmp,,ACC025,"[2, -2, -2]","[2, -2, -2]",[],match,1.0,,-0.0981296952405167,-0.020150851783975077,-1.4501907679736514,2nd,2nd,1st,-0.1879332299557455,-0.20970201942599778,-1.3407407009054415
perc,resp,1021,1,1.1.3left.bmp,1.3.1right.bmp,,ACC025,"[-2, -2, 2]","[-2, 2, -2]",[],non-match,0.18350341907227385,1,1.127369331209597,-0.6261084959625877,-1.4858777168664146,4th,1st,1st,1.0416813842142179,-1.156588176193384,-1.3407407009054415
perc,resp,1218,1,3.1.3left.bmp,3.1.3right.bmp,,ACC025,"[2, -2, 2]","[2, -2, 2]",[],match,1.0,,-0.1383816769708212,0.152133101599551,-1.5589018130571777,2nd,3rd,1st,-0.1879332299557455,0.23789167600384026,-1.3407407009054415
perc,resp,1935,0,1.1.1left.bmp,2.1.2right.bmp,,ACC025,"[-2, -2, -2]","[0, -2, 0]",[],non-match,0.5917517095361369,3,0.15356896789843563,0.6303200051229598,-1.6605744942584368,3rd,4th,1st,0.3442932618033167,1.1288606451332104,-1.3407407009054415
perc,resp,1385,1,1.3.2left.bmp,1.3.2right.bmp,,ACC025,"[-2, 2, 0]","[-2, 2, 0]",[],match,1.0,,1.0695776634834044,0.9970169886508595,-1.4735509584834112,4th,4th,1st,1.0416813842142179,1.1288606451332104,-1.3407407009054415
perc,resp,1519,1,2.1.3left.bmp,2.2.1right.bmp,,ACC025,"[0, -2, 2]","[0, 0, -2]",[],non-match,0.3545027756320971,2,0.7589563378924091,-0.33222529692008107,-1.357129747749038,4th,2nd,1st,1.0416813842142179,-0.20970201942599778,-1.3407407009054415
perc,resp,1250,0,2.3.2left.bmp,3.1.2right.bmp,,ACC025,"[0, 2, 0]","[2, -2, 0]",[],non-match,0.3545027756320971,2,0.5263573112443627,0.6665099261867465,-1.5931663799690532,3rd,4th,1st,0.3442932618033167,1.1288606451332104,-1.3407407009054415
perc,resp,1034,1,1.2.3left.bmp,3.3.1right.bmp,,ACC025,"[-2, 0, 2]","[2, 2, -2]",[],non-match,0.1339745962155613,1,1.0738889962120641,1.7685514463187078,-1.5026821157307373,4th,4th,1st,1.0416813842142179,1.1288606451332104,-1.3407407009054415
perc,resp,1753,1,2.2.2left.bmp,2.2.2right.bmp,,ACC025,"[0, 0, 0]","[0, 0, 0]",[],match,1.0,,-0.37972085199516625,0.3464642220351576,-1.5659667382553146,2nd,3rd,1st,-0.1879332299557455,0.23789167600384026,-1.3407407009054415
perc,resp,1483,1,2.3.3left.bmp,2.2.3right.bmp,,ACC025,"[0, 2, 2]","[0, 0, 2]",[],non-match,0.7113248654051871,4,0.12442363982546374,-0.18025744266110968,-1.733138361687853,3rd,2nd,1st,0.3442932618033167,-0.20970201942599778,-1.3407407009054415
perc,resp,2525,0,3.3.2left.bmp,3.2.1right.bmp,,ACC025,"[2, 2, 0]","[2, 0, -2]",[],non-match,0.5917517095361369,3,-2.2725126491556247,-0.9438570234364265,-1.390098303489119,1st,1st,1st,-1.1954781368511729,-1.156588176193384,-1.3407407009054415
perc,resp,1133,1,3.2.3left.bmp,2.2.1right.bmp,,ACC025,"[2, 0, 2]","[0, 0, -2]",[],non-match,0.3545027756320971,2,-0.43151961063308986,0.24596050480023976,-1.3939438581678447,2nd,3rd,1st,-0.1879332299557455,0.23789167600384026,-1.3407407009054415
perc,resp,1728,1,1.3.1left.bmp,1.3.1right.bmp,,ACC025,"[-2, 2, -2]","[-2, 2, -2]",[],match,1.0,,-2.0506913236564324,-0.6876202123217524,-1.306602613246616,1st,1st,1st,-1.1954781368511729,-1.156588176193384,-1.3407407009054415
perc,resp,1153,1,2.1.1left.bmp,1.2.1right.bmp,,ACC025,"[0, -2, -2]","[-2, 0, -2]",[],non-match,0.5917517095361369,3,0.8395173481134828,-1.5520201544575722,-1.5426299089739066,4th,1st,1st,1.0416813842142179,-1.156588176193384,-1.3407407009054415
perc,resp,1134,1,3.2.1left.bmp,1.2.2right.bmp,,ACC025,"[2, 0, -2]","[-2, 0, 0]",[],non-match,0.3545027756320971,2,0.4490365899692478,-0.9633619147490293,-1.4144313659432155,3rd,1st,1st,0.3442932618033167,-1.156588176193384,-1.3407407009054415
perc,resp,1514,1,2.3.1left.bmp,1.2.3right.bmp,,ACC025,"[0, 2, -2]","[-2, 0, 2]",[],non-match,0.29289321881345254,1,-0.21630563341468295,-0.11024072506515063,-1.4553085333843438,2nd,2nd,1st,-0.1879332299557455,-0.20970201942599778,-1.3407407009054415
perc,resp,1093,1,3.3.3left.bmp,3.1.3right.bmp,,ACC025,"[2, 2, 2]","[2, -2, 2]",[],non-match,0.42264973081037416,2,0.8841718261209267,0.09680347176008723,-1.436997055596397,4th,3rd,1st,1.0416813842142179,0.23789167600384026,-1.3407407009054415
perc,resp,1434,0,3.1.2left.bmp,3.1.2right.bmp,,ACC025,"[2, -2, 0]","[2, -2, 0]",[],match,1.0,,-0.8425828453578671,-0.5578421102393123,-1.4639833063491354,1st,1st,1st,-1.1954781368511729,-1.156588176193384,-1.3407407009054415
perc,resp,1156,1,2.1.2left.bmp,3.2.2right.bmp,,ACC025,"[0, -2, 0]","[2, 0, 0]",[],non-match,0.5917517095361369,3,1.6475837371630846,-0.4283835211956283,-1.3578774892314747,4th,2nd,1st,1.0416813842142179,-0.20970201942599778,-1.3407407009054415
perc,resp,839,1,3.3.1left.bmp,1.1.3right.bmp,,ACC025,"[2, 2, -2]","[-2, -2, 2]",[],non-match,0.0,1,0.14458349249961341,0.44068948440646105,-1.484841957581014,3rd,3rd,1st,0.3442932618033167,0.23789167600384026,-1.3407407009054415
perc,resp,995,1,1.2.1left.bmp,3.3.3right.bmp,,ACC025,"[-2, 0, -2]","[2, 2, 2]",[],non-match,0.1339745962155613,1,0.2023849418906788,-0.44497119381542743,-1.3857860833530622,3rd,2nd,1st,0.3442932618033167,-0.20970201942599778,-1.3407407009054415
perc,resp,726,1,2.2.3left.bmp,1.1.1right.bmp,,ACC025,"[0, 0, 2]","[-2, -2, -2]",[],non-match,0.29289321881345254,1,0.4191623525795642,-0.7155598142364289,-1.117894296130621,3rd,1st,1st,0.3442932618033167,-1.156588176193384,-1.3407407009054415
perc,resp,1095,1,1.2.2left.bmp,2.3.1right.bmp,,ACC025,"[-2, 0, 0]","[0, 2, -2]",[],non-match,0.5,3,0.6026318464794296,0.3838401099037624,-1.0908863417044612,3rd,3rd,1st,0.3442932618033167,0.23789167600384026,-1.3407407009054415
perc,resp,1103,1,1.3.3left.bmp,1.3.3right.bmp,,ACC025,"[-2, 2, 2]","[-2, 2, 2]",[],match,1.0,,0.6308493872299382,0.16026819054459546,-1.0279039061443744,4th,3rd,1st,1.0416813842142179,0.23789167600384026,-1.3407407009054415
perc,resp,938,1,1.1.2left.bmp,1.1.2right.bmp,,ACC025,"[-2, -2, 0]","[-2, -2, 0]",[],match,1.0,,-0.32904151894491374,-0.09185378249132645,-0.9511676067920344,2nd,2nd,1st,-0.1879332299557455,-0.20970201942599778,-1.3407407009054415
perc,resp,1095,1,2.3.3left.bmp,2.3.3right.bmp,,ACC025,"[0, 2, 2]","[0, 2, 2]",[],match,1.0,,0.0859014796914857,0.13525209088643123,-0.5296299972653413,3rd,3rd,2nd,0.3442932618033167,0.23789167600384026,-0.19318183276530584
perc,resp,961,0,3.3.2left.bmp,3.2.2right.bmp,,ACC025,"[2, 2, 0]","[2, 0, 0]",[],non-match,0.7113248654051871,4,-0.2892319171932305,0.04759212503982164,-0.318240101439238,2nd,3rd,2nd,-0.1879332299557455,0.23789167600384026,-0.19318183276530584
perc,resp,1236,1,1.3.2left.bmp,1.2.1right.bmp,,ACC025,"[-2, 2, 0]","[-2, 0, -2]",[],non-match,0.5917517095361369,3,0.22829890681517281,-0.5336543096338265,-0.5037364808729468,3rd,1st,2nd,0.3442932618033167,-1.156588176193384,-0.19318183276530584
perc,resp,1390,1,2.2.1left.bmp,2.2.1right.bmp,,ACC025,"[0, 0, -2]","[0, 0, -2]",[],match,1.0,,0.4797890760325005,0.09065290620818602,-0.47834862006585643,3rd,3rd,2nd,0.3442932618033167,0.23789167600384026,-0.19318183276530584
perc,resp,1253,1,2.1.2left.bmp,2.1.2right.bmp,,ACC025,"[0, -2, 0]","[0, -2, 0]",[],match,1.0,,-0.024979939788932724,-0.7954644564833756,-0.2871474560522696,2nd,1st,2nd,-0.1879332299557455,-1.156588176193384,-0.19318183276530584
perc,resp,1042,0,1.1.2left.bmp,2.1.1right.bmp,,ACC025,"[-2, -2, 0]","[0, -2, -2]",[],non-match,0.5917517095361369,3,-0.47611395289696384,-0.6004754619071386,-0.05574586147218312,1st,1st,2nd,-1.1954781368511729,-1.156588176193384,-0.19318183276530584
perc,resp,1465,1,2.2.3left.bmp,2.2.3right.bmp,,ACC025,"[0, 0, 2]","[0, 0, 2]",[],match,1.0,,-0.24950835895421772,-0.03315319811275729,0.17256389327181357,2nd,2nd,3rd,-0.1879332299557455,-0.20970201942599778,0.3150076340633964
perc,resp,2020,1,3.2.1left.bmp,2.3.2right.bmp,,ACC025,"[2, 0, -2]","[0, 2, 0]",[],non-match,0.5,3,1.1536114430166169,1.7523654487350622,0.39815968619600456,4th,4th,3rd,1.0416813842142179,1.1288606451332104,0.3150076340633964
perc,resp,1221,0,2.3.1left.bmp,3.3.3right.bmp,,ACC025,"[0, 2, -2]","[2, 2, 2]",[],non-match,0.3545027756320971,2,-0.4787071880692778,-0.7700495936203363,-0.03405050772535562,1st,1st,2nd,-1.1954781368511729,-1.156588176193384,-0.19318183276530584
perc,resp,1302,1,3.1.2left.bmp,3.1.2right.bmp,,ACC025,"[2, -2, 0]","[2, -2, 0]",[],match,1.0,,-0.772149937686157,0.16032203314319748,0.03981351319871147,1st,3rd,2nd,-1.1954781368511729,0.23789167600384026,-0.19318183276530584
perc,resp,979,1,1.1.1left.bmp,1.1.1right.bmp,,ACC025,"[-2, -2, -2]","[-2, -2, -2]",[],match,1.0,,1.773919749720732,1.225225300272621,0.26070707543478405,4th,4th,3rd,1.0416813842142179,1.1288606451332104,0.3150076340633964
perc,resp,915,1,2.2.2left.bmp,2.2.2right.bmp,,ACC025,"[0, 0, 0]","[0, 0, 0]",[],match,1.0,,-0.4525995465218876,0.3327625105980206,0.2555970981124594,1st,3rd,3rd,-1.1954781368511729,0.23789167600384026,0.3150076340633964
