mode,type,rt,acc,item_1,item_2,item_cue,subj_idx,item_1_number,item_2_number,item_cue_number,trial_type,similarity,similarity_bin,ams,pams,slps,ams_quantile,pams_quantile,slps_quantile,ams_bin,pam_bin,slp_bin
perc,resp,986,0,1.2.2left.bmp,1.3.3right.bmp,,ACC032,"[-2, 0, 0]","[-2, 2, 2]",[],non-match,0.5917517095361369,3,0.8360558152341803,0.17679093922737396,1.2806864158458742,4th,3rd,4th,1.3120402189510112,0.2436284096490861,1.2519945932953895
perc,resp,1396,1,2.3.1left.bmp,2.3.1right.bmp,,ACC032,"[0, 2, -2]","[0, 2, -2]",[],match,1.0,,0.024218774661607337,0.007039893322834004,1.0894305141197715,3rd,3rd,4th,0.25469300897557456,0.2436284096490861,1.2519945932953895
perc,resp,906,1,1.1.2left.bmp,1.1.2right.bmp,,ACC032,"[-2, -2, 0]","[-2, -2, 0]",[],match,1.0,,0.4993193767603354,0.0809150537869327,1.4251252545010096,3rd,3rd,4th,0.25469300897557456,0.2436284096490861,1.2519945932953895
perc,resp,1513,1,1.2.1left.bmp,1.2.1right.bmp,,ACC032,"[-2, 0, -2]","[-2, 0, -2]",[],match,1.0,,0.12127103501492391,-1.0477220331690116,1.2344312061915206,3rd,1st,4th,0.25469300897557456,-1.169208969941906,1.2519945932953895
perc,resp,954,1,3.3.2left.bmp,3.3.2right.bmp,,ACC032,"[2, 2, 0]","[2, 2, 0]",[],match,1.0,,-1.0235901617871577,-0.6455214834348344,1.7000633369739282,1st,1st,4th,-1.224338198462056,-1.169208969941906,1.2519945932953895
perc,resp,1311,1,1.2.3left.bmp,1.2.3right.bmp,,ACC032,"[-2, 0, 2]","[-2, 0, 2]",[],match,1.0,,0.7747997555192843,0.7011804119456547,1.6272816712771394,4th,4th,4th,1.3120402189510112,1.297183065494471,1.2519945932953895
perc,resp,1058,1,2.1.1left.bmp,2.1.1right.bmp,,ACC032,"[0, -2, -2]","[0, -2, -2]",[],match,1.0,,0.6044011634701365,0.6443054867093653,1.4392127560427304,3rd,4th,4th,0.25469300897557456,1.297183065494471,1.2519945932953895
perc,resp,1114,1,2.1.2left.bmp,2.1.2right.bmp,,ACC032,"[0, -2, 0]","[0, -2, 0]",[],match,1.0,,1.4671247510819154,4.003396931943917,1.2309652521494807,4th,4th,4th,1.3120402189510112,1.297183065494471,1.2519945932953895
perc,resp,1195,0,2.2.2left.bmp,1.2.2right.bmp,,ACC032,"[0, 0, 0]","[-2, 0, 0]",[],non-match,0.7113248654051871,4,-0.08447584479576152,1.9257044335232878,1.3093850912535039,2nd,4th,4th,-0.34239502946452954,1.297183065494471,1.2519945932953895
perc,resp,1267,1,3.1.1left.bmp,1.1.1right.bmp,,ACC032,"[2, -2, -2]","[-2, -2, -2]",[],non-match,0.42264973081037416,2,-0.015772084181322032,0.9025958404460804,1.0940927261014612,3rd,4th,4th,0.25469300897557456,1.297183065494471,1.2519945932953895
perc,resp,1319,1,2.3.3left.bmp,2.3.3right.bmp,,ACC032,"[0, 2, 2]","[0, 2, 2]",[],match,1.0,,0.07401227412846169,1.0216326680432846,0.9321736895765085,3rd,4th,4th,0.25469300897557456,1.297183065494471,1.2519945932953895
perc,resp,1088,1,3.3.1left.bmp,1.2.3right.bmp,,ACC032,"[2, 2, -2]","[-2, 0, 2]",[],non-match,0.1339745962155613,1,0.8853073899265236,-0.5099824821887383,0.9662926618101866,4th,2nd,4th,1.3120402189510112,-0.3716025052016505,1.2519945932953895
perc,resp,1227,1,1.3.3left.bmp,2.2.2right.bmp,,ACC032,"[-2, 2, 2]","[0, 0, 0]",[],non-match,0.5,3,-0.24914318987753348,0.23039415721142822,0.816513132574165,2nd,3rd,4th,-0.34239502946452954,0.2436284096490861,1.2519945932953895
perc,resp,1238,1,1.3.1left.bmp,1.1.2right.bmp,,ACC032,"[-2, 2, -2]","[-2, -2, 0]",[],non-match,0.3545027756320971,2,2.2477948234371015,1.6075305961576842,0.4266818208539792,4th,4th,3rd,1.3120402189510112,1.297183065494471,0.34822055411553754
perc,resp,1339,1,3.1.3left.bmp,1.2.2right.bmp,,ACC032,"[2, -2, 2]","[-2, 0, 0]",[],non-match,0.29289321881345254,1,0.2784261787182954,0.6260347354015006,0.6053419788482314,3rd,4th,3rd,0.25469300897557456,1.297183065494471,0.34822055411553754
perc,resp,1270,1,1.1.1left.bmp,1.1.1right.bmp,,ACC032,"[-2, -2, -2]","[-2, -2, -2]",[],match,1.0,,-0.18893443956650266,-0.4462109465997488,0.5882320308198802,2nd,2nd,3rd,-0.34239502946452954,-0.3716025052016505,0.34822055411553754
perc,resp,977,1,3.2.3left.bmp,1.3.2right.bmp,,ACC032,"[2, 0, 2]","[-2, 2, 0]",[],non-match,0.29289321881345254,1,1.4149571080242362,2.304128556626615,0.2790706667770131,4th,4th,3rd,1.3120402189510112,1.297183065494471,0.34822055411553754
perc,resp,1188,1,3.3.3left.bmp,2.1.3right.bmp,,ACC032,"[2, 2, 2]","[0, -2, 2]",[],non-match,0.3545027756320971,2,1.6984428477883386,0.260539426007437,0.1776675127941947,4th,3rd,3rd,1.3120402189510112,0.2436284096490861,0.34822055411553754
perc,resp,1006,1,1.1.3left.bmp,3.3.2right.bmp,,ACC032,"[-2, -2, 2]","[2, 2, 0]",[],non-match,0.1339745962155613,1,0.1680285251202153,0.0869525169710921,0.34076829390865676,3rd,3rd,3rd,0.25469300897557456,0.2436284096490861,0.34822055411553754
perc,resp,1093,0,3.2.1left.bmp,3.3.1right.bmp,,ACC032,"[2, 0, -2]","[2, 2, -2]",[],non-match,0.7113248654051871,4,-0.04700987247874575,0.25541210197311676,0.1265075216791218,2nd,3rd,3rd,-0.34239502946452954,0.2436284096490861,0.34822055411553754
perc,resp,1082,1,2.3.2left.bmp,2.3.2right.bmp,,ACC032,"[0, 2, 0]","[0, 2, 0]",[],match,1.0,,0.08952004621848121,-0.028210132642392874,0.058107998959486394,3rd,3rd,2nd,0.25469300897557456,0.2436284096490861,-0.2461797222560862
perc,resp,1030,1,1.3.2left.bmp,1.3.2right.bmp,,ACC032,"[-2, 2, 0]","[-2, 2, 0]",[],match,1.0,,-0.0396793390935582,2.0863396942694905,0.25776930857268565,3rd,4th,3rd,0.25469300897557456,1.297183065494471,0.34822055411553754
perc,resp,1471,1,3.1.2left.bmp,3.1.2right.bmp,,ACC032,"[2, -2, 0]","[2, -2, 0]",[],match,1.0,,0.16169191259392954,1.1998278159726379,0.08485719621837419,3rd,4th,2nd,0.25469300897557456,1.297183065494471,-0.2461797222560862
perc,resp,1081,1,3.2.2left.bmp,1.3.1right.bmp,,ACC032,"[2, 0, 0]","[-2, 2, -2]",[],non-match,0.29289321881345254,1,1.4536155511175195,-0.747546028594318,0.04995195104021803,4th,1st,2nd,1.3120402189510112,-1.169208969941906,-0.2461797222560862
perc,resp,1161,1,2.1.3left.bmp,2.1.3right.bmp,,ACC032,"[0, -2, 2]","[0, -2, 2]",[],match,1.0,,-0.002318372923291004,0.4681952462500871,0.004635771092970217,3rd,3rd,2nd,0.25469300897557456,0.2436284096490861,-0.2461797222560862
perc,resp,1049,1,2.2.3left.bmp,2.2.3right.bmp,,ACC032,"[0, 0, 2]","[0, 0, 2]",[],match,1.0,,0.026260322324722075,-0.2797652456472752,0.17951638964497077,3rd,2nd,3rd,0.25469300897557456,-0.3716025052016505,0.34822055411553754
perc,resp,947,1,3.2.2left.bmp,3.2.2right.bmp,,ACC032,"[2, 0, 0]","[2, 0, 0]",[],match,1.0,,0.21128430059476105,-0.8910234718826722,0.16699017670484748,3rd,1st,3rd,0.25469300897557456,-1.169208969941906,0.34822055411553754
perc,resp,1474,0,2.2.1left.bmp,2.2.1right.bmp,,ACC032,"[0, 0, -2]","[0, 0, -2]",[],match,1.0,,-0.5497610001988924,0.835871998273386,0.23447795372597294,2nd,4th,3rd,-0.34239502946452954,1.297183065494471,0.34822055411553754
perc,resp,1106,1,3.1.1left.bmp,3.1.1right.bmp,,ACC032,"[2, -2, -2]","[2, -2, -2]",[],match,1.0,,0.8833906525538482,2.160726002889548,0.04965228146309633,4th,4th,2nd,1.3120402189510112,1.297183065494471,-0.2461797222560862
perc,resp,960,1,1.1.3left.bmp,1.3.1right.bmp,,ACC032,"[-2, -2, 2]","[-2, 2, -2]",[],non-match,0.18350341907227385,1,0.22042984318719264,0.39223709957030445,0.05277517702563781,3rd,3rd,2nd,0.25469300897557456,0.2436284096490861,-0.2461797222560862
perc,resp,1038,1,3.1.3left.bmp,3.1.3right.bmp,,ACC032,"[2, -2, 2]","[2, -2, 2]",[],match,1.0,,-0.8782351101241643,-0.9413861321324068,-0.22057937112504084,1st,1st,2nd,-1.224338198462056,-1.169208969941906,-0.2461797222560862
perc,resp,1007,0,1.1.1left.bmp,2.1.2right.bmp,,ACC032,"[-2, -2, -2]","[0, -2, 0]",[],non-match,0.5917517095361369,3,-0.7704858078635057,2.3093135497886434,0.07484570787744164,1st,4th,2nd,-1.224338198462056,1.297183065494471,-0.2461797222560862
perc,resp,1228,1,1.3.2left.bmp,1.3.2right.bmp,,ACC032,"[-2, 2, 0]","[-2, 2, 0]",[],match,1.0,,0.6609257589228611,0.6722087146228842,0.009079059252178962,4th,4th,2nd,1.3120402189510112,1.297183065494471,-0.2461797222560862
perc,resp,1065,0,2.1.3left.bmp,2.2.1right.bmp,,ACC032,"[0, -2, 2]","[0, 0, -2]",[],non-match,0.3545027756320971,2,-0.8462730271738144,0.49712851848503564,0.11755378083671313,1st,3rd,3rd,-1.224338198462056,0.2436284096490861,0.34822055411553754
perc,resp,934,1,2.3.2left.bmp,3.1.2right.bmp,,ACC032,"[0, 2, 0]","[2, -2, 0]",[],non-match,0.3545027756320971,2,1.3544329756756315,0.020012990371014484,0.07084100691885312,4th,3rd,2nd,1.3120402189510112,0.2436284096490861,-0.2461797222560862
perc,resp,1001,1,1.2.3left.bmp,3.3.1right.bmp,,ACC032,"[-2, 0, 2]","[2, 2, -2]",[],non-match,0.1339745962155613,1,0.7806949712142288,-0.5219223695701406,0.3099838040670604,4th,2nd,3rd,1.3120402189510112,-0.3716025052016505,0.34822055411553754
perc,resp,1138,1,2.2.2left.bmp,2.2.2right.bmp,,ACC032,"[0, 0, 0]","[0, 0, 0]",[],match,1.0,,-0.6350671200975663,-1.6015386399099254,0.49979857374931486,2nd,1st,3rd,-0.34239502946452954,-1.169208969941906,0.34822055411553754
perc,resp,1539,0,2.3.3left.bmp,2.2.3right.bmp,,ACC032,"[0, 2, 2]","[0, 0, 2]",[],non-match,0.7113248654051871,4,-1.1380507252552767,-0.5842185235186316,0.9641442835322765,1st,2nd,4th,-1.224338198462056,-0.3716025052016505,1.2519945932953895
perc,resp,1160,1,3.3.2left.bmp,3.2.1right.bmp,,ACC032,"[2, 2, 0]","[2, 0, -2]",[],non-match,0.5917517095361369,3,0.5475258180472224,0.9513130565457288,0.8788804968127975,3rd,4th,4th,0.25469300897557456,1.297183065494471,1.2519945932953895
perc,resp,1209,1,3.2.3left.bmp,2.2.1right.bmp,,ACC032,"[2, 0, 2]","[0, 0, -2]",[],non-match,0.3545027756320971,2,-0.9518847266124391,-0.35935938201023854,0.4494695701139619,1st,2nd,3rd,-1.224338198462056,-0.3716025052016505,0.34822055411553754
perc,resp,1118,1,1.3.1left.bmp,1.3.1right.bmp,,ACC032,"[-2, 2, -2]","[-2, 2, -2]",[],match,1.0,,-1.071492007502252,-0.5278818172276311,0.20819193275151532,1st,2nd,3rd,-1.224338198462056,-0.3716025052016505,0.34822055411553754
perc,resp,1117,0,2.1.1left.bmp,1.2.1right.bmp,,ACC032,"[0, -2, -2]","[-2, 0, -2]",[],non-match,0.5917517095361369,3,-0.7344998091776882,0.584876175020148,0.11581077169328784,1st,3rd,3rd,-1.224338198462056,0.2436284096490861,0.34822055411553754
perc,resp,863,1,3.2.1left.bmp,1.2.2right.bmp,,ACC032,"[2, 0, -2]","[-2, 0, 0]",[],non-match,0.3545027756320971,2,-1.2806124417668872,-1.304302811047845,-0.010947143238538947,1st,1st,2nd,-1.224338198462056,-1.169208969941906,-0.2461797222560862
perc,resp,1032,1,2.3.1left.bmp,1.2.3right.bmp,,ACC032,"[0, 2, -2]","[-2, 0, 2]",[],non-match,0.29289321881345254,1,1.0477491046403955,-0.028931626658205496,-0.0107058886463356,4th,3rd,2nd,1.3120402189510112,0.2436284096490861,-0.2461797222560862
perc,resp,1518,1,3.1.2left.bmp,3.1.2right.bmp,,ACC032,"[2, -2, 0]","[2, -2, 0]",[],match,1.0,,-0.39619896054205606,-0.11884252114979821,-0.024450924984570452,2nd,2nd,2nd,-0.34239502946452954,-0.3716025052016505,-0.2461797222560862
perc,resp,983,1,3.3.1left.bmp,1.1.3right.bmp,,ACC032,"[2, 2, -2]","[-2, -2, 2]",[],non-match,0.0,1,0.1348971031742282,-1.114236822785269,-0.3549632748425218,3rd,1st,2nd,0.25469300897557456,-1.169208969941906,-0.2461797222560862
perc,resp,992,1,1.2.1left.bmp,3.3.3right.bmp,,ACC032,"[-2, 0, -2]","[2, 2, 2]",[],non-match,0.1339745962155613,1,0.8836264932852633,1.1976443890970643,-0.22271232365328708,4th,4th,2nd,1.3120402189510112,1.297183065494471,-0.2461797222560862
perc,resp,1049,1,2.2.3left.bmp,1.1.1right.bmp,,ACC032,"[0, 0, 2]","[-2, -2, -2]",[],non-match,0.29289321881345254,1,0.9490069849495694,-0.2600339000585289,-0.3009756075968509,4th,2nd,2nd,1.3120402189510112,-0.3716025052016505,-0.2461797222560862
perc,resp,1150,1,1.2.2left.bmp,2.3.1right.bmp,,ACC032,"[-2, 0, 0]","[0, 2, -2]",[],non-match,0.5,3,0.016419518586801487,-0.44347470239511083,-0.17771422211020252,3rd,2nd,2nd,0.25469300897557456,-0.3716025052016505,-0.2461797222560862
perc,resp,1107,1,1.3.3left.bmp,1.3.3right.bmp,,ACC032,"[-2, 2, 2]","[-2, 2, 2]",[],match,1.0,,1.2299741105561137,0.33074839214964874,-0.5827826377528453,4th,3rd,2nd,1.3120402189510112,0.2436284096490861,-0.2461797222560862
perc,resp,1276,1,1.1.2left.bmp,1.1.2right.bmp,,ACC032,"[-2, -2, 0]","[-2, -2, 0]",[],match,1.0,,-0.18365790745524008,-1.509362073697382,-0.60287467572169,2nd,1st,2nd,-0.34239502946452954,-1.169208969941906,-0.2461797222560862
perc,resp,1277,1,2.3.3left.bmp,2.3.3right.bmp,,ACC032,"[0, 2, 2]","[0, 2, 2]",[],match,1.0,,0.17292814117853825,1.790838107533886,-0.7241554356507921,3rd,4th,2nd,0.25469300897557456,1.297183065494471,-0.2461797222560862
perc,resp,1038,1,1.3.2left.bmp,1.2.1right.bmp,,ACC032,"[-2, 2, 0]","[-2, 0, -2]",[],non-match,0.5917517095361369,3,0.6058482391596866,-0.2675777841651943,-1.020181136496559,3rd,2nd,1st,0.25469300897557456,-0.3716025052016505,-1.3540354251548414
perc,resp,1155,1,2.2.1left.bmp,2.2.1right.bmp,,ACC032,"[0, 0, -2]","[0, 0, -2]",[],match,1.0,,-0.8313987112721616,-0.19653360779439677,-1.302374660760921,1st,2nd,1st,-1.224338198462056,-0.3716025052016505,-1.3540354251548414
perc,resp,956,1,2.1.2left.bmp,2.1.2right.bmp,,ACC032,"[0, -2, 0]","[0, -2, 0]",[],match,1.0,,0.7577479399785352,0.6180816241095267,-0.9497578339745102,4th,4th,1st,1.3120402189510112,1.297183065494471,-1.3540354251548414
perc,resp,951,1,1.1.2left.bmp,2.1.1right.bmp,,ACC032,"[-2, -2, 0]","[0, -2, -2]",[],non-match,0.5917517095361369,3,-0.6463455529557214,-1.7659067906549133,-1.1470695478674395,2nd,1st,1st,-0.34239502946452954,-1.169208969941906,-1.3540354251548414
perc,resp,1512,1,2.2.3left.bmp,2.2.3right.bmp,,ACC032,"[0, 0, 2]","[0, 0, 2]",[],match,1.0,,-0.9682312947362468,-0.35575290405434407,-1.2226189706590187,1st,2nd,1st,-1.224338198462056,-0.3716025052016505,-1.3540354251548414
perc,resp,1031,1,3.2.1left.bmp,2.3.2right.bmp,,ACC032,"[2, 0, -2]","[0, 2, 0]",[],non-match,0.5,3,1.8223684485358953,-0.27668563233817844,-1.014533659736403,4th,2nd,1st,1.3120402189510112,-0.3716025052016505,-1.3540354251548414
perc,resp,1542,1,2.3.1left.bmp,3.3.3right.bmp,,ACC032,"[0, 2, -2]","[2, 2, 2]",[],non-match,0.3545027756320971,2,0.22787196828288162,0.3736662861217153,-0.7958636135818421,3rd,3rd,2nd,0.25469300897557456,0.2436284096490861,-0.2461797222560862
perc,resp,1518,0,3.1.2left.bmp,3.1.2right.bmp,,ACC032,"[2, -2, 0]","[2, -2, 0]",[],match,1.0,,-0.3083552801209991,-0.6301646608668126,-1.1386887616520276,2nd,2nd,1st,-0.34239502946452954,-0.3716025052016505,-1.3540354251548414
perc,resp,1273,1,1.1.1left.bmp,1.1.1right.bmp,,ACC032,"[-2, -2, -2]","[-2, -2, -2]",[],match,1.0,,-0.7128259632173436,0.6447891073843758,-1.297264443611309,1st,4th,1st,-1.224338198462056,1.297183065494471,-1.3540354251548414
perc,resp,981,1,2.2.2left.bmp,2.2.2right.bmp,,ACC032,"[0, 0, 0]","[0, 0, 0]",[],match,1.0,,-0.9863568956031702,0.9114373901620656,-1.2378303090058447,1st,4th,1st,-1.224338198462056,1.297183065494471,-1.3540354251548414
perc,resp,1302,1,1.3.3left.bmp,1.3.3right.bmp,,ACC032,"[-2, 2, 2]","[-2, 2, 2]",[],match,1.0,,0.05211851472200828,-0.6869338698676302,-1.5141527122036533,3rd,1st,1st,0.25469300897557456,-1.169208969941906,-1.3540354251548414
perc,resp,969,1,3.3.3left.bmp,3.3.3right.bmp,,ACC032,"[2, 2, 2]","[2, 2, 2]",[],match,1.0,,-0.3000760415812353,1.0809957751959423,-1.4348456761880406,2nd,4th,1st,-0.34239502946452954,1.297183065494471,-1.3540354251548414
perc,resp,886,1,3.3.1left.bmp,1.2.3right.bmp,,ACC032,"[2, 2, -2]","[-2, 0, 2]",[],non-match,0.1339745962155613,1,0.7722746352074873,-0.46140280900591,-0.9776010896890284,4th,2nd,1st,1.3120402189510112,-0.3716025052016505,-1.3540354251548414
perc,resp,923,1,3.1.3left.bmp,3.1.3right.bmp,,ACC032,"[2, -2, 2]","[2, -2, 2]",[],match,1.0,,0.0758420004294755,-0.5751069903167333,-1.0792181012352755,3rd,2nd,1st,0.25469300897557456,-0.3716025052016505,-1.3540354251548414
perc,resp,1124,1,3.3.3left.bmp,3.3.3right.bmp,,ACC032,"[2, 2, 2]","[2, 2, 2]",[],match,1.0,,0.5758651507356027,1.403478261753434,-1.0022526809282801,3rd,4th,1st,0.25469300897557456,1.297183065494471,-1.3540354251548414
perc,resp,1273,1,1.1.2left.bmp,1.1.2right.bmp,,ACC032,"[-2, -2, 0]","[-2, -2, 0]",[],match,1.0,,-0.8252975880554445,-0.8138150610338751,-0.9981164254793614,1st,1st,1st,-1.224338198462056,-1.169208969941906,-1.3540354251548414
perc,resp,1104,1,2.1.3left.bmp,2.3.3right.bmp,,ACC032,"[0, -2, 2]","[0, 2, 2]",[],non-match,0.42264973081037416,2,0.7386579270024676,2.7778646612586035,-0.8340254167604332,4th,4th,1st,1.3120402189510112,1.297183065494471,-1.3540354251548414
perc,resp,1567,1,2.2.3left.bmp,3.1.3right.bmp,,ACC032,"[0, 0, 2]","[2, -2, 2]",[],non-match,0.5917517095361369,3,-2.5422888544437674,-2.5649267301950127,-0.548659799816054,1st,1st,2nd,-1.224338198462056,-1.169208969941906,-0.2461797222560862
perc,resp,1206,1,2.2.2left.bmp,2.2.2right.bmp,,ACC032,"[0, 0, 0]","[0, 0, 0]",[],match,1.0,,0.10273155080599697,0.8437815821298107,-0.20243453625322025,3rd,4th,2nd,0.25469300897557456,1.297183065494471,-0.2461797222560862
perc,resp,973,1,3.3.1left.bmp,1.1.2right.bmp,,ACC032,"[2, 2, -2]","[-2, -2, 0]",[],non-match,0.1339745962155613,1,1.5676492074645225,-0.3112170304211922,0.09571743438006597,4th,2nd,3rd,1.3120402189510112,-0.3716025052016505,0.34822055411553754
perc,resp,1060,1,3.2.1left.bmp,3.2.1right.bmp,,ACC032,"[2, 0, -2]","[2, 0, -2]",[],match,1.0,,-0.6050617114922193,0.4591268310360816,-0.18782247445780836,2nd,3rd,2nd,-0.34239502946452954,0.2436284096490861,-0.2461797222560862
perc,resp,959,1,2.3.2left.bmp,2.1.1right.bmp,,ACC032,"[0, 2, 0]","[0, -2, -2]",[],non-match,0.3545027756320971,2,0.25654592300853557,-0.691422077605154,-0.22378170015165247,3rd,1st,2nd,0.25469300897557456,-1.169208969941906,-0.2461797222560862
perc,resp,1410,1,2.2.1left.bmp,2.2.1right.bmp,,ACC032,"[0, 0, -2]","[0, 0, -2]",[],match,1.0,,-1.341606750248155,-0.648564340942711,-0.36584565815674386,1st,1st,2nd,-1.224338198462056,-1.169208969941906,-0.2461797222560862
perc,resp,1745,0,1.3.1left.bmp,1.2.3right.bmp,,ACC032,"[-2, 2, -2]","[-2, 0, 2]",[],non-match,0.3545027756320971,2,-1.8273059982796263,-1.095694316342975,-0.2281979654320439,1st,1st,2nd,-1.224338198462056,-1.169208969941906,-0.2461797222560862
perc,resp,973,1,1.3.2left.bmp,2.1.2right.bmp,,ACC032,"[-2, 2, 0]","[0, -2, 0]",[],non-match,0.3545027756320971,2,2.457828428717077,0.23536400137762414,-0.6715764187597731,4th,3rd,2nd,1.3120402189510112,0.2436284096490861,-0.2461797222560862
perc,resp,931,1,1.1.3left.bmp,3.2.3right.bmp,,ACC032,"[-2, -2, 2]","[2, 0, 2]",[],non-match,0.3545027756320971,2,-0.997634465868503,-0.006561138951506814,-0.6021821933975976,1st,3rd,2nd,-1.224338198462056,0.2436284096490861,-0.2461797222560862
perc,resp,917,1,1.1.1left.bmp,1.1.1right.bmp,,ACC032,"[-2, -2, -2]","[-2, -2, -2]",[],match,1.0,,-0.11549426856544942,1.6700833635512844,-0.4381602537792062,2nd,4th,2nd,-0.34239502946452954,1.297183065494471,-0.2461797222560862
perc,resp,1102,1,3.3.2left.bmp,3.3.2right.bmp,,ACC032,"[2, 2, 0]","[2, 2, 0]",[],match,1.0,,-0.9980187258639379,-0.17424696236948795,-0.38983290495847933,1st,2nd,2nd,-1.224338198462056,-0.3716025052016505,-0.2461797222560862
perc,resp,891,1,3.1.2left.bmp,1.3.3right.bmp,,ACC032,"[2, -2, 0]","[-2, 2, 2]",[],non-match,0.1339745962155613,1,1.1564837793238798,-0.5753761549073317,-0.7160020162061485,4th,2nd,2nd,1.3120402189510112,-0.3716025052016505,-0.2461797222560862
perc,resp,1392,1,3.2.2left.bmp,3.3.3right.bmp,,ACC032,"[2, 0, 0]","[2, 2, 2]",[],non-match,0.5917517095361369,3,0.13124411413855328,1.4484916773386864,-0.7994574998763688,3rd,4th,2nd,0.25469300897557456,1.297183065494471,-0.2461797222560862
perc,resp,1423,1,3.2.3left.bmp,3.2.3right.bmp,,ACC032,"[2, 0, 2]","[2, 0, 2]",[],match,1.0,,-0.7809669417178445,0.4871591609454886,-1.038838495349837,1st,3rd,1st,-1.224338198462056,0.2436284096490861,-1.3540354251548414
perc,resp,1090,1,1.2.2left.bmp,1.2.2right.bmp,,ACC032,"[-2, 0, 0]","[-2, 0, 0]",[],match,1.0,,-0.8913234603139282,1.2983904339471786,-1.1266271359823326,1st,4th,1st,-1.224338198462056,1.297183065494471,-1.3540354251548414
perc,resp,949,1,2.1.2left.bmp,2.1.2right.bmp,,ACC032,"[0, -2, 0]","[0, -2, 0]",[],match,1.0,,-0.08994105202233617,0.1514288064659127,-1.068254358167852,2nd,3rd,1st,-0.34239502946452954,0.2436284096490861,-1.3540354251548414
perc,resp,1168,1,2.3.1left.bmp,1.2.3right.bmp,,ACC032,"[0, 2, -2]","[-2, 0, 2]",[],non-match,0.29289321881345254,1,1.302944024034734,0.0986300586401859,-1.4209760387481676,4th,3rd,1st,1.3120402189510112,0.2436284096490861,-1.3540354251548414
perc,resp,935,1,1.3.3left.bmp,3.3.2right.bmp,,ACC032,"[-2, 2, 2]","[2, 2, 0]",[],non-match,0.3545027756320971,2,1.8795622196663533,-0.3545572224076217,-1.2746821403036666,4th,2nd,1st,1.3120402189510112,-0.3716025052016505,-1.3540354251548414
perc,resp,1164,0,3.1.1left.bmp,3.2.1right.bmp,,ACC032,"[2, -2, -2]","[2, 0, -2]",[],non-match,0.7113248654051871,4,-0.30236138121652206,-0.31786460211044,-1.2826645469499682,2nd,2nd,1st,-0.34239502946452954,-0.3716025052016505,-1.3540354251548414
perc,resp,1201,1,1.2.1left.bmp,1.2.1right.bmp,,ACC032,"[-2, 0, -2]","[-2, 0, -2]",[],match,1.0,,-0.39009256693022043,-1.7869882406805668,-1.6841677965269883,2nd,1st,1st,-0.34239502946452954,-1.169208969941906,-1.3540354251548414
perc,resp,1255,1,3.1.3left.bmp,2.3.1right.bmp,,ACC032,"[2, -2, 2]","[0, 2, -2]",[],non-match,0.1339745962155613,1,-0.3001874522938387,0.7666181475313497,-1.694005633765846,2nd,4th,1st,-0.34239502946452954,1.297183065494471,-1.3540354251548414
perc,resp,1142,1,2.1.1left.bmp,2.1.1right.bmp,,ACC032,"[0, -2, -2]","[0, -2, -2]",[],match,1.0,,-0.6376472030191894,0.7098473479838642,-1.6672187935338778,2nd,4th,1st,-0.34239502946452954,1.297183065494471,-1.3540354251548414
perc,resp,1193,1,1.2.3left.bmp,1.2.3right.bmp,,ACC032,"[-2, 0, 2]","[-2, 0, 2]",[],match,1.0,,0.4863768825673653,-1.368858698742009,-1.741074844796899,3rd,1st,1st,0.25469300897557456,-1.169208969941906,-1.3540354251548414
perc,resp,1212,1,2.3.3left.bmp,2.3.3right.bmp,,ACC032,"[0, 2, 2]","[0, 2, 2]",[],match,1.0,,0.7565718899711487,-0.44235117802396307,-1.4672239714701587,4th,2nd,1st,1.3120402189510112,-0.3716025052016505,-1.3540354251548414
perc,resp,1459,1,1.2.1left.bmp,1.1.3right.bmp,,ACC032,"[-2, 0, -2]","[-2, -2, 2]",[],non-match,0.3545027756320971,2,0.33252804175486145,-0.29646170220947227,-1.3010158820977236,3rd,2nd,1st,0.25469300897557456,-0.3716025052016505,-1.3540354251548414
perc,resp,1058,1,1.2.3left.bmp,1.2.3right.bmp,,ACC032,"[-2, 0, 2]","[-2, 0, 2]",[],match,1.0,,-0.2083944027309674,-0.5891512811758841,-1.1073586509166444,2nd,2nd,1st,-0.34239502946452954,-0.3716025052016505,-1.3540354251548414
perc,resp,1137,1,2.3.1left.bmp,2.3.1right.bmp,,ACC032,"[0, 2, -2]","[0, 2, -2]",[],match,1.0,,1.3267700193118819,-0.7304328173091161,-0.8015067833954805,4th,1st,2nd,1.3120402189510112,-1.169208969941906,-0.2461797222560862
perc,resp,1460,1,2.1.3left.bmp,2.1.3right.bmp,,ACC032,"[0, -2, 2]","[0, -2, 2]",[],match,1.0,,0.026008014418358125,0.41548843517137096,-0.7266962199390063,3rd,3rd,2nd,0.25469300897557456,0.2436284096490861,-0.2461797222560862
perc,resp,1491,1,3.1.1left.bmp,3.1.1right.bmp,,ACC032,"[2, -2, -2]","[2, -2, -2]",[],match,1.0,,-0.4022425432321562,-0.2117341000973317,-0.7366004497806947,2nd,2nd,2nd,-0.34239502946452954,-0.3716025052016505,-0.2461797222560862
perc,resp,1353,1,2.1.1left.bmp,2.1.1right.bmp,,ACC032,"[0, -2, -2]","[0, -2, -2]",[],match,1.0,,-0.7030090083987213,-0.691656927332488,-0.6830616053061547,2nd,1st,2nd,-0.34239502946452954,-1.169208969941906,-0.2461797222560862
perc,resp,960,1,1.3.1left.bmp,3.2.3right.bmp,,ACC032,"[-2, 2, -2]","[2, 0, 2]",[],non-match,0.1339745962155613,1,-0.7823932569378491,0.9585221699487348,-0.6750390006103576,1st,4th,2nd,-1.224338198462056,1.297183065494471,-0.2461797222560862
perc,resp,1178,1,2.2.3left.bmp,2.2.3right.bmp,,ACC032,"[0, 0, 2]","[0, 0, 2]",[],match,1.0,,0.9690438929650907,0.17548615552801466,0.13230925403047786,4th,3rd,3rd,1.3120402189510112,0.2436284096490861,0.34822055411553754
perc,resp,1217,1,1.3.2left.bmp,2.2.1right.bmp,,ACC032,"[-2, 2, 0]","[0, 0, -2]",[],non-match,0.5,3,2.3892426062312437,0.4060361785267985,0.28041896397552524,4th,3rd,3rd,1.3120402189510112,0.2436284096490861,0.34822055411553754
perc,resp,864,1,3.1.2left.bmp,2.3.1right.bmp,,ACC032,"[2, -2, 0]","[0, 2, -2]",[],non-match,0.29289321881345254,1,-0.08657777783843015,-0.3848966953770015,0.06371039064164805,2nd,2nd,2nd,-0.34239502946452954,-0.3716025052016505,-0.2461797222560862
perc,resp,983,1,1.3.3left.bmp,1.3.3right.bmp,,ACC032,"[-2, 2, 2]","[-2, 2, 2]",[],match,1.0,,-0.8112099382501808,0.9552453918447461,-0.00528638768134809,1st,4th,2nd,-1.224338198462056,1.297183065494471,-0.2461797222560862
perc,resp,1231,1,3.1.3left.bmp,3.1.3right.bmp,,ACC032,"[2, -2, 2]","[2, -2, 2]",[],match,1.0,,-0.9716879430859976,0.6504935321434253,0.47626771531845397,1st,4th,3rd,-1.224338198462056,1.297183065494471,0.34822055411553754
perc,resp,1258,1,3.3.2left.bmp,3.3.2right.bmp,,ACC032,"[2, 2, 0]","[2, 2, 0]",[],match,1.0,,0.0022620517230352113,-1.9622337001290224,0.4326145199130621,3rd,1st,3rd,0.25469300897557456,-1.169208969941906,0.34822055411553754
perc,resp,1380,0,2.2.2left.bmp,3.2.2right.bmp,,ACC032,"[0, 0, 0]","[2, 0, 0]",[],non-match,0.7113248654051871,4,-2.399062491739136,-1.7739390887300754,0.2912154613841061,1st,1st,3rd,-1.224338198462056,-1.169208969941906,0.34822055411553754
perc,resp,949,1,1.1.3left.bmp,1.1.2right.bmp,,ACC032,"[-2, -2, 2]","[-2, -2, 0]",[],non-match,0.7113248654051871,4,0.18030507342352023,-0.7881101497174609,0.18537818707233084,3rd,1st,3rd,0.25469300897557456,-1.169208969941906,0.34822055411553754
perc,resp,834,1,3.3.1left.bmp,1.3.1right.bmp,,ACC032,"[2, 2, -2]","[-2, 2, -2]",[],non-match,0.42264973081037416,2,1.760750271308532,1.7652650777330323,-0.10288630612121683,4th,4th,2nd,1.3120402189510112,1.297183065494471,-0.2461797222560862
perc,resp,1050,1,3.2.1left.bmp,3.2.1right.bmp,,ACC032,"[2, 0, -2]","[2, 0, -2]",[],match,1.0,,-1.146165442817317,0.9566434351220084,-0.32790984995846806,1st,4th,2nd,-1.224338198462056,1.297183065494471,-0.2461797222560862
perc,resp,1089,1,2.2.1left.bmp,1.2.3right.bmp,,ACC032,"[0, 0, -2]","[-2, 0, 2]",[],non-match,0.3545027756320971,2,1.0688559228780126,-1.5674859402717942,0.09321545452877034,4th,1st,3rd,1.3120402189510112,-1.169208969941906,0.34822055411553754
perc,resp,1005,1,1.1.1left.bmp,1.1.1right.bmp,,ACC032,"[-2, -2, -2]","[-2, -2, -2]",[],match,1.0,,-0.03253806764895664,0.6706721520536196,0.14168015516489332,3rd,4th,3rd,0.25469300897557456,1.297183065494471,0.34822055411553754
perc,resp,872,1,2.3.3left.bmp,1.2.2right.bmp,,ACC032,"[0, 2, 2]","[-2, 0, 0]",[],non-match,0.5,3,0.6012731402962469,-0.2822467819132084,0.08774148822013246,3rd,2nd,2nd,0.25469300897557456,-0.3716025052016505,-0.2461797222560862
perc,resp,1151,1,3.3.3left.bmp,2.2.3right.bmp,,ACC032,"[2, 2, 2]","[0, 0, 2]",[],non-match,0.5917517095361369,3,-0.26420565699836446,0.690653764648789,0.19715331268815173,2nd,4th,3rd,-0.34239502946452954,1.297183065494471,0.34822055411553754
perc,resp,1028,1,1.1.2left.bmp,1.1.2right.bmp,,ACC032,"[-2, -2, 0]","[-2, -2, 0]",[],match,1.0,,-0.07506065814967612,0.6389804624486013,0.08853020809854291,2nd,4th,2nd,-0.34239502946452954,1.297183065494471,-0.2461797222560862
perc,resp,1169,1,3.2.2left.bmp,3.2.2right.bmp,,ACC032,"[2, 0, 0]","[2, 0, 0]",[],match,1.0,,-0.34125597301315,-1.6550786996086195,-0.06965045575344644,2nd,1st,2nd,-0.34239502946452954,-1.169208969941906,-0.2461797222560862
perc,resp,1146,1,1.2.2left.bmp,1.2.2right.bmp,,ACC032,"[-2, 0, 0]","[-2, 0, 0]",[],match,1.0,,0.6210217119248949,-0.5458571677988678,-0.00569375736337993,3rd,2nd,2nd,0.25469300897557456,-0.3716025052016505,-0.2461797222560862
perc,resp,1227,1,2.1.2left.bmp,2.1.2right.bmp,,ACC032,"[0, -2, 0]","[0, -2, 0]",[],match,1.0,,-0.5527452091947084,-1.6450877752011333,-0.07026826657977604,2nd,1st,2nd,-0.34239502946452954,-1.169208969941906,-0.2461797222560862
perc,resp,1014,1,2.3.2left.bmp,1.1.1right.bmp,,ACC032,"[0, 2, 0]","[-2, -2, -2]",[],non-match,0.29289321881345254,1,0.8108707125653961,-1.1799027073299093,0.2583413991541699,4th,1st,3rd,1.3120402189510112,-1.169208969941906,0.34822055411553754
perc,resp,1184,1,3.2.3left.bmp,3.2.3right.bmp,,ACC032,"[2, 0, 2]","[2, 0, 2]",[],match,1.0,,-0.6975984141288977,0.27699163129417276,0.08031396934948072,2nd,3rd,2nd,-0.34239502946452954,0.2436284096490861,-0.2461797222560862
perc,resp,1101,1,3.3.3left.bmp,3.3.3right.bmp,,ACC032,"[2, 2, 2]","[2, 2, 2]",[],match,1.0,,-0.7145935327718037,-0.855704026823078,0.2774676924370296,1st,1st,3rd,-1.224338198462056,-1.169208969941906,0.34822055411553754
perc,resp,940,1,3.1.2left.bmp,1.3.2right.bmp,,ACC032,"[2, -2, 0]","[-2, 2, 0]",[],non-match,0.18350341907227385,1,1.5213667957091042,-0.11624246553511419,0.08443491551727282,4th,2nd,2nd,1.3120402189510112,-0.3716025052016505,-0.2461797222560862
perc,resp,897,1,3.1.1left.bmp,2.3.2right.bmp,,ACC032,"[2, -2, -2]","[0, 2, 0]",[],non-match,0.29289321881345254,1,-0.4200916504627686,0.06492675269571822,-0.09674243236460783,2nd,3rd,2nd,-0.34239502946452954,0.2436284096490861,-0.2461797222560862
perc,resp,903,1,1.2.3left.bmp,2.2.1right.bmp,,ACC032,"[-2, 0, 2]","[0, 0, -2]",[],non-match,0.3545027756320971,2,1.1353334716891337,-0.5306813053473081,-0.13562203190300234,4th,2nd,2nd,1.3120402189510112,-0.3716025052016505,-0.2461797222560862
perc,resp,910,1,2.2.3left.bmp,1.1.3right.bmp,,ACC032,"[0, 0, 2]","[-2, -2, 2]",[],non-match,0.5917517095361369,3,0.2087327754543301,-0.45374005909478404,0.11363776807499426,3rd,2nd,3rd,0.25469300897557456,-0.3716025052016505,0.34822055411553754
perc,resp,1178,1,2.1.3left.bmp,2.1.3right.bmp,,ACC032,"[0, -2, 2]","[0, -2, 2]",[],match,1.0,,0.09872425665348478,0.4903506479529015,0.5482331953949592,3rd,3rd,3rd,0.25469300897557456,0.2436284096490861,0.34822055411553754
perc,resp,1127,1,2.2.2left.bmp,3.3.2right.bmp,,ACC032,"[0, 0, 0]","[2, 2, 0]",[],non-match,0.5917517095361369,3,-0.13348122586121086,-1.176793913001249,0.2623212679431734,2nd,1st,3rd,-0.34239502946452954,-1.169208969941906,0.34822055411553754
perc,resp,954,1,3.2.2left.bmp,3.2.2right.bmp,,ACC032,"[2, 0, 0]","[2, 0, 0]",[],match,1.0,,0.35803561451459365,0.7886504629692374,0.45589710830746505,3rd,4th,3rd,0.25469300897557456,1.297183065494471,0.34822055411553754
perc,resp,1063,0,1.1.1left.bmp,2.1.2right.bmp,,ACC032,"[-2, -2, -2]","[0, -2, 0]",[],non-match,0.5917517095361369,3,-0.26331615399415514,0.7898481918542457,0.6346362754914953,2nd,4th,3rd,-0.34239502946452954,1.297183065494471,0.34822055411553754
perc,resp,858,1,3.2.3left.bmp,3.3.3right.bmp,,ACC032,"[2, 0, 2]","[2, 2, 2]",[],non-match,0.7113248654051871,4,0.08672948097344653,2.1715563343641042,0.5148829858958607,3rd,4th,3rd,0.25469300897557456,1.297183065494471,0.34822055411553754
perc,resp,1177,1,2.3.2left.bmp,2.3.2right.bmp,,ACC032,"[0, 2, 0]","[0, 2, 0]",[],match,1.0,,-0.386475095199438,0.5575310557592624,0.6968994884416696,2nd,3rd,4th,-0.34239502946452954,0.2436284096490861,1.2519945932953895
perc,resp,1378,1,3.3.1left.bmp,2.2.2right.bmp,,ACC032,"[2, 2, -2]","[0, 0, 0]",[],non-match,0.5,3,1.3595663608376047,0.04608504237798128,0.6219832923263224,4th,3rd,3rd,1.3120402189510112,0.2436284096490861,0.34822055411553754
perc,resp,1209,1,2.1.1left.bmp,2.1.1right.bmp,,ACC032,"[0, -2, -2]","[0, -2, -2]",[],match,1.0,,0.9808497006290298,0.037307114528718044,0.9751458184660078,4th,3rd,4th,1.3120402189510112,0.2436284096490861,1.2519945932953895
perc,resp,1025,1,3.1.3left.bmp,1.3.3right.bmp,,ACC032,"[2, -2, 2]","[-2, 2, 2]",[],non-match,0.18350341907227385,1,0.8656016116011234,-1.2723285757386213,1.3412055419426456,4th,1st,4th,1.3120402189510112,-1.169208969941906,1.2519945932953895
perc,resp,1052,1,3.3.2left.bmp,2.1.3right.bmp,,ACC032,"[2, 2, 0]","[0, -2, 2]",[],non-match,0.29289321881345254,1,0.4600358934149641,0.9418107842950395,1.1888693930906429,3rd,4th,4th,0.25469300897557456,1.297183065494471,1.2519945932953895
perc,resp,1112,1,1.3.2left.bmp,1.3.2right.bmp,,ACC032,"[-2, 2, 0]","[-2, 2, 0]",[],match,1.0,,0.24648779071241725,-0.30095362647188373,0.8230210555975233,3rd,2nd,4th,0.25469300897557456,-0.3716025052016505,1.2519945932953895
perc,resp,1057,1,1.3.3left.bmp,1.3.3right.bmp,,ACC032,"[-2, 2, 2]","[-2, 2, 2]",[],match,1.0,,-0.5034350036738773,-0.3986187351820087,1.1308926605024783,2nd,2nd,4th,-0.34239502946452954,-0.3716025052016505,1.2519945932953895
perc,resp,1106,1,3.2.2left.bmp,3.2.2right.bmp,,ACC032,"[2, 0, 0]","[2, 0, 0]",[],match,1.0,,0.4537818425862757,0.48627084850537167,1.0052921559693506,3rd,3rd,4th,0.25469300897557456,0.2436284096490861,1.2519945932953895
perc,resp,1529,1,2.3.1left.bmp,3.3.1right.bmp,,ACC032,"[0, 2, -2]","[2, 2, -2]",[],non-match,0.7113248654051871,4,-0.7931473756186099,1.0503302244116242,1.112275752107254,1st,4th,4th,-1.224338198462056,1.297183065494471,1.2519945932953895
perc,resp,1179,1,3.1.3left.bmp,1.3.2right.bmp,,ACC032,"[2, -2, 2]","[-2, 2, 0]",[],non-match,0.1339745962155613,1,0.30257649038607537,-1.326493303202274,1.3386925187305356,3rd,1st,4th,0.25469300897557456,-1.169208969941906,1.2519945932953895
perc,resp,836,1,3.2.1left.bmp,2.3.3right.bmp,,ACC032,"[2, 0, -2]","[0, 2, 2]",[],non-match,0.29289321881345254,1,-0.2372835769032784,-1.61633668945712,1.698845845975579,2nd,1st,4th,-0.34239502946452954,-1.169208969941906,1.2519945932953895
perc,resp,942,1,1.3.1left.bmp,1.3.1right.bmp,,ACC032,"[-2, 2, -2]","[-2, 2, -2]",[],match,1.0,,-0.9473757593847452,0.8030348630995767,1.6593460245562626,1st,4th,4th,-1.224338198462056,1.297183065494471,1.2519945932953895
perc,resp,1193,0,2.1.2left.bmp,3.1.2right.bmp,,ACC032,"[0, -2, 0]","[2, -2, 0]",[],non-match,0.7113248654051871,4,-0.3001619652372488,-0.6584554152398125,2.045540989992779,2nd,1st,4th,-0.34239502946452954,-1.169208969941906,1.2519945932953895
perc,resp,1050,1,2.2.3left.bmp,2.2.3right.bmp,,ACC032,"[0, 0, 2]","[0, 0, 2]",[],match,1.0,,-0.4718851918275151,-0.4510549486033264,1.8328330801821593,2nd,2nd,4th,-0.34239502946452954,-0.3716025052016505,1.2519945932953895
perc,resp,998,1,1.2.1left.bmp,1.2.1right.bmp,,ACC032,"[-2, 0, -2]","[-2, 0, -2]",[],match,1.0,,-0.24499255061024935,-0.7797817638997459,1.8837067542287227,2nd,1st,4th,-0.34239502946452954,-1.169208969941906,1.2519945932953895
perc,resp,1035,1,3.1.1left.bmp,3.1.1right.bmp,,ACC032,"[2, -2, -2]","[2, -2, -2]",[],match,1.0,,0.22653162080713038,1.441925774709049,1.74188371935817,3rd,4th,4th,0.25469300897557456,1.297183065494471,1.2519945932953895
perc,resp,1034,1,2.2.1left.bmp,1.1.2right.bmp,,ACC032,"[0, 0, -2]","[-2, -2, 0]",[],non-match,0.5,3,0.49047578749546156,-0.45755444197257655,1.777565518494086,3rd,2nd,4th,0.25469300897557456,-0.3716025052016505,1.2519945932953895
perc,resp,829,1,2.1.1left.bmp,1.1.1right.bmp,,ACC032,"[0, -2, -2]","[-2, -2, -2]",[],non-match,0.7113248654051871,4,-0.6068752992121078,0.8140891309466073,2.023528633493197,2nd,4th,4th,-0.34239502946452954,1.297183065494471,1.2519945932953895
perc,resp,1015,1,2.3.3left.bmp,2.3.3right.bmp,,ACC032,"[0, 2, 2]","[0, 2, 2]",[],match,1.0,,-0.7068080086607709,-0.5087080606079537,2.1385199854255816,1st,2nd,4th,-1.224338198462056,-0.3716025052016505,1.2519945932953895
perc,resp,1014,1,1.1.3left.bmp,1.3.1right.bmp,,ACC032,"[-2, -2, 2]","[-2, 2, -2]",[],non-match,0.18350341907227385,1,0.7056956122953386,-0.6854823306791656,1.9920450916346768,4th,1st,4th,1.3120402189510112,-1.169208969941906,1.2519945932953895
perc,resp,1033,1,1.1.2left.bmp,1.1.2right.bmp,,ACC032,"[-2, -2, 0]","[-2, -2, 0]",[],match,1.0,,-0.7926240943113235,0.5994665588179942,1.988042227447397,1st,3rd,4th,-1.224338198462056,0.2436284096490861,1.2519945932953895
perc,resp,1237,1,3.1.2left.bmp,3.1.2right.bmp,,ACC032,"[2, -2, 0]","[2, -2, 0]",[],match,1.0,,-1.0186149629846555,-0.6472784390795396,1.2517449670676317,1st,1st,4th,-1.224338198462056,-1.169208969941906,1.2519945932953895
perc,resp,919,1,1.2.2left.bmp,2.3.1right.bmp,,ACC032,"[-2, 0, 0]","[0, 2, -2]",[],non-match,0.5,3,1.3058385561478054,0.7803156834688769,1.003358254175438,4th,4th,4th,1.3120402189510112,1.297183065494471,1.2519945932953895
perc,resp,1058,1,3.2.3left.bmp,3.2.3right.bmp,,ACC032,"[2, 0, 2]","[2, 0, 2]",[],match,1.0,,-1.1696019048646416,-1.3261525718856062,1.4579166731991053,1st,1st,4th,-1.224338198462056,-1.169208969941906,1.2519945932953895
perc,resp,865,1,3.3.3left.bmp,1.3.3right.bmp,,ACC032,"[2, 2, 2]","[-2, 2, 2]",[],non-match,0.42264973081037416,2,1.7216984996362452,-0.5325871424593382,1.8457969124970153,4th,2nd,4th,1.3120402189510112,-0.3716025052016505,1.2519945932953895
perc,resp,1041,1,1.2.3left.bmp,1.2.1right.bmp,,ACC032,"[-2, 0, 2]","[-2, 0, -2]",[],non-match,0.42264973081037416,2,0.3572697216802055,1.1483758674750857,1.177301882306959,3rd,4th,4th,0.25469300897557456,1.297183065494471,1.2519945932953895
perc,resp,1149,0,1.1.1left.bmp,3.1.2right.bmp,,ACC032,"[-2, -2, -2]","[2, -2, 0]",[],non-match,0.3545027756320971,2,-0.7400051395087672,0.4456521921038974,0.803668253642468,1st,3rd,4th,-1.224338198462056,0.2436284096490861,1.2519945932953895
perc,resp,1147,1,1.3.2left.bmp,1.3.2right.bmp,,ACC032,"[-2, 2, 0]","[-2, 2, 0]",[],match,1.0,,-0.5278445306987168,0.8922844366329672,0.8831644798794831,2nd,4th,4th,-0.34239502946452954,1.297183065494471,1.2519945932953895
perc,resp,1035,1,3.3.1left.bmp,3.3.1right.bmp,,ACC032,"[2, 2, -2]","[2, 2, -2]",[],match,1.0,,0.049419617115674414,-1.2373908709836658,1.227119639022914,3rd,1st,4th,0.25469300897557456,-1.169208969941906,1.2519945932953895
perc,resp,970,1,3.3.2left.bmp,3.3.2right.bmp,,ACC032,"[2, 2, 0]","[2, 2, 0]",[],match,1.0,,-0.5772972675888501,-0.06936376390387324,1.4078260853644806,2nd,3rd,4th,-0.34239502946452954,0.2436284096490861,1.2519945932953895
perc,resp,929,1,2.3.2left.bmp,1.1.2right.bmp,,ACC032,"[0, 2, 0]","[-2, -2, 0]",[],non-match,0.3545027756320971,2,0.5098876943547805,-0.127748606115741,1.545094151088691,3rd,2nd,4th,0.25469300897557456,-0.3716025052016505,1.2519945932953895
perc,resp,1388,1,2.1.3left.bmp,3.2.1right.bmp,,ACC032,"[0, -2, 2]","[2, 0, -2]",[],non-match,0.29289321881345254,1,1.1827795020417349,0.15971990105085562,1.5513432862142535,4th,3rd,4th,1.3120402189510112,0.2436284096490861,1.2519945932953895
perc,resp,979,1,2.2.2left.bmp,2.2.2right.bmp,,ACC032,"[0, 0, 0]","[0, 0, 0]",[],match,1.0,,0.16762323289786069,-0.31552284497545396,1.6133660874434208,3rd,2nd,4th,0.25469300897557456,-0.3716025052016505,1.2519945932953895
perc,resp,934,1,3.3.3left.bmp,3.2.2right.bmp,,ACC032,"[2, 2, 2]","[2, 0, 0]",[],non-match,0.5917517095361369,3,0.5078578873494204,0.10869812456107265,1.8034038896604585,3rd,3rd,4th,0.25469300897557456,0.2436284096490861,1.2519945932953895
perc,resp,1215,0,2.3.3left.bmp,2.3.3right.bmp,,ACC032,"[0, 2, 2]","[0, 2, 2]",[],match,1.0,,0.42950094039422543,-0.6472133211540703,1.7918474226543442,3rd,1st,4th,0.25469300897557456,-1.169208969941906,1.2519945932953895
perc,resp,1012,1,1.3.1left.bmp,1.3.1right.bmp,,ACC032,"[-2, 2, -2]","[-2, 2, -2]",[],match,1.0,,-0.5909415909051492,-1.0643312995258478,1.8290170637909249,2nd,1st,4th,-0.34239502946452954,-1.169208969941906,1.2519945932953895
perc,resp,929,1,2.1.1left.bmp,1.1.3right.bmp,,ACC032,"[0, -2, -2]","[-2, -2, 2]",[],non-match,0.3545027756320971,2,-0.7673014474038362,0.056981294925335074,1.2676043862024196,1st,3rd,4th,-1.224338198462056,0.2436284096490861,1.2519945932953895
perc,resp,1046,1,1.2.2left.bmp,2.2.1right.bmp,,ACC032,"[-2, 0, 0]","[0, 0, -2]",[],non-match,0.5917517095361369,3,-1.9009897404548195,0.28149316182853973,1.1474885058922766,1st,3rd,4th,-1.224338198462056,0.2436284096490861,1.2519945932953895
perc,resp,763,1,1.3.2left.bmp,2.1.2right.bmp,,ACC032,"[-2, 2, 0]","[0, -2, 0]",[],non-match,0.3545027756320971,2,1.3025094538070328,0.6005475006328016,1.1206122517845767,4th,4th,4th,1.3120402189510112,1.297183065494471,1.2519945932953895
perc,resp,970,1,1.3.3left.bmp,1.3.3right.bmp,,ACC032,"[-2, 2, 2]","[-2, 2, 2]",[],match,1.0,,-0.4887146460221838,0.0058193298569474685,1.0150771750602374,2nd,3rd,4th,-0.34239502946452954,0.2436284096490861,1.2519945932953895
perc,resp,969,1,3.1.1left.bmp,3.1.1right.bmp,,ACC032,"[2, -2, -2]","[2, -2, -2]",[],match,1.0,,-0.5056829779279454,-0.2865089273000393,1.0395418794938331,2nd,2nd,4th,-0.34239502946452954,-0.3716025052016505,1.2519945932953895
perc,resp,986,0,2.2.1left.bmp,2.2.2right.bmp,,ACC032,"[0, 0, -2]","[0, 0, 0]",[],non-match,0.7113248654051871,4,-1.9850026540096786,-0.6385352512891848,0.3077086900891701,1st,1st,3rd,-1.224338198462056,-1.169208969941906,0.34822055411553754
perc,resp,1045,1,2.1.3left.bmp,3.1.2right.bmp,,ACC032,"[0, -2, 2]","[2, -2, 0]",[],non-match,0.5917517095361369,3,-0.1525321796766612,-0.9686564248339531,0.311601241031353,2nd,1st,3rd,-0.34239502946452954,-1.169208969941906,0.34822055411553754
perc,resp,1051,1,2.2.3left.bmp,2.3.2right.bmp,,ACC032,"[0, 0, 2]","[0, 2, 0]",[],non-match,0.5917517095361369,3,0.3313804741838418,0.18259328496842345,0.40775795536323034,3rd,3rd,3rd,0.25469300897557456,0.2436284096490861,0.34822055411553754
perc,resp,828,1,3.3.1left.bmp,3.3.1right.bmp,,ACC032,"[2, 2, -2]","[2, 2, -2]",[],match,1.0,,1.3967232598545878,0.5612973442853293,0.42332577815492717,4th,3rd,3rd,1.3120402189510112,0.2436284096490861,0.34822055411553754
perc,resp,1025,1,2.3.1left.bmp,2.3.1right.bmp,,ACC032,"[0, 2, -2]","[0, 2, -2]",[],match,1.0,,0.23770493023074302,0.33771845111284166,0.1892136766797568,3rd,3rd,3rd,0.25469300897557456,0.2436284096490861,0.34822055411553754
perc,resp,954,1,3.1.3left.bmp,3.1.3right.bmp,,ACC032,"[2, -2, 2]","[2, -2, 2]",[],match,1.0,,0.00018968938182257217,-1.1247336473321086,-0.005978227071539452,3rd,1st,2nd,0.25469300897557456,-1.169208969941906,-0.2461797222560862
perc,resp,1133,0,2.3.2left.bmp,2.3.3right.bmp,,ACC032,"[0, 2, 0]","[0, 2, 2]",[],non-match,0.7113248654051871,4,-0.45811577845195095,0.9248148640156167,0.12592556264292126,2nd,4th,3rd,-0.34239502946452954,1.297183065494471,0.34822055411553754
perc,resp,839,1,1.1.3left.bmp,1.2.1right.bmp,,ACC032,"[-2, -2, 2]","[-2, 0, -2]",[],non-match,0.3545027756320971,2,-1.8730627344741662,-0.7479689880241269,-0.021097851227970636,1st,1st,2nd,-1.224338198462056,-1.169208969941906,-0.2461797222560862
perc,resp,965,1,3.2.3left.bmp,3.2.3right.bmp,,ACC032,"[2, 0, 2]","[2, 0, 2]",[],match,1.0,,-0.803428517229125,-0.23808911193134433,0.15734079358989386,1st,2nd,3rd,-1.224338198462056,-0.3716025052016505,0.34822055411553754
perc,resp,1204,1,1.2.3left.bmp,2.2.3right.bmp,,ACC032,"[-2, 0, 2]","[0, 0, 2]",[],non-match,0.7113248654051871,4,0.8159461978925358,0.22739592949817847,-0.03145727752332212,4th,3rd,2nd,1.3120402189510112,0.2436284096490861,-0.2461797222560862
perc,resp,1145,0,2.2.2left.bmp,3.3.1right.bmp,,ACC032,"[0, 0, 0]","[2, 2, -2]",[],non-match,0.5,3,-0.9720199261428034,2.8724121725154412,-0.1514787548408118,1st,4th,2nd,-1.224338198462056,1.297183065494471,-0.2461797222560862
perc,resp,1094,0,1.2.1left.bmp,2.2.1right.bmp,,ACC032,"[-2, 0, -2]","[0, 0, -2]",[],non-match,0.7113248654051871,4,-1.3750642775137074,0.23054694417948293,0.38000791966797937,1st,3rd,3rd,-1.224338198462056,0.2436284096490861,0.34822055411553754
perc,resp,809,1,3.3.2left.bmp,2.1.1right.bmp,,ACC032,"[2, 2, 0]","[0, -2, -2]",[],non-match,0.29289321881345254,1,1.1704562951742146,-1.3709552577538267,0.520547527548225,4th,1st,3rd,1.3120402189510112,-1.169208969941906,0.34822055411553754
perc,resp,1028,1,3.2.1left.bmp,3.2.1right.bmp,,ACC032,"[2, 0, -2]","[2, 0, -2]",[],match,1.0,,0.40887475507084964,-0.6429339474696665,0.5803368127287751,3rd,1st,3rd,0.25469300897557456,-1.169208969941906,0.34822055411553754
perc,resp,885,1,3.2.2left.bmp,3.2.2right.bmp,,ACC032,"[2, 0, 0]","[2, 0, 0]",[],match,1.0,,-1.8095293539836077,-1.843699981340509,0.7718885346337448,1st,1st,4th,-1.224338198462056,-1.169208969941906,1.2519945932953895
perc,resp,1062,0,3.1.2left.bmp,3.1.3right.bmp,,ACC032,"[2, -2, 0]","[2, -2, 2]",[],non-match,0.7113248654051871,4,-1.0879681097133158,-0.9128067486571081,0.8488472420238906,1st,1st,4th,-1.224338198462056,-1.169208969941906,1.2519945932953895
perc,resp,1132,1,1.1.2left.bmp,1.1.2right.bmp,,ACC032,"[-2, -2, 0]","[-2, -2, 0]",[],match,1.0,,-1.6072565628042141,-1.6980963393606576,1.0430811994688696,1st,1st,4th,-1.224338198462056,-1.169208969941906,1.2519945932953895
perc,resp,878,1,2.1.2left.bmp,2.1.2right.bmp,,ACC032,"[0, -2, 0]","[0, -2, 0]",[],match,1.0,,-2.4483457620766247,0.8897729476961168,0.9374221499319557,1st,4th,4th,-1.224338198462056,1.297183065494471,1.2519945932953895
perc,resp,814,1,1.1.1left.bmp,3.2.1right.bmp,,ACC032,"[-2, -2, -2]","[2, 0, -2]",[],non-match,0.3545027756320971,2,0.5267975048362622,-0.7730128854680819,0.965177618341024,3rd,1st,4th,0.25469300897557456,-1.169208969941906,1.2519945932953895
perc,resp,841,0,1.2.3left.bmp,1.2.3right.bmp,,ACC032,"[-2, 0, 2]","[-2, 0, 2]",[],match,1.0,,2.0443111825906097,2.800502329309563,0.9693204474426941,4th,4th,4th,1.3120402189510112,1.297183065494471,1.2519945932953895
perc,resp,818,1,1.1.3left.bmp,1.1.3right.bmp,,ACC032,"[-2, -2, 2]","[-2, -2, 2]",[],match,1.0,,-1.5270140976557425,-2.03993072376465,0.5325819986669003,1st,1st,3rd,-1.224338198462056,-1.169208969941906,0.34822055411553754
perc,resp,842,1,2.1.2left.bmp,2.1.2right.bmp,,ACC032,"[0, -2, 0]","[0, -2, 0]",[],match,1.0,,-0.053690053113607174,-0.502444960268745,0.5192736232883061,2nd,2nd,3rd,-0.34239502946452954,-0.3716025052016505,0.34822055411553754
perc,resp,798,1,1.1.2left.bmp,3.2.2right.bmp,,ACC032,"[-2, -2, 0]","[2, 0, 0]",[],non-match,0.3545027756320971,2,-0.32489351615962575,-0.10023514087583042,0.5404248087035713,2nd,2nd,3rd,-0.34239502946452954,-0.3716025052016505,0.34822055411553754
perc,resp,1137,1,1.3.3left.bmp,1.3.3right.bmp,,ACC032,"[-2, 2, 2]","[-2, 2, 2]",[],match,1.0,,-0.14584257690327734,-0.09378854499428328,0.5251385784158069,2nd,3rd,3rd,-0.34239502946452954,0.2436284096490861,0.34822055411553754
perc,resp,924,1,1.2.1left.bmp,1.3.2right.bmp,,ACC032,"[-2, 0, -2]","[-2, 2, 0]",[],non-match,0.5917517095361369,3,0.0301934796456332,-1.2326246325389683,0.3994191857792773,3rd,1st,3rd,0.25469300897557456,-1.169208969941906,0.34822055411553754
perc,resp,969,0,2.1.3left.bmp,2.1.3right.bmp,,ACC032,"[0, -2, 2]","[0, -2, 2]",[],match,1.0,,-0.18427292189139619,0.8170304139395435,0.44447221480603716,2nd,4th,3rd,-0.34239502946452954,1.297183065494471,0.34822055411553754
perc,resp,1017,0,2.1.1left.bmp,1.1.1right.bmp,,ACC032,"[0, -2, -2]","[-2, -2, -2]",[],non-match,0.7113248654051871,4,-0.8451883135831335,-1.27825614479562,0.3137136901704471,1st,1st,3rd,-1.224338198462056,-1.169208969941906,0.34822055411553754
perc,resp,974,1,2.3.2left.bmp,2.3.2right.bmp,,ACC032,"[0, 2, 0]","[0, 2, 0]",[],match,1.0,,-1.2221409850554432,2.0397637004407585,-0.06090671098578446,1st,4th,2nd,-1.224338198462056,1.297183065494471,-0.2461797222560862
perc,resp,911,1,2.2.3left.bmp,3.1.1right.bmp,,ACC032,"[0, 0, 2]","[2, -2, -2]",[],non-match,0.29289321881345254,1,1.7751452079813332,-0.6383853934466774,0.03422553231684747,4th,1st,2nd,1.3120402189510112,-1.169208969941906,-0.2461797222560862
perc,resp,1594,0,3.3.3left.bmp,3.3.3right.bmp,,ACC032,"[2, 2, 2]","[2, 2, 2]",[],match,1.0,,-0.5568186912890779,0.5387259437628774,0.23396035621976705,2nd,3rd,3rd,-0.34239502946452954,0.2436284096490861,0.34822055411553754
perc,resp,941,1,3.1.3left.bmp,1.1.3right.bmp,,ACC032,"[2, -2, 2]","[-2, -2, 2]",[],non-match,0.42264973081037416,2,2.186193274825079,-0.4742826464761877,0.34444758524399494,4th,2nd,3rd,1.3120402189510112,-0.3716025052016505,0.34822055411553754
perc,resp,908,1,3.2.3left.bmp,3.2.3right.bmp,,ACC032,"[2, 0, 2]","[2, 0, 2]",[],match,1.0,,-0.3761100459003122,0.7444607930781706,0.7746453424562657,2nd,4th,4th,-0.34239502946452954,1.297183065494471,1.2519945932953895
perc,resp,944,1,3.2.2left.bmp,3.2.2right.bmp,,ACC032,"[2, 0, 0]","[2, 0, 0]",[],match,1.0,,-0.08291370019318643,-0.9266544298379021,0.5619497530610931,2nd,1st,3rd,-0.34239502946452954,-1.169208969941906,0.34822055411553754
perc,resp,801,0,3.3.1left.bmp,3.3.1right.bmp,,ACC032,"[2, 2, -2]","[2, 2, -2]",[],match,1.0,,0.44815035024732247,0.45040146996679803,0.22211828500544467,3rd,3rd,3rd,0.25469300897557456,0.2436284096490861,0.34822055411553754
perc,resp,927,1,2.3.1left.bmp,3.2.1right.bmp,,ACC032,"[0, 2, -2]","[2, 0, -2]",[],non-match,0.5917517095361369,3,0.06427060228653825,-1.502344873135666,0.4909761483985587,3rd,1st,3rd,0.25469300897557456,-1.169208969941906,0.34822055411553754
perc,resp,1064,1,2.2.2left.bmp,2.2.2right.bmp,,ACC032,"[0, 0, 0]","[0, 0, 0]",[],match,1.0,,-0.3970911111272338,-0.34522446148698205,0.5876245001729417,2nd,2nd,3rd,-0.34239502946452954,-0.3716025052016505,0.34822055411553754
perc,resp,1103,1,2.2.1left.bmp,2.2.1right.bmp,,ACC032,"[0, 0, -2]","[0, 0, -2]",[],match,1.0,,-1.2162440077245245,-1.5616780214658488,0.8055852668707232,1st,1st,4th,-1.224338198462056,-1.169208969941906,1.2519945932953895
perc,resp,920,1,1.2.2left.bmp,2.3.2right.bmp,,ACC032,"[-2, 0, 0]","[0, 2, 0]",[],non-match,0.5917517095361369,3,-1.2596697657136737,0.26168672983867153,0.4770510579121342,1st,3rd,3rd,-1.224338198462056,0.2436284096490861,0.34822055411553754
perc,resp,1099,1,1.3.2left.bmp,3.3.3right.bmp,,ACC032,"[-2, 2, 0]","[2, 2, 2]",[],non-match,0.3545027756320971,2,1.2883042139440442,0.052931605628590984,0.3453262980526581,4th,3rd,3rd,1.3120402189510112,0.2436284096490861,0.34822055411553754
perc,resp,1185,1,1.2.3left.bmp,3.2.3right.bmp,,ACC032,"[-2, 0, 2]","[2, 0, 2]",[],non-match,0.42264973081037416,2,0.12554319494564403,0.9140200599993086,0.05434647639307034,3rd,4th,2nd,0.25469300897557456,1.297183065494471,-0.2461797222560862
perc,resp,1344,0,2.3.1left.bmp,3.3.2right.bmp,,ACC032,"[0, 2, -2]","[2, 2, 0]",[],non-match,0.5917517095361369,3,-0.734022452835069,-0.49620316695569394,0.03533493171039318,1st,2nd,2nd,-1.224338198462056,-0.3716025052016505,-0.2461797222560862
perc,resp,801,1,1.1.1left.bmp,1.3.1right.bmp,,ACC032,"[-2, -2, -2]","[-2, 2, -2]",[],non-match,0.42264973081037416,2,0.25763163358151103,-0.8684288037097047,-0.30967959903557823,3rd,1st,2nd,0.25469300897557456,-1.169208969941906,-0.2461797222560862
perc,resp,1010,0,2.3.3left.bmp,2.3.3right.bmp,,ACC032,"[0, 2, 2]","[0, 2, 2]",[],match,1.0,,-0.5220843992468512,-1.991792261928346,-0.060592300194160294,2nd,1st,2nd,-0.34239502946452954,-1.169208969941906,-0.2461797222560862
perc,resp,1276,1,3.1.2left.bmp,3.1.2right.bmp,,ACC032,"[2, -2, 0]","[2, -2, 0]",[],match,1.0,,-2.886231281113521,-0.38390535960715727,-0.2076210741577192,1st,2nd,2nd,-1.224338198462056,-0.3716025052016505,-0.2461797222560862
perc,resp,894,1,2.2.3left.bmp,1.1.3right.bmp,,ACC032,"[0, 0, 2]","[-2, -2, 2]",[],non-match,0.5917517095361369,3,1.383990749279766,-0.15210878896424646,-0.1325997910101914,4th,2nd,2nd,1.3120402189510112,-0.3716025052016505,-0.2461797222560862
perc,resp,1092,1,3.1.1left.bmp,3.1.1right.bmp,,ACC032,"[2, -2, -2]","[2, -2, -2]",[],match,1.0,,-0.1963944624856559,1.5163832642294988,0.09991021050696999,2nd,4th,3rd,-0.34239502946452954,1.297183065494471,0.34822055411553754
perc,resp,1139,1,1.2.1left.bmp,1.2.1right.bmp,,ACC032,"[-2, 0, -2]","[-2, 0, -2]",[],match,1.0,,-0.6953824123226711,1.315162921789706,0.527642653724366,2nd,4th,3rd,-0.34239502946452954,1.297183065494471,0.34822055411553754
perc,resp,918,1,1.3.2left.bmp,1.1.1right.bmp,,ACC032,"[-2, 2, 0]","[-2, -2, -2]",[],non-match,0.3545027756320971,2,1.1801559475128778,-0.06947418878740218,0.33128074429846116,4th,3rd,3rd,1.3120402189510112,0.2436284096490861,0.34822055411553754
perc,resp,1157,1,3.2.1left.bmp,3.2.1right.bmp,,ACC032,"[2, 0, -2]","[2, 0, -2]",[],match,1.0,,-1.8724834081273198,-0.813543557867235,0.5299798860931398,1st,1st,3rd,-1.224338198462056,-1.169208969941906,0.34822055411553754
perc,resp,1154,1,3.1.3left.bmp,3.1.3right.bmp,,ACC032,"[2, -2, 2]","[2, -2, 2]",[],match,1.0,,-0.2723290040178152,0.1366418877926471,0.6802724708171141,2nd,3rd,4th,-0.34239502946452954,0.2436284096490861,1.2519945932953895
perc,resp,1184,1,2.1.3left.bmp,2.1.3right.bmp,,ACC032,"[0, -2, 2]","[0, -2, 2]",[],match,1.0,,0.484647160193567,-0.1197618571239356,0.6735162537719555,3rd,2nd,3rd,0.25469300897557456,-0.3716025052016505,0.34822055411553754
perc,resp,1051,1,1.1.3left.bmp,1.1.3right.bmp,,ACC032,"[-2, -2, 2]","[-2, -2, 2]",[],match,1.0,,-0.17909005329746544,-1.7521945362552114,0.3907256446653851,2nd,1st,3rd,-0.34239502946452954,-1.169208969941906,0.34822055411553754
perc,resp,1452,1,3.2.3left.bmp,3.2.2right.bmp,,ACC032,"[2, 0, 2]","[2, 0, 0]",[],non-match,0.7113248654051871,4,-0.9639914846233792,0.8293227885097691,0.7257820688433013,1st,4th,4th,-1.224338198462056,1.297183065494471,1.2519945932953895
perc,resp,1475,1,2.3.2left.bmp,3.2.1right.bmp,,ACC032,"[0, 2, 0]","[2, 0, -2]",[],non-match,0.5,3,-0.7333997502767401,0.4190103149421092,0.696146841723352,1st,3rd,4th,-1.224338198462056,0.2436284096490861,1.2519945932953895
perc,resp,1122,1,1.3.3left.bmp,1.3.3right.bmp,,ACC032,"[-2, 2, 2]","[-2, 2, 2]",[],match,1.0,,0.15829099962364077,-0.3146057137194702,0.7471137847708503,3rd,2nd,4th,0.25469300897557456,-0.3716025052016505,1.2519945932953895
perc,resp,1051,1,1.1.2left.bmp,1.1.2right.bmp,,ACC032,"[-2, -2, 0]","[-2, -2, 0]",[],match,1.0,,-2.41980726436739,2.8688900407769133,0.9230244426625165,1st,4th,4th,-1.224338198462056,1.297183065494471,1.2519945932953895
perc,resp,1776,1,1.2.2left.bmp,2.2.2right.bmp,,ACC032,"[-2, 0, 0]","[0, 0, 0]",[],non-match,0.7113248654051871,4,-0.04589249779373031,0.4239340175069445,0.8846419428217009,2nd,3rd,4th,-0.34239502946452954,0.2436284096490861,1.2519945932953895
perc,resp,1096,0,2.1.2left.bmp,3.1.2right.bmp,,ACC032,"[0, -2, 0]","[2, -2, 0]",[],non-match,0.7113248654051871,4,0.8353880754501666,-0.23170349225473502,0.4609258376380639,4th,2nd,3rd,1.3120402189510112,-0.3716025052016505,0.34822055411553754
perc,resp,963,1,3.2.2left.bmp,2.1.3right.bmp,,ACC032,"[2, 0, 0]","[0, -2, 2]",[],non-match,0.5,3,2.45949173023437,1.87228486856144,0.7015481870292627,4th,4th,4th,1.3120402189510112,1.297183065494471,1.2519945932953895
perc,resp,1032,1,3.3.1left.bmp,3.1.3right.bmp,,ACC032,"[2, 2, -2]","[2, -2, 2]",[],non-match,0.18350341907227385,1,1.7235541625937068,0.21622298482252952,0.0921430422464594,4th,3rd,2nd,1.3120402189510112,0.2436284096490861,-0.2461797222560862
perc,resp,1138,1,2.1.1left.bmp,2.1.1right.bmp,,ACC032,"[0, -2, -2]","[0, -2, -2]",[],match,1.0,,1.1053665448660352,-0.51829937197608,0.19764402385821353,4th,2nd,3rd,1.3120402189510112,-0.3716025052016505,0.34822055411553754
perc,resp,926,1,3.3.3left.bmp,3.1.1right.bmp,,ACC032,"[2, 2, 2]","[2, -2, -2]",[],non-match,0.18350341907227385,1,-0.07426084665673621,-0.44220938315070346,0.1243659611151876,2nd,2nd,3rd,-0.34239502946452954,-0.3716025052016505,0.34822055411553754
perc,resp,1257,1,2.2.1left.bmp,2.2.1right.bmp,,ACC032,"[0, 0, -2]","[0, 0, -2]",[],match,1.0,,-0.9953794457834311,-0.3957826802369535,-0.18688302199523388,1st,2nd,2nd,-1.224338198462056,-0.3716025052016505,-0.2461797222560862
perc,resp,1388,1,1.3.1left.bmp,1.3.1right.bmp,,ACC032,"[-2, 2, -2]","[-2, 2, -2]",[],match,1.0,,1.5253379893765135,0.19845254705569693,-0.4155735750999977,4th,3rd,2nd,1.3120402189510112,0.2436284096490861,-0.2461797222560862
perc,resp,934,1,3.3.2left.bmp,2.1.3right.bmp,,ACC032,"[2, 2, 0]","[0, -2, 2]",[],non-match,0.29289321881345254,1,0.235058315095379,-0.5786799723046774,-0.6928560663086072,3rd,2nd,2nd,0.25469300897557456,-0.3716025052016505,-0.2461797222560862
perc,resp,887,1,2.2.3left.bmp,1.1.2right.bmp,,ACC032,"[0, 0, 2]","[-2, -2, 0]",[],non-match,0.5,3,1.4766426506940564,-0.36174345398578955,-0.911642804960878,4th,2nd,1st,1.3120402189510112,-0.3716025052016505,-1.3540354251548414
perc,resp,933,1,1.1.1left.bmp,2.3.3right.bmp,,ACC032,"[-2, -2, -2]","[0, 2, 2]",[],non-match,0.1339745962155613,1,1.6956943385965257,-0.6545518987566618,-0.7585996352533755,4th,1st,2nd,1.3120402189510112,-1.169208969941906,-0.2461797222560862
perc,resp,1000,1,3.1.3left.bmp,2.2.1right.bmp,,ACC032,"[2, -2, 2]","[0, 0, -2]",[],non-match,0.29289321881345254,1,-0.7828880303917733,0.2118152492976177,-0.9140954695543793,1st,3rd,1st,-1.224338198462056,0.2436284096490861,-1.3540354251548414
perc,resp,1139,1,2.2.2left.bmp,1.2.1right.bmp,,ACC032,"[0, 0, 0]","[-2, 0, -2]",[],non-match,0.5917517095361369,3,-0.4023817828610729,-0.31207211460913503,-0.8413680611827858,2nd,2nd,1st,-0.34239502946452954,-0.3716025052016505,-1.3540354251548414
perc,resp,1250,1,2.1.1left.bmp,2.1.1right.bmp,,ACC032,"[0, -2, -2]","[0, -2, -2]",[],match,1.0,,-0.1952659204003879,-1.0224417525375067,-1.0362181554531809,2nd,1st,1st,-0.34239502946452954,-1.169208969941906,-1.3540354251548414
perc,resp,1027,1,1.2.3left.bmp,2.1.3right.bmp,,ACC032,"[-2, 0, 2]","[0, -2, 2]",[],non-match,0.5917517095361369,3,-0.24414871615970035,-0.8990282395241386,-1.146573199488119,2nd,1st,1st,-0.34239502946452954,-1.169208969941906,-1.3540354251548414
perc,resp,1527,1,2.2.1left.bmp,3.1.3right.bmp,,ACC032,"[0, 0, -2]","[2, -2, 2]",[],non-match,0.29289321881345254,1,-0.5768213965547705,-0.37847028841454766,-0.8080493914833295,2nd,2nd,1st,-0.34239502946452954,-0.3716025052016505,-1.3540354251548414
perc,resp,1106,1,1.1.3left.bmp,2.2.3right.bmp,,ACC032,"[-2, -2, 2]","[0, 0, 2]",[],non-match,0.5917517095361369,3,0.5613188673160167,1.874629554821973,-0.7590231491007016,3rd,4th,2nd,0.25469300897557456,1.297183065494471,-0.2461797222560862
perc,resp,963,1,3.3.1left.bmp,3.1.1right.bmp,,ACC032,"[2, 2, -2]","[2, -2, -2]",[],non-match,0.42264973081037416,2,0.8577879568151333,-0.8877048316927393,-0.8926878489839253,4th,1st,1st,1.3120402189510112,-1.169208969941906,-1.3540354251548414
perc,resp,1191,0,3.1.2left.bmp,3.2.2right.bmp,,ACC032,"[2, -2, 0]","[2, 0, 0]",[],non-match,0.7113248654051871,4,-1.398591131477185,-0.5678308692298398,-0.889241257264869,1st,2nd,1st,-1.224338198462056,-0.3716025052016505,-1.3540354251548414
perc,resp,1243,1,2.1.2left.bmp,2.1.2right.bmp,,ACC032,"[0, -2, 0]","[0, -2, 0]",[],match,1.0,,1.596848614212301,0.7565845382056081,-0.674118541556591,4th,4th,2nd,1.3120402189510112,1.297183065494471,-0.2461797222560862
perc,resp,1212,1,2.3.2left.bmp,2.3.2right.bmp,,ACC032,"[0, 2, 0]","[0, 2, 0]",[],match,1.0,,-1.175266746407278,0.15508826064944412,-0.9361945620202161,1st,3rd,1st,-1.224338198462056,0.2436284096490861,-1.3540354251548414
perc,resp,1200,1,1.3.3left.bmp,1.3.3right.bmp,,ACC032,"[-2, 2, 2]","[-2, 2, 2]",[],match,1.0,,-0.9425505124173299,-0.20618976937221742,-1.0296468236286649,1st,2nd,1st,-1.224338198462056,-0.3716025052016505,-1.3540354251548414
perc,resp,968,1,3.2.3left.bmp,3.2.3right.bmp,,ACC032,"[2, 0, 2]","[2, 0, 2]",[],match,1.0,,-1.4249429840679275,0.8743535268805155,-1.203859193835128,1st,4th,1st,-1.224338198462056,1.297183065494471,-1.3540354251548414
perc,resp,954,1,3.2.2left.bmp,3.3.3right.bmp,,ACC032,"[2, 0, 0]","[2, 2, 2]",[],non-match,0.5917517095361369,3,0.9599087643002545,0.5227933275530319,-1.7917724174146,4th,3rd,1st,1.3120402189510112,0.2436284096490861,-1.3540354251548414
perc,resp,861,1,3.1.1left.bmp,1.2.3right.bmp,,ACC032,"[2, -2, -2]","[-2, 0, 2]",[],non-match,0.1339745962155613,1,0.6454174775140242,-1.1449152632967934,-1.964281523926956,4th,1st,1st,1.3120402189510112,-1.169208969941906,-1.3540354251548414
perc,resp,1140,1,2.3.3left.bmp,2.3.3right.bmp,,ACC032,"[0, 2, 2]","[0, 2, 2]",[],match,1.0,,-0.7760612337909828,0.3763799477132641,-2.113273656272536,1st,3rd,1st,-1.224338198462056,0.2436284096490861,-1.3540354251548414
perc,resp,1007,1,1.2.2left.bmp,1.1.3right.bmp,,ACC032,"[-2, 0, 0]","[-2, -2, 2]",[],non-match,0.5917517095361369,3,-0.30415603958755644,-1.615825281459379,-2.3074734267840533,2nd,1st,1st,-0.34239502946452954,-1.169208969941906,-1.3540354251548414
perc,resp,873,1,3.3.3left.bmp,2.1.1right.bmp,,ACC032,"[2, 2, 2]","[0, -2, -2]",[],non-match,0.1339745962155613,1,1.746170944264176,-0.16164123435766792,-1.6917173288020648,4th,2nd,1st,1.3120402189510112,-0.3716025052016505,-1.3540354251548414
perc,resp,1110,1,1.2.1left.bmp,3.2.3right.bmp,,ACC032,"[-2, 0, -2]","[2, 0, 2]",[],non-match,0.18350341907227385,1,-0.18863437008699527,-0.34690417325637235,-1.6369839854105204,2nd,2nd,1st,-0.34239502946452954,-0.3716025052016505,-1.3540354251548414
perc,resp,1171,1,1.3.2left.bmp,1.3.2right.bmp,,ACC032,"[-2, 2, 0]","[-2, 2, 0]",[],match,1.0,,1.1544512934435462,0.37455777965516845,-1.8947647579469886,4th,3rd,1st,1.3120402189510112,0.2436284096490861,-1.3540354251548414
perc,resp,1027,1,3.2.1left.bmp,3.2.1right.bmp,,ACC032,"[2, 0, -2]","[2, 0, -2]",[],match,1.0,,0.052057472827553,0.19616867952023345,-1.7569909437605198,3rd,3rd,1st,0.25469300897557456,0.2436284096490861,-1.3540354251548414
perc,resp,1266,0,1.1.2left.bmp,2.1.2right.bmp,,ACC032,"[-2, -2, 0]","[0, -2, 0]",[],non-match,0.7113248654051871,4,-0.5886365363781005,-0.2629584271934963,-1.8733700509395874,2nd,2nd,1st,-0.34239502946452954,-0.3716025052016505,-1.3540354251548414
perc,resp,913,1,3.3.2left.bmp,1.3.3right.bmp,,ACC032,"[2, 2, 0]","[-2, 2, 2]",[],non-match,0.3545027756320971,2,1.708307784245984,-1.3077531398405002,-1.5929695872066936,4th,1st,1st,1.3120402189510112,-1.169208969941906,-1.3540354251548414
perc,resp,1232,1,2.3.1left.bmp,2.3.1right.bmp,,ACC032,"[0, 2, -2]","[0, 2, -2]",[],match,1.0,,-2.4055471728514277,-0.17937123129436686,-1.6509658116242656,1st,2nd,1st,-1.224338198462056,-0.3716025052016505,-1.3540354251548414
perc,resp,1403,1,1.3.1left.bmp,1.3.1right.bmp,,ACC032,"[-2, 2, -2]","[-2, 2, -2]",[],match,1.0,,-0.16136742045025199,-0.2842338313932306,-1.3679422152234435,2nd,2nd,1st,-0.34239502946452954,-0.3716025052016505,-1.3540354251548414
perc,resp,1112,1,2.1.3left.bmp,2.1.3right.bmp,,ACC032,"[0, -2, 2]","[0, -2, 2]",[],match,1.0,,0.20866394566001478,-0.43865685779762864,-1.4061292276441388,3rd,2nd,1st,0.25469300897557456,-0.3716025052016505,-1.3540354251548414
perc,resp,869,1,3.1.2left.bmp,1.2.3right.bmp,,ACC032,"[2, -2, 0]","[-2, 0, 2]",[],non-match,0.29289321881345254,1,1.4081353883648546,1.2044771886072003,-1.2161206993098341,4th,4th,1st,1.3120402189510112,1.297183065494471,-1.3540354251548414
perc,resp,1090,0,3.3.1left.bmp,3.2.2right.bmp,,ACC032,"[2, 2, -2]","[2, 0, 0]",[],non-match,0.5917517095361369,3,-0.9995894037459705,0.3981606103218893,-1.3439555301966792,1st,3rd,1st,-1.224338198462056,0.2436284096490861,-1.3540354251548414
perc,resp,1127,1,2.3.3left.bmp,2.3.3right.bmp,,ACC032,"[0, 2, 2]","[0, 2, 2]",[],match,1.0,,-0.900486825305266,-0.022949470403731496,-1.3210228360222582,1st,3rd,1st,-1.224338198462056,0.2436284096490861,-1.3540354251548414
perc,resp,1145,1,2.2.3left.bmp,2.2.3right.bmp,,ACC032,"[0, 0, 2]","[0, 0, 2]",[],match,1.0,,1.0581016233602496,0.3142020453977481,-1.2758911592591247,4th,3rd,1st,1.3120402189510112,0.2436284096490861,-1.3540354251548414
perc,resp,1124,1,2.2.2left.bmp,1.2.2right.bmp,,ACC032,"[0, 0, 0]","[-2, 0, 0]",[],non-match,0.7113248654051871,4,-1.0200006607426384,1.4076715726899076,-1.5077096852635352,1st,4th,1st,-1.224338198462056,1.297183065494471,-1.3540354251548414
perc,resp,1051,1,1.2.3left.bmp,1.2.3right.bmp,,ACC032,"[-2, 0, 2]","[-2, 0, 2]",[],match,1.0,,-0.5583659897606719,2.3719162068044652,-1.3875845437181775,2nd,4th,1st,-0.34239502946452954,1.297183065494471,-1.3540354251548414
perc,resp,918,1,3.1.3left.bmp,3.3.1right.bmp,,ACC032,"[2, -2, 2]","[2, 2, -2]",[],non-match,0.18350341907227385,1,0.053031114511387714,-0.49866053006187006,-1.1347964725192519,3rd,2nd,1st,0.25469300897557456,-0.3716025052016505,-1.3540354251548414
perc,resp,1097,1,3.1.1left.bmp,3.1.1right.bmp,,ACC032,"[2, -2, -2]","[2, -2, -2]",[],match,1.0,,-0.2631206508625693,-0.060481584381911445,-1.4328974530867247,2nd,3rd,1st,-0.34239502946452954,0.2436284096490861,-1.3540354251548414
perc,resp,864,1,3.2.1left.bmp,2.3.2right.bmp,,ACC032,"[2, 0, -2]","[0, 2, 0]",[],non-match,0.5,3,1.211167811521552,0.27373182951996805,-1.676692367275361,4th,3rd,1st,1.3120402189510112,0.2436284096490861,-1.3540354251548414
perc,resp,1444,0,1.3.2left.bmp,1.3.2right.bmp,,ACC032,"[-2, 2, 0]","[-2, 2, 0]",[],match,1.0,,-0.9395002488387771,-1.023652938077246,-1.609656088312568,1st,1st,1st,-1.224338198462056,-1.169208969941906,-1.3540354251548414
perc,resp,1224,1,1.3.1left.bmp,1.3.1right.bmp,,ACC032,"[-2, 2, -2]","[-2, 2, -2]",[],match,1.0,,-2.5990300354699647,-0.36953673895960376,-1.0417320441781404,1st,2nd,1st,-1.224338198462056,-0.3716025052016505,-1.3540354251548414
perc,resp,1485,1,1.2.2left.bmp,1.2.2right.bmp,,ACC032,"[-2, 0, 0]","[-2, 0, 0]",[],match,1.0,,0.5682579571083375,-0.5695714154722867,-1.5849572099097429,3rd,2nd,1st,0.25469300897557456,-0.3716025052016505,-1.3540354251548414
perc,resp,1356,1,3.2.3left.bmp,3.2.3right.bmp,,ACC032,"[2, 0, 2]","[2, 0, 2]",[],match,1.0,,-0.14765977386793988,-1.448101751455474,-1.8490701530636002,2nd,1st,1st,-0.34239502946452954,-1.169208969941906,-1.3540354251548414
perc,resp,993,1,1.1.2left.bmp,2.3.2right.bmp,,ACC032,"[-2, -2, 0]","[0, 2, 0]",[],non-match,0.3545027756320971,2,1.2186220890984485,-0.0002135664110365208,-1.7884197335619756,4th,3rd,1st,1.3120402189510112,0.2436284096490861,-1.3540354251548414
perc,resp,982,1,1.2.1left.bmp,1.3.3right.bmp,,ACC032,"[-2, 0, -2]","[-2, 2, 2]",[],non-match,0.3545027756320971,2,0.5846086874300643,0.15066915507805348,-1.8475791376641404,3rd,3rd,1st,0.25469300897557456,0.2436284096490861,-1.3540354251548414
perc,resp,1220,1,2.3.1left.bmp,2.3.1right.bmp,,ACC032,"[0, 2, -2]","[0, 2, -2]",[],match,1.0,,-1.6420082463530319,0.41191427208441606,-1.9671676440350214,1st,3rd,1st,-1.224338198462056,0.2436284096490861,-1.3540354251548414
perc,resp,937,1,3.3.2left.bmp,1.3.2right.bmp,,ACC032,"[2, 2, 0]","[-2, 2, 0]",[],non-match,0.42264973081037416,2,2.028433175080412,1.2846632288024962,-1.0943755877928445,4th,4th,1st,1.3120402189510112,1.297183065494471,-1.3540354251548414
