mode,type,rt,acc,item_1,item_2,item_cue,subj_idx,item_1_number,item_2_number,item_cue_number,trial_type,similarity,similarity_bin,ams,pams,slps,ams_quantile,pams_quantile,slps_quantile,ams_bin,pam_bin,slp_bin
perc,resp,0,0,1.2.3left.bmp,3.2.3right.bmp,,ACC016,"[-2, 0, 2]","[2, 0, 2]",[],non-match,0.42264973081037416,2,-1.8095394085283418,-3.479172347434495,-2.131140840650077,1st,1st,1st,-1.2387623334680449,-1.1645523291037159,-1.3323477208874048
perc,resp,0,0,2.3.1left.bmp,3.3.2right.bmp,,ACC016,"[0, 2, -2]","[2, 2, 0]",[],non-match,0.5917517095361369,3,-0.5906122420820152,0.0958569151379322,-2.389733788181302,2nd,3rd,1st,-0.290169773804454,0.25983222453343546,-1.3323477208874048
perc,resp,0,0,1.1.1left.bmp,1.3.1right.bmp,,ACC016,"[-2, -2, -2]","[-2, 2, -2]",[],non-match,0.42264973081037416,2,-0.09144756460746223,-0.8216447207319406,-2.302378210483837,2nd,1st,1st,-0.290169773804454,-1.1645523291037159,-1.3323477208874048
perc,resp,0,0,2.3.3left.bmp,2.3.3right.bmp,,ACC016,"[0, 2, 2]","[0, 2, 2]",[],match,1.0,,1.3395110851474505,-0.5008897152140726,-2.290601116702401,4th,2nd,1st,1.239593964840981,-0.358128510056424,-1.3323477208874048
perc,resp,0,0,3.1.2left.bmp,3.1.2right.bmp,,ACC016,"[2, -2, 0]","[2, -2, 0]",[],match,1.0,,-0.3240322563904565,-0.2028287740585038,-2.361389482018272,2nd,2nd,1st,-0.290169773804454,-0.358128510056424,-1.3323477208874048
perc,resp,2832,0,2.2.3left.bmp,1.1.3right.bmp,,ACC016,"[0, 0, 2]","[-2, -2, 2]",[],non-match,0.5917517095361369,3,2.5721353149836106,2.8431590327026828,-2.301323278991982,4th,4th,1st,1.239593964840981,1.2628486146267035,-1.3323477208874048
perc,resp,2403,1,3.1.1left.bmp,3.1.1right.bmp,,ACC016,"[2, -2, -2]","[2, -2, -2]",[],match,1.0,,4.689853455141137,4.333380503064657,-2.077787338030564,4th,4th,1st,1.239593964840981,1.2628486146267035,-1.3323477208874048
perc,resp,1652,1,1.2.1left.bmp,1.2.1right.bmp,,ACC016,"[-2, 0, -2]","[-2, 0, -2]",[],match,1.0,,2.5249601692283288,1.6749186958973488,-2.039475146397222,4th,4th,1st,1.239593964840981,1.2628486146267035,-1.3323477208874048
perc,resp,962,0,1.3.2left.bmp,1.1.1right.bmp,,ACC016,"[-2, 2, 0]","[-2, -2, -2]",[],non-match,0.3545027756320971,2,2.2591715952749225,0.8639971508185738,-1.8442396238713636,4th,4th,1st,1.239593964840981,1.2628486146267035,-1.3323477208874048
perc,resp,1617,1,3.2.1left.bmp,3.2.1right.bmp,,ACC016,"[2, 0, -2]","[2, 0, -2]",[],match,1.0,,1.3314336840512937,0.7731684152869932,-2.043587663582118,4th,4th,1st,1.239593964840981,1.2628486146267035,-1.3323477208874048
perc,resp,1160,0,3.1.3left.bmp,3.1.3right.bmp,,ACC016,"[2, -2, 2]","[2, -2, 2]",[],match,1.0,,0.14703802984994602,-0.5653911851899914,-2.226419684663343,3rd,2nd,1st,0.2893381424315178,-0.358128510056424,-1.3323477208874048
perc,resp,1101,1,2.1.3left.bmp,2.1.3right.bmp,,ACC016,"[0, -2, 2]","[0, -2, 2]",[],match,1.0,,0.00015148919847336964,0.3786314615504614,-1.9813443441340186,2nd,3rd,1st,-0.290169773804454,0.25983222453343546,-1.3323477208874048
perc,resp,808,1,1.1.3left.bmp,1.1.3right.bmp,,ACC016,"[-2, -2, 2]","[-2, -2, 2]",[],match,1.0,,0.9002273795657453,-0.3535500390318816,-1.9817107663686149,4th,2nd,1st,1.239593964840981,-0.358128510056424,-1.3323477208874048
perc,resp,699,0,3.2.3left.bmp,3.2.2right.bmp,,ACC016,"[2, 0, 2]","[2, 0, 0]",[],non-match,0.7113248654051871,4,1.0385354386949133,0.32540969649394264,-1.861000068217107,4th,3rd,1st,1.239593964840981,0.25983222453343546,-1.3323477208874048
perc,resp,998,1,2.3.2left.bmp,3.2.1right.bmp,,ACC016,"[0, 2, 0]","[2, 0, -2]",[],non-match,0.5,3,1.1702713947959285,-0.9122587873723693,-1.851345597438585,4th,1st,1st,1.239593964840981,-1.1645523291037159,-1.3323477208874048
perc,resp,989,1,1.3.3left.bmp,1.3.3right.bmp,,ACC016,"[-2, 2, 2]","[-2, 2, 2]",[],match,1.0,,-1.0517774595065432,0.47741272097997317,-1.9199745135355268,1st,3rd,1st,-1.2387623334680449,0.25983222453343546,-1.3323477208874048
perc,resp,920,1,1.1.2left.bmp,1.1.2right.bmp,,ACC016,"[-2, -2, 0]","[-2, -2, 0]",[],match,1.0,,-0.8664900497779215,-1.2140604362502743,-1.8309799334429055,1st,1st,1st,-1.2387623334680449,-1.1645523291037159,-1.3323477208874048
perc,resp,792,0,1.2.2left.bmp,2.2.2right.bmp,,ACC016,"[-2, 0, 0]","[0, 0, 0]",[],non-match,0.7113248654051871,4,0.2611394477109427,0.5299989599858796,-1.8496302155341364,3rd,3rd,1st,0.2893381424315178,0.25983222453343546,-1.3323477208874048
perc,resp,1170,1,2.1.2left.bmp,3.1.2right.bmp,,ACC016,"[0, -2, 0]","[2, -2, 0]",[],non-match,0.7113248654051871,4,-0.1707803713043955,-1.1486119663318533,-1.7353096478020302,2nd,1st,1st,-0.290169773804454,-1.1645523291037159,-1.3323477208874048
perc,resp,1605,1,3.2.2left.bmp,2.1.3right.bmp,,ACC016,"[2, 0, 0]","[0, -2, 2]",[],non-match,0.5,3,-0.8436561229625986,-0.987250864286189,-1.796686842119898,1st,1st,1st,-1.2387623334680449,-1.1645523291037159,-1.3323477208874048
perc,resp,1882,0,3.3.1left.bmp,3.1.3right.bmp,,ACC016,"[2, 2, -2]","[2, -2, 2]",[],non-match,0.18350341907227385,1,0.2551337106480855,-0.30181460387822384,-1.7049864344262242,3rd,2nd,1st,0.2893381424315178,-0.358128510056424,-1.3323477208874048
perc,resp,1126,0,2.1.1left.bmp,2.1.1right.bmp,,ACC016,"[0, -2, -2]","[0, -2, -2]",[],match,1.0,,-0.7145153077987173,-1.6573697402315004,-1.8116947815261057,1st,1st,1st,-1.2387623334680449,-1.1645523291037159,-1.3323477208874048
perc,resp,1661,1,3.3.3left.bmp,3.1.1right.bmp,,ACC016,"[2, 2, 2]","[2, -2, -2]",[],non-match,0.18350341907227385,1,-0.1455936594711987,-0.4267580229324523,-1.8053543241883347,2nd,2nd,1st,-0.290169773804454,-0.358128510056424,-1.3323477208874048
perc,resp,2525,0,2.2.1left.bmp,2.2.1right.bmp,,ACC016,"[0, 0, -2]","[0, 0, -2]",[],match,1.0,,-0.5342638434142031,0.1588592298500488,-1.6432352411196292,2nd,3rd,1st,-0.290169773804454,0.25983222453343546,-1.3323477208874048
perc,resp,1178,1,1.3.1left.bmp,1.3.1right.bmp,,ACC016,"[-2, 2, -2]","[-2, 2, -2]",[],match,1.0,,-1.4733500806614337,0.4585223056813093,-1.7267446864860765,1st,3rd,1st,-1.2387623334680449,0.25983222453343546,-1.3323477208874048
perc,resp,1088,0,2.2.2left.bmp,2.3.1right.bmp,,ACC016,"[0, 0, 0]","[0, 2, -2]",[],non-match,0.5917517095361369,3,0.7445897086957053,0.39300299623486257,-1.5855564353053988,4th,3rd,1st,1.239593964840981,0.25983222453343546,-1.3323477208874048
perc,resp,947,1,3.3.2left.bmp,2.1.3right.bmp,,ACC016,"[2, 2, 0]","[0, -2, 2]",[],non-match,0.29289321881345254,1,-0.3317759553956737,0.12725928191558294,-1.139742921338587,2nd,3rd,1st,-0.290169773804454,0.25983222453343546,-1.3323477208874048
perc,resp,996,1,2.2.3left.bmp,1.1.2right.bmp,,ACC016,"[0, 0, 2]","[-2, -2, 0]",[],non-match,0.5,3,-0.7562882818471242,-1.7101281714284693,-0.9078117296279428,1st,1st,1st,-1.2387623334680449,-1.1645523291037159,-1.3323477208874048
perc,resp,1437,1,1.1.1left.bmp,2.3.3right.bmp,,ACC016,"[-2, -2, -2]","[0, 2, 2]",[],non-match,0.1339745962155613,1,0.07907587468037337,-0.03943595834392806,-0.875073776338137,3rd,3rd,1st,0.2893381424315178,0.25983222453343546,-1.3323477208874048
perc,resp,1036,1,3.1.3left.bmp,2.2.1right.bmp,,ACC016,"[2, -2, 2]","[0, 0, -2]",[],non-match,0.29289321881345254,1,0.3662235798533957,-0.617859172014741,-0.7701477044418381,3rd,2nd,1st,0.2893381424315178,-0.358128510056424,-1.3323477208874048
perc,resp,1071,0,2.2.2left.bmp,1.2.1right.bmp,,ACC016,"[0, 0, 0]","[-2, 0, -2]",[],non-match,0.5917517095361369,3,0.14765410342969285,-1.4811733519811383,-0.7139351082415981,3rd,1st,1st,0.2893381424315178,-1.1645523291037159,-1.3323477208874048
perc,resp,800,0,2.1.1left.bmp,2.1.1right.bmp,,ACC016,"[0, -2, -2]","[0, -2, -2]",[],match,1.0,,0.2265578095319925,-0.23474632028886877,-0.6455491959513264,3rd,2nd,2nd,0.2893381424315178,-0.358128510056424,-0.29501945791896556
perc,resp,1600,1,1.2.3left.bmp,2.1.3right.bmp,,ACC016,"[-2, 0, 2]","[0, -2, 2]",[],non-match,0.5917517095361369,3,-0.22909493028873482,-0.4689997023273797,-0.7001133440625377,2nd,2nd,1st,-0.290169773804454,-0.358128510056424,-1.3323477208874048
perc,resp,1361,1,2.2.1left.bmp,3.1.3right.bmp,,ACC016,"[0, 0, -2]","[2, -2, 2]",[],non-match,0.29289321881345254,1,-1.732009464258442,-1.6137884842438053,-0.8133826243244322,1st,1st,1st,-1.2387623334680449,-1.1645523291037159,-1.3323477208874048
perc,resp,1467,1,1.1.3left.bmp,2.2.3right.bmp,,ACC016,"[-2, -2, 2]","[0, 0, 2]",[],non-match,0.5917517095361369,3,-1.215836856488097,-1.0837649705424255,-0.6985330032174761,1st,1st,1st,-1.2387623334680449,-1.1645523291037159,-1.3323477208874048
perc,resp,1176,0,3.3.1left.bmp,3.1.1right.bmp,,ACC016,"[2, 2, -2]","[2, -2, -2]",[],non-match,0.42264973081037416,2,0.9945752531575569,-0.6698679167866987,-0.5503327275721287,4th,1st,2nd,1.239593964840981,-1.1645523291037159,-0.29501945791896556
perc,resp,853,1,3.1.2left.bmp,3.2.2right.bmp,,ACC016,"[2, -2, 0]","[2, 0, 0]",[],non-match,0.7113248654051871,4,1.3876783271490551,2.053961907633493,-0.6145181707493301,4th,4th,2nd,1.239593964840981,1.2628486146267035,-0.29501945791896556
perc,resp,2866,1,2.1.2left.bmp,2.1.2right.bmp,,ACC016,"[0, -2, 0]","[0, -2, 0]",[],match,1.0,,-1.1477406870247449,-0.2900560541066479,-0.42535899210692457,1st,2nd,2nd,-1.2387623334680449,-0.358128510056424,-0.29501945791896556
perc,resp,978,1,2.3.2left.bmp,2.3.2right.bmp,,ACC016,"[0, 2, 0]","[0, 2, 0]",[],match,1.0,,0.4551151398333396,-0.5072253964535818,-0.2367086029317004,3rd,2nd,2nd,0.2893381424315178,-0.358128510056424,-0.29501945791896556
perc,resp,1045,1,1.3.3left.bmp,1.3.3right.bmp,,ACC016,"[-2, 2, 2]","[-2, 2, 2]",[],match,1.0,,-1.6734406003652473,0.8030828519332625,-0.3038519911814671,1st,4th,2nd,-1.2387623334680449,1.2628486146267035,-0.29501945791896556
perc,resp,852,1,3.2.3left.bmp,3.2.3right.bmp,,ACC016,"[2, 0, 2]","[2, 0, 2]",[],match,1.0,,-0.5010736091601533,1.4970239268738998,-0.25834293363422955,2nd,4th,2nd,-0.290169773804454,1.2628486146267035,-0.29501945791896556
perc,resp,871,0,3.2.2left.bmp,3.3.3right.bmp,,ACC016,"[2, 0, 0]","[2, 2, 2]",[],non-match,0.5917517095361369,3,-1.197125069438553,-1.274469151170805,-0.3987017565911799,1st,1st,2nd,-1.2387623334680449,-1.1645523291037159,-0.29501945791896556
perc,resp,850,1,3.1.1left.bmp,1.2.3right.bmp,,ACC016,"[2, -2, -2]","[-2, 0, 2]",[],non-match,0.1339745962155613,1,0.14580984996546575,0.2218897368234642,-0.42929508080964296,3rd,3rd,2nd,0.2893381424315178,0.25983222453343546,-0.29501945791896556
perc,resp,554,0,2.3.3left.bmp,2.3.3right.bmp,,ACC016,"[0, 2, 2]","[0, 2, 2]",[],match,1.0,,0.6017931740765169,-0.051407973893668135,-0.38005698493414536,3rd,3rd,2nd,0.2893381424315178,0.25983222453343546,-0.29501945791896556
perc,resp,819,0,1.2.2left.bmp,1.1.3right.bmp,,ACC016,"[-2, 0, 0]","[-2, -2, 2]",[],non-match,0.5917517095361369,3,1.482066502888791,0.7317146837093155,-0.2705871591229593,4th,4th,2nd,1.239593964840981,1.2628486146267035,-0.29501945791896556
perc,resp,1007,1,3.3.3left.bmp,2.1.1right.bmp,,ACC016,"[2, 2, 2]","[0, -2, -2]",[],non-match,0.1339745962155613,1,0.3926880085711769,0.7098149916111228,-0.08074528119920318,3rd,4th,2nd,0.2893381424315178,1.2628486146267035,-0.29501945791896556
perc,resp,1075,1,1.2.1left.bmp,3.2.3right.bmp,,ACC016,"[-2, 0, -2]","[2, 0, 2]",[],non-match,0.18350341907227385,1,0.06035999536984993,-0.20382235124071849,-0.1431411398944215,3rd,2nd,2nd,0.2893381424315178,-0.358128510056424,-0.29501945791896556
perc,resp,795,0,1.3.2left.bmp,1.3.2right.bmp,,ACC016,"[-2, 2, 0]","[-2, 2, 0]",[],match,1.0,,0.027187072369360132,-0.30281714704671137,-0.24906868361066878,3rd,2nd,2nd,0.2893381424315178,-0.358128510056424,-0.29501945791896556
perc,resp,1151,1,3.2.1left.bmp,3.2.1right.bmp,,ACC016,"[2, 0, -2]","[2, 0, -2]",[],match,1.0,,-2.574485034367466,-2.594904492819161,-0.035464909499250345,1st,1st,2nd,-1.2387623334680449,-1.1645523291037159,-0.29501945791896556
perc,resp,1032,1,1.1.2left.bmp,2.1.2right.bmp,,ACC016,"[-2, -2, 0]","[0, -2, 0]",[],non-match,0.7113248654051871,4,0.5327933937178077,1.4412210402783443,-0.2842845332815989,3rd,4th,2nd,0.2893381424315178,1.2628486146267035,-0.29501945791896556
perc,resp,1262,0,3.3.2left.bmp,1.3.3right.bmp,,ACC016,"[2, 2, 0]","[-2, 2, 2]",[],non-match,0.3545027756320971,2,-0.7772373989004338,-0.6714913486213846,-0.5307183570081976,1st,1st,2nd,-1.2387623334680449,-1.1645523291037159,-0.29501945791896556
perc,resp,1350,0,2.3.1left.bmp,2.3.1right.bmp,,ACC016,"[0, 2, -2]","[0, 2, -2]",[],match,1.0,,-0.7144214533719678,0.09871435849013234,-0.5526671699638829,1st,3rd,2nd,-1.2387623334680449,0.25983222453343546,-0.29501945791896556
perc,resp,1111,1,1.3.1left.bmp,1.3.1right.bmp,,ACC016,"[-2, 2, -2]","[-2, 2, -2]",[],match,1.0,,0.2309952896150717,-0.5262050597914573,-0.6111050631022731,3rd,2nd,2nd,0.2893381424315178,-0.358128510056424,-0.29501945791896556
perc,resp,1110,0,2.1.3left.bmp,2.1.3right.bmp,,ACC016,"[0, -2, 2]","[0, -2, 2]",[],match,1.0,,0.422834954212458,-0.8724317145607884,-0.6281181589231943,3rd,1st,2nd,0.2893381424315178,-1.1645523291037159,-0.29501945791896556
perc,resp,1341,1,3.1.2left.bmp,1.2.3right.bmp,,ACC016,"[2, -2, 0]","[-2, 0, 2]",[],non-match,0.29289321881345254,1,-0.723357211731328,-0.5155443962156241,-0.658437512824599,1st,2nd,1st,-1.2387623334680449,-0.358128510056424,-1.3323477208874048
perc,resp,778,1,3.3.1left.bmp,3.2.2right.bmp,,ACC016,"[2, 2, -2]","[2, 0, 0]",[],non-match,0.5917517095361369,3,0.5822343643329339,0.04672495765706218,-0.5830244684264041,3rd,3rd,2nd,0.2893381424315178,0.25983222453343546,-0.29501945791896556
perc,resp,1986,1,2.3.3left.bmp,2.3.3right.bmp,,ACC016,"[0, 2, 2]","[0, 2, 2]",[],match,1.0,,-0.28779846234842577,-1.5909658765248325,-0.6874125516733015,2nd,1st,1st,-0.290169773804454,-1.1645523291037159,-1.3323477208874048
perc,resp,1174,0,2.2.3left.bmp,2.2.3right.bmp,,ACC016,"[0, 0, 2]","[0, 0, 2]",[],match,1.0,,0.8804347376594552,-0.3850187682276148,-0.7582148391264083,4th,2nd,1st,1.239593964840981,-0.358128510056424,-1.3323477208874048
perc,resp,1708,1,2.2.2left.bmp,1.2.2right.bmp,,ACC016,"[0, 0, 0]","[-2, 0, 0]",[],non-match,0.7113248654051871,4,-0.6226500072077203,-1.902000471857691,-0.7542315043251253,2nd,1st,1st,-0.290169773804454,-1.1645523291037159,-1.3323477208874048
perc,resp,1037,0,1.2.3left.bmp,1.2.3right.bmp,,ACC016,"[-2, 0, 2]","[-2, 0, 2]",[],match,1.0,,-0.00805178152478029,-1.1431017478257466,-0.7046950726788674,2nd,1st,1st,-0.290169773804454,-1.1645523291037159,-1.3323477208874048
perc,resp,1873,0,3.1.3left.bmp,3.3.1right.bmp,,ACC016,"[2, -2, 2]","[2, 2, -2]",[],non-match,0.18350341907227385,1,-0.3119285796736311,-1.02626928485323,-0.6584100973671103,2nd,1st,1st,-0.290169773804454,-1.1645523291037159,-1.3323477208874048
perc,resp,1308,1,1.1.2left.bmp,1.1.2right.bmp,,ACC016,"[-2, -2, 0]","[-2, -2, 0]",[],match,1.0,,0.4276623405591197,0.7431053927159831,-0.4305917080441119,3rd,4th,2nd,0.2893381424315178,1.2628486146267035,-0.29501945791896556
perc,resp,987,0,2.1.3left.bmp,2.3.3right.bmp,,ACC016,"[0, -2, 2]","[0, 2, 2]",[],non-match,0.42264973081037416,2,0.009963159509532466,-0.522232574852457,-0.6275699355194373,3rd,2nd,2nd,0.2893381424315178,-0.358128510056424,-0.29501945791896556
perc,resp,674,0,2.2.3left.bmp,3.1.3right.bmp,,ACC016,"[0, 0, 2]","[2, -2, 2]",[],non-match,0.5917517095361369,3,0.7772813905475316,-1.2965827899981972,-0.45446810116209035,4th,1st,2nd,1.239593964840981,-1.1645523291037159,-0.29501945791896556
perc,resp,1242,1,2.2.2left.bmp,2.2.2right.bmp,,ACC016,"[0, 0, 0]","[0, 0, 0]",[],match,1.0,,-1.2178213640960682,-0.9813529279119121,-0.49132943583183375,1st,1st,2nd,-1.2387623334680449,-1.1645523291037159,-0.29501945791896556
perc,resp,759,1,3.3.1left.bmp,1.1.2right.bmp,,ACC016,"[2, 2, -2]","[-2, -2, 0]",[],non-match,0.1339745962155613,1,1.4433847167353073,0.2594395226616678,-0.5705792968557333,4th,3rd,2nd,1.239593964840981,0.25983222453343546,-0.29501945791896556
perc,resp,2176,1,3.2.1left.bmp,3.2.1right.bmp,,ACC016,"[2, 0, -2]","[2, 0, -2]",[],match,1.0,,-1.211187173590631,-0.9757161303002252,-0.542322142306092,1st,1st,2nd,-1.2387623334680449,-1.1645523291037159,-0.29501945791896556
perc,resp,943,0,2.3.2left.bmp,2.1.1right.bmp,,ACC016,"[0, 2, 0]","[0, -2, -2]",[],non-match,0.3545027756320971,2,0.14088855996580713,-1.390501688880335,-0.5112004792576484,3rd,1st,2nd,0.2893381424315178,-1.1645523291037159,-0.29501945791896556
perc,resp,741,1,2.2.1left.bmp,2.2.1right.bmp,,ACC016,"[0, 0, -2]","[0, 0, -2]",[],match,1.0,,0.9912584514151381,-0.3858864450776525,-0.47485783156636985,4th,2nd,2nd,1.239593964840981,-0.358128510056424,-0.29501945791896556
perc,resp,1865,0,1.3.1left.bmp,1.2.3right.bmp,,ACC016,"[-2, 2, -2]","[-2, 0, 2]",[],non-match,0.3545027756320971,2,-1.3676899129010363,-0.4385318690060684,-0.56729047976582,1st,2nd,2nd,-1.2387623334680449,-0.358128510056424,-0.29501945791896556
perc,resp,679,0,1.3.2left.bmp,2.1.2right.bmp,,ACC016,"[-2, 2, 0]","[0, -2, 0]",[],non-match,0.3545027756320971,2,1.002978315823327,0.5349208393269711,-0.5270873710119457,4th,3rd,2nd,1.239593964840981,0.25983222453343546,-0.29501945791896556
perc,resp,1581,1,1.1.3left.bmp,3.2.3right.bmp,,ACC016,"[-2, -2, 2]","[2, 0, 2]",[],non-match,0.3545027756320971,2,-0.18796794277004955,-0.5726867211489097,-0.761935276870596,2nd,2nd,1st,-0.290169773804454,-0.358128510056424,-1.3323477208874048
perc,resp,2553,0,1.1.1left.bmp,1.1.1right.bmp,,ACC016,"[-2, -2, -2]","[-2, -2, -2]",[],match,1.0,,0.3298779842917217,-0.7876856359001999,-0.8475187590814208,3rd,1st,1st,0.2893381424315178,-1.1645523291037159,-1.3323477208874048
perc,resp,1003,1,3.3.2left.bmp,3.3.2right.bmp,,ACC016,"[2, 2, 0]","[2, 2, 0]",[],match,1.0,,-0.013348962577581775,1.5650772217163273,-0.7507747323677204,2nd,4th,1st,-0.290169773804454,1.2628486146267035,-1.3323477208874048
perc,resp,1019,1,3.1.2left.bmp,1.3.3right.bmp,,ACC016,"[2, -2, 0]","[-2, 2, 2]",[],non-match,0.1339745962155613,1,0.18946890560455176,-0.24343544349473945,-0.8259214604517598,3rd,2nd,1st,0.2893381424315178,-0.358128510056424,-1.3323477208874048
perc,resp,1310,1,3.2.2left.bmp,3.3.3right.bmp,,ACC016,"[2, 0, 0]","[2, 2, 2]",[],non-match,0.5917517095361369,3,-0.7057409753190546,-1.5645668021850836,-0.7263022345225492,1st,1st,1st,-1.2387623334680449,-1.1645523291037159,-1.3323477208874048
perc,resp,1461,0,3.2.3left.bmp,3.2.3right.bmp,,ACC016,"[2, 0, 2]","[2, 0, 2]",[],match,1.0,,-1.0746383163471251,0.1403690128783014,-0.7596052547775596,1st,3rd,1st,-1.2387623334680449,0.25983222453343546,-1.3323477208874048
perc,resp,1160,0,1.2.2left.bmp,1.2.2right.bmp,,ACC016,"[-2, 0, 0]","[-2, 0, 0]",[],match,1.0,,-0.05148329367175858,-1.405436381927917,-0.9663368252538476,2nd,1st,1st,-0.290169773804454,-1.1645523291037159,-1.3323477208874048
perc,resp,1301,0,2.1.2left.bmp,2.1.2right.bmp,,ACC016,"[0, -2, 0]","[0, -2, 0]",[],match,1.0,,0.6955411413541324,1.4036835385473179,-1.1085206884669239,4th,4th,1st,1.239593964840981,1.2628486146267035,-1.3323477208874048
perc,resp,1138,1,2.3.1left.bmp,1.2.3right.bmp,,ACC016,"[0, 2, -2]","[-2, 0, 2]",[],non-match,0.29289321881345254,1,-1.737246524811932,-0.15471729171866702,-1.1290770917858446,1st,2nd,1st,-1.2387623334680449,-0.358128510056424,-1.3323477208874048
perc,resp,1279,1,1.3.3left.bmp,3.3.2right.bmp,,ACC016,"[-2, 2, 2]","[2, 2, 0]",[],non-match,0.3545027756320971,2,0.5541674130773543,1.1982010651473223,-1.2714433418851978,3rd,4th,1st,0.2893381424315178,1.2628486146267035,-1.3323477208874048
perc,resp,1230,0,3.1.1left.bmp,3.2.1right.bmp,,ACC016,"[2, -2, -2]","[2, 0, -2]",[],non-match,0.7113248654051871,4,-1.0568834461574859,-0.9063226602501332,-1.257587765416239,1st,1st,1st,-1.2387623334680449,-1.1645523291037159,-1.3323477208874048
perc,resp,1591,1,1.2.1left.bmp,1.2.1right.bmp,,ACC016,"[-2, 0, -2]","[-2, 0, -2]",[],match,1.0,,0.7602803764684228,0.8760745931885291,-1.23963158570087,4th,4th,1st,1.239593964840981,1.2628486146267035,-1.3323477208874048
perc,resp,2591,1,3.1.3left.bmp,2.3.1right.bmp,,ACC016,"[2, -2, 2]","[0, 2, -2]",[],non-match,0.1339745962155613,1,0.7558277521534382,1.191523546856373,-1.1430718070783192,4th,4th,1st,1.239593964840981,1.2628486146267035,-1.3323477208874048
perc,resp,1842,1,2.1.1left.bmp,2.1.1right.bmp,,ACC016,"[0, -2, -2]","[0, -2, -2]",[],match,1.0,,-0.6308273825928259,1.341587517964697,-1.1279744056762466,2nd,4th,1st,-0.290169773804454,1.2628486146267035,-1.3323477208874048
perc,resp,2353,1,1.2.3left.bmp,1.2.3right.bmp,,ACC016,"[-2, 0, 2]","[-2, 0, 2]",[],match,1.0,,-0.33689297473015145,-0.3642413128613746,-1.1232431786404926,2nd,2nd,1st,-0.290169773804454,-0.358128510056424,-1.3323477208874048
perc,resp,1131,1,2.3.3left.bmp,2.3.3right.bmp,,ACC016,"[0, 2, 2]","[0, 2, 2]",[],match,1.0,,0.6595489491570422,-0.202514540949053,-1.2299958985146107,4th,2nd,1st,1.239593964840981,-0.358128510056424,-1.3323477208874048
perc,resp,1120,1,1.2.1left.bmp,1.1.3right.bmp,,ACC016,"[-2, 0, -2]","[-2, -2, 2]",[],non-match,0.3545027756320971,2,0.8360551542238348,-0.2687783802477274,-0.9976275744188818,4th,2nd,1st,1.239593964840981,-0.358128510056424,-1.3323477208874048
perc,resp,957,0,1.2.3left.bmp,1.2.3right.bmp,,ACC016,"[-2, 0, 2]","[-2, 0, 2]",[],match,1.0,,-1.3747299440640253,-0.0923077204769946,-1.111849597971462,1st,2nd,1st,-1.2387623334680449,-0.358128510056424,-1.3323477208874048
perc,resp,1146,0,2.3.1left.bmp,2.3.1right.bmp,,ACC016,"[0, 2, -2]","[0, 2, -2]",[],match,1.0,,0.8317889549715672,0.14450576833482737,-1.2482046600652257,4th,3rd,1st,1.239593964840981,0.25983222453343546,-1.3323477208874048
perc,resp,1619,0,2.1.3left.bmp,2.1.3right.bmp,,ACC016,"[0, -2, 2]","[0, -2, 2]",[],match,1.0,,0.2333012535833507,-0.08307634336379847,-0.9086910047261891,3rd,2nd,1st,0.2893381424315178,-0.358128510056424,-1.3323477208874048
perc,resp,1080,1,3.1.1left.bmp,3.1.1right.bmp,,ACC016,"[2, -2, -2]","[2, -2, -2]",[],match,1.0,,0.6668035452820588,-0.4597711138477097,-0.774803593443946,4th,2nd,1st,1.239593964840981,-0.358128510056424,-1.3323477208874048
perc,resp,855,1,2.1.1left.bmp,2.1.1right.bmp,,ACC016,"[0, -2, -2]","[0, -2, -2]",[],match,1.0,,-1.5012326142025108,0.8655628802954093,-0.5987709674839606,1st,4th,2nd,-1.2387623334680449,1.2628486146267035,-0.29501945791896556
perc,resp,1266,1,1.3.1left.bmp,3.2.3right.bmp,,ACC016,"[-2, 2, -2]","[2, 0, 2]",[],non-match,0.1339745962155613,1,0.45379880067569406,-0.0611913945474956,-0.3151150465462927,3rd,2nd,2nd,0.2893381424315178,-0.358128510056424,-0.29501945791896556
perc,resp,1105,0,2.2.3left.bmp,2.2.3right.bmp,,ACC016,"[0, 0, 2]","[0, 0, 2]",[],match,1.0,,1.0026370906281736,0.48242816662400556,-0.36867156791738853,4th,3rd,2nd,1.239593964840981,0.25983222453343546,-0.29501945791896556
perc,resp,1224,0,1.3.2left.bmp,2.2.1right.bmp,,ACC016,"[-2, 2, 0]","[0, 0, -2]",[],non-match,0.5,3,1.119551871542026,0.6068998712560865,-0.6003607925765182,4th,4th,2nd,1.239593964840981,1.2628486146267035,-0.29501945791896556
perc,resp,1365,1,3.1.2left.bmp,2.3.1right.bmp,,ACC016,"[2, -2, 0]","[0, 2, -2]",[],non-match,0.29289321881345254,1,-0.6953604512959881,-0.8457010149220094,-0.7646749059699465,2nd,1st,1st,-0.290169773804454,-1.1645523291037159,-1.3323477208874048
perc,resp,802,1,1.3.3left.bmp,1.3.3right.bmp,,ACC016,"[-2, 2, 2]","[-2, 2, 2]",[],match,1.0,,0.35200004305595456,0.9677923968602307,-0.6162569036183049,3rd,4th,2nd,0.2893381424315178,1.2628486146267035,-0.29501945791896556
perc,resp,999,1,3.1.3left.bmp,3.1.3right.bmp,,ACC016,"[2, -2, 2]","[2, -2, 2]",[],match,1.0,,-1.2519805986853128,0.5078760830745344,-0.6619802135428041,1st,3rd,1st,-1.2387623334680449,0.25983222453343546,-1.3323477208874048
perc,resp,834,1,3.3.2left.bmp,3.3.2right.bmp,,ACC016,"[2, 2, 0]","[2, 2, 0]",[],match,1.0,,1.7677294351141395,0.48267493127507244,-1.0149081982087187,4th,3rd,1st,1.239593964840981,0.25983222453343546,-1.3323477208874048
perc,resp,640,0,2.2.2left.bmp,3.2.2right.bmp,,ACC016,"[0, 0, 0]","[2, 0, 0]",[],non-match,0.7113248654051871,4,0.18170385380368498,-0.5367605671739568,-0.9171500080388959,3rd,2nd,1st,0.2893381424315178,-0.358128510056424,-1.3323477208874048
perc,resp,876,0,1.1.3left.bmp,1.1.2right.bmp,,ACC016,"[-2, -2, 2]","[-2, -2, 0]",[],non-match,0.7113248654051871,4,0.2620829101619567,-0.10171449910904715,-0.6159287588515838,3rd,2nd,2nd,0.2893381424315178,-0.358128510056424,-0.29501945791896556
perc,resp,753,1,3.3.1left.bmp,1.3.1right.bmp,,ACC016,"[2, 2, -2]","[-2, 2, -2]",[],non-match,0.42264973081037416,2,0.8800329316629442,0.8926544667648614,-0.5196273040019459,4th,4th,2nd,1.239593964840981,1.2628486146267035,-0.29501945791896556
perc,resp,775,0,3.2.1left.bmp,3.2.1right.bmp,,ACC016,"[2, 0, -2]","[2, 0, -2]",[],match,1.0,,-0.5902066723070212,0.2050035606819699,-0.3551852353885164,2nd,3rd,2nd,-0.290169773804454,0.25983222453343546,-0.29501945791896556
perc,resp,1438,1,2.2.1left.bmp,1.2.3right.bmp,,ACC016,"[0, 0, -2]","[-2, 0, 2]",[],non-match,0.3545027756320971,2,-0.9323333971476039,-0.8148543157319345,-0.2694129575873978,1st,1st,2nd,-1.2387623334680449,-1.1645523291037159,-0.29501945791896556
perc,resp,1117,0,1.1.1left.bmp,1.1.1right.bmp,,ACC016,"[-2, -2, -2]","[-2, -2, -2]",[],match,1.0,,1.560778609271591,0.9069669577233873,-0.18665881499478865,4th,4th,2nd,1.239593964840981,1.2628486146267035,-0.29501945791896556
perc,resp,1004,0,2.3.3left.bmp,1.2.2right.bmp,,ACC016,"[0, 2, 2]","[-2, 0, 0]",[],non-match,0.5,3,-1.1534494987252175,-0.7408113184693751,-0.1438631315764372,1st,1st,2nd,-1.2387623334680449,-1.1645523291037159,-0.29501945791896556
perc,resp,1161,0,3.3.3left.bmp,2.2.3right.bmp,,ACC016,"[2, 2, 2]","[0, 0, 2]",[],non-match,0.5917517095361369,3,-0.3515439765934151,0.2105318325014799,0.0030622988820427554,2nd,3rd,2nd,-0.290169773804454,0.25983222453343546,-0.29501945791896556
perc,resp,980,1,1.1.2left.bmp,1.1.2right.bmp,,ACC016,"[-2, -2, 0]","[-2, -2, 0]",[],match,1.0,,1.3247749522976882,-0.6839440916450896,-0.038806557214392974,4th,1st,2nd,1.239593964840981,-1.1645523291037159,-0.29501945791896556
perc,resp,1067,1,3.2.2left.bmp,3.2.2right.bmp,,ACC016,"[2, 0, 0]","[2, 0, 0]",[],match,1.0,,0.3250700467104347,-0.6065701951830271,-0.06520122302038382,3rd,2nd,2nd,0.2893381424315178,-0.358128510056424,-0.29501945791896556
perc,resp,1306,1,1.2.2left.bmp,1.2.2right.bmp,,ACC016,"[-2, 0, 0]","[-2, 0, 0]",[],match,1.0,,0.6091917280205257,0.39295425986328525,-0.1289550063409154,4th,3rd,2nd,1.239593964840981,0.25983222453343546,-0.29501945791896556
perc,resp,741,1,2.1.2left.bmp,2.1.2right.bmp,,ACC016,"[0, -2, 0]","[0, -2, 0]",[],match,1.0,,-0.7968499827711738,-1.2326605681831677,-0.06534428657216117,1st,1st,2nd,-1.2387623334680449,-1.1645523291037159,-0.29501945791896556
perc,resp,887,1,2.3.2left.bmp,1.1.1right.bmp,,ACC016,"[0, 2, 0]","[-2, -2, -2]",[],non-match,0.29289321881345254,1,-1.2144732236466802,-0.28129282620058554,-0.016706170702130447,1st,2nd,2nd,-1.2387623334680449,-0.358128510056424,-0.29501945791896556
perc,resp,1861,0,3.2.3left.bmp,3.2.3right.bmp,,ACC016,"[2, 0, 2]","[2, 0, 2]",[],match,1.0,,1.4337999476971046,0.4649981010475066,0.1097262885820745,4th,3rd,3rd,1.239593964840981,0.25983222453343546,0.40236733275102465
perc,resp,1453,1,3.3.3left.bmp,3.3.3right.bmp,,ACC016,"[2, 2, 2]","[2, 2, 2]",[],match,1.0,,0.1502896321040905,-0.945456495828462,-0.04388260678882423,3rd,1st,2nd,0.2893381424315178,-1.1645523291037159,-0.29501945791896556
perc,resp,1040,0,3.1.2left.bmp,1.3.2right.bmp,,ACC016,"[2, -2, 0]","[-2, 2, 0]",[],non-match,0.18350341907227385,1,0.44244735836037674,0.9659327430564997,0.02311314061630159,3rd,4th,2nd,0.2893381424315178,1.2628486146267035,-0.29501945791896556
perc,resp,1009,1,3.1.1left.bmp,2.3.2right.bmp,,ACC016,"[2, -2, -2]","[0, 2, 0]",[],non-match,0.29289321881345254,1,0.16602874721667182,0.9777878007275631,0.1832532166292335,3rd,4th,3rd,0.2893381424315178,1.2628486146267035,0.40236733275102465
perc,resp,896,1,1.2.3left.bmp,2.2.1right.bmp,,ACC016,"[-2, 0, 2]","[0, 0, -2]",[],non-match,0.3545027756320971,2,-1.6373696648016225,-0.9632409428948727,0.5330784297456018,1st,1st,3rd,-1.2387623334680449,-1.1645523291037159,0.40236733275102465
perc,resp,2342,1,2.2.3left.bmp,1.1.3right.bmp,,ACC016,"[0, 0, 2]","[-2, -2, 2]",[],non-match,0.5917517095361369,3,0.7031404989669877,-1.1428823716447218,0.5952434701352327,4th,1st,3rd,1.239593964840981,-1.1645523291037159,0.40236733275102465
perc,resp,1217,0,2.1.3left.bmp,2.1.3right.bmp,,ACC016,"[0, -2, 2]","[0, -2, 2]",[],match,1.0,,-0.157188622192178,-1.034307195944906,0.6440079122414276,2nd,1st,3rd,-0.290169773804454,-1.1645523291037159,0.40236733275102465
perc,resp,971,1,2.2.2left.bmp,3.3.2right.bmp,,ACC016,"[0, 0, 0]","[2, 2, 0]",[],non-match,0.5917517095361369,3,0.2861971215252457,0.3825011435733654,0.8443377584829578,3rd,3rd,4th,0.2893381424315178,0.25983222453343546,1.2249998460553455
perc,resp,1422,0,3.2.2left.bmp,3.2.2right.bmp,,ACC016,"[2, 0, 0]","[2, 0, 0]",[],match,1.0,,0.1228252788942973,-1.139872771269573,0.8660550939041343,3rd,1st,4th,0.2893381424315178,-1.1645523291037159,1.2249998460553455
perc,resp,1091,0,1.1.1left.bmp,2.1.2right.bmp,,ACC016,"[-2, -2, -2]","[0, -2, 0]",[],non-match,0.5917517095361369,3,1.1774516831750077,0.02581705425038424,1.1550778545194642,4th,3rd,4th,1.239593964840981,0.25983222453343546,1.2249998460553455
perc,resp,1442,1,1.2.2left.bmp,1.2.2right.bmp,,ACC016,"[-2, 0, 0]","[-2, 0, 0]",[],match,1.0,,-1.281960267943144,-1.0350361706345976,1.2551877809549326,1st,1st,4th,-1.2387623334680449,-1.1645523291037159,1.2249998460553455
perc,resp,1332,0,3.2.3left.bmp,3.3.3right.bmp,,ACC016,"[2, 0, 2]","[2, 2, 2]",[],non-match,0.7113248654051871,4,0.10188077903526145,0.03626553458414746,1.2124966940509543,3rd,3rd,4th,0.2893381424315178,0.25983222453343546,1.2249998460553455
perc,resp,1381,1,2.3.2left.bmp,2.3.2right.bmp,,ACC016,"[0, 2, 0]","[0, 2, 0]",[],match,1.0,,-0.7324036781235567,0.4866174236956879,1.2395098351783267,1st,3rd,4th,-1.2387623334680449,0.25983222453343546,1.2249998460553455
perc,resp,902,1,3.3.1left.bmp,2.2.2right.bmp,,ACC016,"[2, 2, -2]","[0, 0, 0]",[],non-match,0.5,3,0.5818311547581577,-0.7495957964688873,1.3160820545483543,3rd,1st,4th,0.2893381424315178,-1.1645523291037159,1.2249998460553455
perc,resp,1136,0,2.1.1left.bmp,2.1.1right.bmp,,ACC016,"[0, -2, -2]","[0, -2, -2]",[],match,1.0,,0.6496591836364891,0.9294337425701409,1.1496030213948778,4th,4th,4th,1.239593964840981,1.2628486146267035,1.2249998460553455
perc,resp,1337,1,3.1.3left.bmp,1.3.3right.bmp,,ACC016,"[2, -2, 2]","[-2, 2, 2]",[],non-match,0.18350341907227385,1,0.0006245577453367846,1.0225556055725002,1.1657886520168095,2nd,4th,4th,-0.290169773804454,1.2628486146267035,1.2249998460553455
perc,resp,1859,1,3.2.2left.bmp,3.2.2right.bmp,,ACC016,"[2, 0, 0]","[2, 0, 0]",[],match,1.0,,-0.5292110321032633,-0.5644317364109055,1.2989626080376275,2nd,2nd,4th,-0.290169773804454,-0.358128510056424,1.2249998460553455
perc,resp,1077,0,2.3.1left.bmp,3.3.1right.bmp,,ACC016,"[0, 2, -2]","[2, 2, -2]",[],non-match,0.7113248654051871,4,-0.8762178603898945,-0.47518811547740036,1.3002164626346835,1st,2nd,4th,-1.2387623334680449,-0.358128510056424,1.2249998460553455
perc,resp,804,1,3.1.3left.bmp,1.3.2right.bmp,,ACC016,"[2, -2, 2]","[-2, 2, 0]",[],non-match,0.1339745962155613,1,1.8946003541990069,0.18513564108461986,1.4004478823766742,4th,3rd,4th,1.239593964840981,0.25983222453343546,1.2249998460553455
perc,resp,1657,1,3.2.1left.bmp,2.3.3right.bmp,,ACC016,"[2, 0, -2]","[0, 2, 2]",[],non-match,0.29289321881345254,1,-0.503173740759709,-0.10647216676454362,1.34635882977893,2nd,2nd,4th,-0.290169773804454,-0.358128510056424,1.2249998460553455
perc,resp,1016,1,1.3.1left.bmp,1.3.1right.bmp,,ACC016,"[-2, 2, -2]","[-2, 2, -2]",[],match,1.0,,0.1745309868938396,0.47106555574754766,1.286553886305411,3rd,3rd,4th,0.2893381424315178,0.25983222453343546,1.2249998460553455
perc,resp,1565,1,2.1.2left.bmp,3.1.2right.bmp,,ACC016,"[0, -2, 0]","[2, -2, 0]",[],non-match,0.7113248654051871,4,-0.33347712885085723,0.3631453441683211,1.1621619205030902,2nd,3rd,4th,-0.290169773804454,0.25983222453343546,1.2249998460553455
perc,resp,1356,0,2.2.3left.bmp,2.2.3right.bmp,,ACC016,"[0, 0, 2]","[0, 0, 2]",[],match,1.0,,-0.32769260006284445,-0.02449107119351537,1.2035422924598524,2nd,3rd,4th,-0.290169773804454,0.25983222453343546,1.2249998460553455
perc,resp,813,1,1.2.1left.bmp,1.2.1right.bmp,,ACC016,"[-2, 0, -2]","[-2, 0, -2]",[],match,1.0,,0.2840334277683068,-0.15114831146110122,1.065399153705048,3rd,2nd,4th,0.2893381424315178,-0.358128510056424,1.2249998460553455
perc,resp,1344,1,3.1.1left.bmp,3.1.1right.bmp,,ACC016,"[2, -2, -2]","[2, -2, -2]",[],match,1.0,,-1.0330868132450155,0.30875898927277845,1.4446076990443593,1st,3rd,4th,-1.2387623334680449,0.25983222453343546,1.2249998460553455
perc,resp,1273,1,2.2.1left.bmp,1.1.2right.bmp,,ACC016,"[0, 0, -2]","[-2, -2, 0]",[],non-match,0.5,3,-0.35736527773275445,0.5491156664236492,1.5280533162981824,2nd,3rd,4th,-0.290169773804454,0.25983222453343546,1.2249998460553455
perc,resp,1596,1,2.1.1left.bmp,1.1.1right.bmp,,ACC016,"[0, -2, -2]","[-2, -2, -2]",[],non-match,0.7113248654051871,4,-1.3075842675776965,-0.6194045927090216,1.6409341146130119,1st,1st,4th,-1.2387623334680449,-1.1645523291037159,1.2249998460553455
perc,resp,1135,1,2.3.3left.bmp,2.3.3right.bmp,,ACC016,"[0, 2, 2]","[0, 2, 2]",[],match,1.0,,-1.1897795068084482,-1.022747192173812,1.82940970387893,1st,1st,4th,-1.2387623334680449,-1.1645523291037159,1.2249998460553455
perc,resp,924,0,1.1.3left.bmp,1.3.1right.bmp,,ACC016,"[-2, -2, 2]","[-2, 2, -2]",[],non-match,0.18350341907227385,1,0.660957564668335,-0.1834842939169692,1.4706986280601702,4th,2nd,4th,1.239593964840981,-0.358128510056424,1.2249998460553455
perc,resp,1230,1,1.1.2left.bmp,1.1.2right.bmp,,ACC016,"[-2, -2, 0]","[-2, -2, 0]",[],match,1.0,,0.4823545061200268,0.8151527167505151,1.2018725903493683,3rd,4th,4th,0.2893381424315178,1.2628486146267035,1.2249998460553455
perc,resp,1027,1,3.1.2left.bmp,3.1.2right.bmp,,ACC016,"[2, -2, 0]","[2, -2, 0]",[],match,1.0,,-1.133780992423548,-0.03198512962014341,1.1404132544017591,1st,3rd,4th,-1.2387623334680449,0.25983222453343546,1.2249998460553455
perc,resp,1258,1,1.2.2left.bmp,2.3.1right.bmp,,ACC016,"[-2, 0, 0]","[0, 2, -2]",[],non-match,0.5,3,0.32214492211462714,0.4351630169096672,0.976520863195787,3rd,3rd,4th,0.2893381424315178,0.25983222453343546,1.2249998460553455
perc,resp,1249,1,3.2.3left.bmp,3.2.3right.bmp,,ACC016,"[2, 0, 2]","[2, 0, 2]",[],match,1.0,,0.10186774596788674,0.13512416976921032,0.8702121610868657,3rd,3rd,4th,0.2893381424315178,0.25983222453343546,1.2249998460553455
perc,resp,1408,1,3.3.3left.bmp,1.3.3right.bmp,,ACC016,"[2, 2, 2]","[-2, 2, 2]",[],non-match,0.42264973081037416,2,0.5129826048996781,-0.03634218712520676,1.0095036738128083,3rd,3rd,4th,0.2893381424315178,0.25983222453343546,1.2249998460553455
perc,resp,2206,0,1.2.3left.bmp,1.2.1right.bmp,,ACC016,"[-2, 0, 2]","[-2, 0, -2]",[],non-match,0.42264973081037416,2,0.024305860493302273,0.0928297181322442,0.9499265300568521,3rd,3rd,4th,0.2893381424315178,0.25983222453343546,1.2249998460553455
perc,resp,1550,1,1.1.1left.bmp,3.1.2right.bmp,,ACC016,"[-2, -2, -2]","[2, -2, 0]",[],non-match,0.3545027756320971,2,-0.4711432047013494,-1.346300332574316,1.0667124195010647,2nd,1st,4th,-0.290169773804454,-1.1645523291037159,1.2249998460553455
perc,resp,1077,1,1.3.2left.bmp,1.3.2right.bmp,,ACC016,"[-2, 2, 0]","[-2, 2, 0]",[],match,1.0,,-0.05463708003736776,0.3931733029085008,1.2779498803176572,2nd,3rd,4th,-0.290169773804454,0.25983222453343546,1.2249998460553455
perc,resp,2374,1,3.3.1left.bmp,3.3.1right.bmp,,ACC016,"[2, 2, -2]","[2, 2, -2]",[],match,1.0,,-1.1664695977080801,-1.491619570227157,1.5918035078774304,1st,1st,4th,-1.2387623334680449,-1.1645523291037159,1.2249998460553455
perc,resp,1234,1,3.3.2left.bmp,3.3.2right.bmp,,ACC016,"[2, 2, 0]","[2, 2, 0]",[],match,1.0,,0.30377703227849995,-0.18239693863686163,1.699521949707252,3rd,2nd,4th,0.2893381424315178,-0.358128510056424,1.2249998460553455
perc,resp,1133,1,2.3.2left.bmp,1.1.2right.bmp,,ACC016,"[0, 2, 0]","[-2, -2, 0]",[],non-match,0.3545027756320971,2,1.2001055425667642,1.2890707477028254,1.527894301425144,4th,4th,4th,1.239593964840981,1.2628486146267035,1.2249998460553455
perc,resp,1111,1,2.1.3left.bmp,3.2.1right.bmp,,ACC016,"[0, -2, 2]","[2, 0, -2]",[],non-match,0.29289321881345254,1,0.6052801124708307,0.7806070305019184,1.5794381657325147,4th,4th,4th,1.239593964840981,1.2628486146267035,1.2249998460553455
perc,resp,1160,0,2.2.2left.bmp,2.2.2right.bmp,,ACC016,"[0, 0, 0]","[0, 0, 0]",[],match,1.0,,0.33415061095445775,-0.5650757048436053,1.5982641887986173,3rd,2nd,4th,0.2893381424315178,-0.358128510056424,1.2249998460553455
perc,resp,1663,0,3.3.3left.bmp,3.2.2right.bmp,,ACC016,"[2, 2, 2]","[2, 0, 0]",[],non-match,0.5917517095361369,3,-0.017025429852852925,0.4974345449086202,1.5003751454615017,2nd,3rd,4th,-0.290169773804454,0.25983222453343546,1.2249998460553455
perc,resp,1142,0,2.3.3left.bmp,2.3.3right.bmp,,ACC016,"[0, 2, 2]","[0, 2, 2]",[],match,1.0,,0.3992882537334075,-0.35775195673509896,1.3991415150651463,3rd,2nd,4th,0.2893381424315178,-0.358128510056424,1.2249998460553455
perc,resp,1241,1,1.3.1left.bmp,1.3.1right.bmp,,ACC016,"[-2, 2, -2]","[-2, 2, -2]",[],match,1.0,,-1.5995699047159417,0.4449918087486234,1.2980714622183087,1st,3rd,4th,-1.2387623334680449,0.25983222453343546,1.2249998460553455
perc,resp,1112,1,2.1.1left.bmp,1.1.3right.bmp,,ACC016,"[0, -2, -2]","[-2, -2, 2]",[],non-match,0.3545027756320971,2,1.2584019210453756,0.3986195394835303,1.1954748486067888,4th,3rd,4th,1.239593964840981,0.25983222453343546,1.2249998460553455
perc,resp,0,0,1.2.2left.bmp,2.2.1right.bmp,,ACC016,"[-2, 0, 0]","[0, 0, -2]",[],non-match,0.5917517095361369,3,-0.7647095727501297,-1.3055226045188246,1.4880828664193018,1st,1st,4th,-1.2387623334680449,-1.1645523291037159,1.2249998460553455
perc,resp,2261,1,1.3.2left.bmp,2.1.2right.bmp,,ACC016,"[-2, 2, 0]","[0, -2, 0]",[],non-match,0.3545027756320971,2,1.5087761444324248,2.2877465403791737,1.5869101402404688,4th,4th,4th,1.239593964840981,1.2628486146267035,1.2249998460553455
perc,resp,2451,0,1.3.3left.bmp,1.3.3right.bmp,,ACC016,"[-2, 2, 2]","[-2, 2, 2]",[],match,1.0,,-0.2958001926887387,-0.43580387943467297,1.4217378279232415,2nd,2nd,4th,-0.290169773804454,-0.358128510056424,1.2249998460553455
perc,resp,2715,1,3.1.1left.bmp,3.1.1right.bmp,,ACC016,"[2, -2, -2]","[2, -2, -2]",[],match,1.0,,-0.15917448374275228,-0.8024141248683915,1.4757766260150202,2nd,1st,4th,-0.290169773804454,-1.1645523291037159,1.2249998460553455
perc,resp,2586,0,2.2.1left.bmp,2.2.2right.bmp,,ACC016,"[0, 0, -2]","[0, 0, 0]",[],non-match,0.7113248654051871,4,-1.2035468452814093,0.7454347135906658,1.433051352115738,1st,4th,4th,-1.2387623334680449,1.2628486146267035,1.2249998460553455
perc,resp,1375,1,2.1.3left.bmp,3.1.2right.bmp,,ACC016,"[0, -2, 2]","[2, -2, 0]",[],non-match,0.5917517095361369,3,0.4611333368540189,1.8623352482114193,1.252072280077553,3rd,4th,4th,0.2893381424315178,1.2628486146267035,1.2249998460553455
perc,resp,1558,1,2.2.3left.bmp,2.3.2right.bmp,,ACC016,"[0, 0, 2]","[0, 2, 0]",[],non-match,0.5917517095361369,3,-1.4626804258658954,-2.111614076381616,1.2966220130414614,1st,1st,4th,-1.2387623334680449,-1.1645523291037159,1.2249998460553455
perc,resp,938,1,3.3.1left.bmp,3.3.1right.bmp,,ACC016,"[2, 2, -2]","[2, 2, -2]",[],match,1.0,,-1.252458371926958,-0.9089459760500287,1.2196919168744582,1st,1st,4th,-1.2387623334680449,-1.1645523291037159,1.2249998460553455
perc,resp,1074,1,2.3.1left.bmp,2.3.1right.bmp,,ACC016,"[0, 2, -2]","[0, 2, -2]",[],match,1.0,,-0.20173681716339525,-0.0933591882792383,1.1094733468662232,2nd,2nd,4th,-0.290169773804454,-0.358128510056424,1.2249998460553455
perc,resp,739,1,3.1.3left.bmp,3.1.3right.bmp,,ACC016,"[2, -2, 2]","[2, -2, 2]",[],match,1.0,,-1.004719983496504,-1.061631574481831,0.8867865024108968,1st,1st,4th,-1.2387623334680449,-1.1645523291037159,1.2249998460553455
perc,resp,968,0,2.3.2left.bmp,2.3.3right.bmp,,ACC016,"[0, 2, 0]","[0, 2, 2]",[],non-match,0.7113248654051871,4,-2.0865858957526697,-0.36862663910924703,0.7035982687872306,1st,2nd,3rd,-1.2387623334680449,-0.358128510056424,0.40236733275102465
perc,resp,755,0,1.1.3left.bmp,1.2.1right.bmp,,ACC016,"[-2, -2, 2]","[-2, 0, -2]",[],non-match,0.3545027756320971,2,0.39481423250381675,-0.3856279611059453,0.7699994710769233,3rd,2nd,4th,0.2893381424315178,-0.358128510056424,1.2249998460553455
perc,resp,961,1,3.2.3left.bmp,3.2.3right.bmp,,ACC016,"[2, 0, 2]","[2, 0, 2]",[],match,1.0,,1.9872762638279078,4.319466610204525,0.8660938412297545,4th,4th,4th,1.239593964840981,1.2628486146267035,1.2249998460553455
perc,resp,848,0,1.2.3left.bmp,2.2.3right.bmp,,ACC016,"[-2, 0, 2]","[0, 0, 2]",[],non-match,0.7113248654051871,4,-1.7679827380018938,-0.13306059902796236,0.6403240696791275,1st,2nd,3rd,-1.2387623334680449,-0.358128510056424,0.40236733275102465
perc,resp,845,0,2.2.2left.bmp,3.3.1right.bmp,,ACC016,"[0, 0, 0]","[2, 2, -2]",[],non-match,0.5,3,-0.16408452281109703,-0.060487482260377555,0.6078216092834167,2nd,3rd,3rd,-0.290169773804454,0.25983222453343546,0.40236733275102465
perc,resp,1344,0,1.2.1left.bmp,2.2.1right.bmp,,ACC016,"[-2, 0, -2]","[0, 0, -2]",[],non-match,0.7113248654051871,4,-0.3218641542224339,-0.5960111814174444,0.48331162456453014,2nd,2nd,3rd,-0.290169773804454,-0.358128510056424,0.40236733275102465
perc,resp,1563,1,3.2.1left.bmp,3.2.1right.bmp,,ACC016,"[2, 0, -2]","[2, 0, -2]",[],match,1.0,,-2.067238293250497,-0.8445653483310257,0.2624472305452545,1st,1st,3rd,-1.2387623334680449,-1.1645523291037159,0.40236733275102465
perc,resp,1282,1,3.2.2left.bmp,3.2.2right.bmp,,ACC016,"[2, 0, 0]","[2, 0, 0]",[],match,1.0,,-0.8453162963510854,0.32522134018389687,0.10245798400630557,1st,3rd,3rd,-1.2387623334680449,0.25983222453343546,0.40236733275102465
perc,resp,939,0,3.1.2left.bmp,3.1.3right.bmp,,ACC016,"[2, -2, 0]","[2, -2, 2]",[],non-match,0.7113248654051871,4,-0.8358251633124842,-0.5232994566206027,0.03245325802212104,1st,2nd,2nd,-1.2387623334680449,-0.358128510056424,-0.29501945791896556
perc,resp,936,1,1.1.2left.bmp,1.1.2right.bmp,,ACC016,"[-2, -2, 0]","[-2, -2, 0]",[],match,1.0,,-0.6671971274681955,-0.5763837432209384,0.05247470538738062,2nd,2nd,2nd,-0.290169773804454,-0.358128510056424,-0.29501945791896556
perc,resp,914,0,2.1.2left.bmp,2.1.2right.bmp,,ACC016,"[0, -2, 0]","[0, -2, 0]",[],match,1.0,,-0.27814292257654455,-0.5719416971084621,0.04971173077460245,2nd,2nd,2nd,-0.290169773804454,-0.358128510056424,-0.29501945791896556
perc,resp,1224,1,1.1.1left.bmp,3.2.1right.bmp,,ACC016,"[-2, -2, -2]","[2, 0, -2]",[],non-match,0.3545027756320971,2,-0.6175066653397038,-0.7419829916728826,-0.021064378570036898,2nd,1st,2nd,-0.290169773804454,-1.1645523291037159,-0.29501945791896556
perc,resp,1342,1,1.2.3left.bmp,1.2.3right.bmp,,ACC016,"[-2, 0, 2]","[-2, 0, 2]",[],match,1.0,,-0.11904734401660823,0.11019444496625931,-0.05012885374324035,2nd,3rd,2nd,-0.290169773804454,0.25983222453343546,-0.29501945791896556
perc,resp,851,1,1.1.3left.bmp,1.1.3right.bmp,,ACC016,"[-2, -2, 2]","[-2, -2, 2]",[],match,1.0,,0.1002842739590218,1.249994061462196,0.009076115509504684,3rd,4th,2nd,0.2893381424315178,1.2628486146267035,-0.29501945791896556
perc,resp,867,1,2.1.2left.bmp,2.1.2right.bmp,,ACC016,"[0, -2, 0]","[0, -2, 0]",[],match,1.0,,1.0844624663846905,1.297520613212015,0.010154939967603801,4th,4th,2nd,1.239593964840981,1.2628486146267035,-0.29501945791896556
perc,resp,843,1,1.1.2left.bmp,3.2.2right.bmp,,ACC016,"[-2, -2, 0]","[2, 0, 0]",[],non-match,0.3545027756320971,2,1.3933144945509988,0.8449949077856094,0.051499688492843664,4th,4th,2nd,1.239593964840981,1.2628486146267035,-0.29501945791896556
perc,resp,818,1,1.3.3left.bmp,1.3.3right.bmp,,ACC016,"[-2, 2, 2]","[-2, 2, 2]",[],match,1.0,,0.5475841661973928,-0.3483457428895833,0.21365641461812954,3rd,2nd,3rd,0.2893381424315178,-0.358128510056424,0.40236733275102465
perc,resp,772,0,1.2.1left.bmp,1.3.2right.bmp,,ACC016,"[-2, 0, -2]","[-2, 2, 0]",[],non-match,0.5917517095361369,3,-0.09391479204118244,-1.3798259054982545,0.1329694032285388,2nd,1st,3rd,-0.290169773804454,-1.1645523291037159,0.40236733275102465
perc,resp,971,1,2.1.3left.bmp,2.1.3right.bmp,,ACC016,"[0, -2, 2]","[0, -2, 2]",[],match,1.0,,0.017209303175457116,-0.6936532428693185,0.21381573161102846,3rd,1st,3rd,0.2893381424315178,-1.1645523291037159,0.40236733275102465
perc,resp,916,1,2.1.1left.bmp,1.1.1right.bmp,,ACC016,"[0, -2, -2]","[-2, -2, -2]",[],non-match,0.7113248654051871,4,0.44189285348557134,1.146198862486083,0.07454919848012254,3rd,4th,3rd,0.2893381424315178,1.2628486146267035,0.40236733275102465
perc,resp,952,1,2.3.2left.bmp,2.3.2right.bmp,,ACC016,"[0, 2, 0]","[0, 2, 0]",[],match,1.0,,0.9449577722703194,0.7946378341751809,-0.16725308343676382,4th,4th,2nd,1.239593964840981,1.2628486146267035,-0.29501945791896556
perc,resp,1254,1,2.2.3left.bmp,3.1.1right.bmp,,ACC016,"[0, 0, 2]","[2, -2, -2]",[],non-match,0.29289321881345254,1,-0.8158545361670335,1.3922616721500332,-0.26097352567798976,1st,4th,2nd,-1.2387623334680449,1.2628486146267035,-0.29501945791896556
perc,resp,1101,1,3.3.3left.bmp,3.3.3right.bmp,,ACC016,"[2, 2, 2]","[2, 2, 2]",[],match,1.0,,0.009366535147253791,-0.33344116737823953,-0.10291907336444076,2nd,2nd,2nd,-0.290169773804454,-0.358128510056424,-0.29501945791896556
perc,resp,936,1,3.1.3left.bmp,1.1.3right.bmp,,ACC016,"[2, -2, 2]","[-2, -2, 2]",[],non-match,0.42264973081037416,2,-0.3917279412767178,0.825295482838425,0.16401576325143155,2nd,4th,3rd,-0.290169773804454,1.2628486146267035,0.40236733275102465
perc,resp,1025,1,3.2.3left.bmp,3.2.3right.bmp,,ACC016,"[2, 0, 2]","[2, 0, 2]",[],match,1.0,,-0.8929026729024253,-1.8098029702708152,0.37600605678429133,1st,1st,3rd,-1.2387623334680449,-1.1645523291037159,0.40236733275102465
perc,resp,2184,1,1.1.2left.bmp,1.1.2right.bmp,,ACC016,"[-2, -2, 0]","[-2, -2, 0]",[],match,1.0,,-0.9889823070580936,0.12699637378267045,0.35578757505679265,1st,3rd,3rd,-1.2387623334680449,0.25983222453343546,0.40236733275102465
perc,resp,1082,1,1.2.1left.bmp,1.2.1right.bmp,,ACC016,"[-2, 0, -2]","[-2, 0, -2]",[],match,1.0,,-1.612164056568234,1.6590898942839625,0.3985462838312747,1st,4th,3rd,-1.2387623334680449,1.2628486146267035,0.40236733275102465
perc,resp,1321,1,3.3.2left.bmp,3.3.2right.bmp,,ACC016,"[2, 2, 0]","[2, 2, 0]",[],match,1.0,,-1.5271609462142826,-0.5934192348031174,0.5292442330731525,1st,2nd,3rd,-1.2387623334680449,-0.358128510056424,0.40236733275102465
perc,resp,1764,1,1.2.3left.bmp,1.2.3right.bmp,,ACC016,"[-2, 0, 2]","[-2, 0, 2]",[],match,1.0,,0.6564401644015008,1.6145027269997345,0.48122786256255723,4th,4th,3rd,1.239593964840981,1.2628486146267035,0.40236733275102465
perc,resp,1644,1,2.1.1left.bmp,2.1.1right.bmp,,ACC016,"[0, -2, -2]","[0, -2, -2]",[],match,1.0,,0.7638498133288215,0.8824405375733058,0.5251208529542487,4th,4th,3rd,1.239593964840981,1.2628486146267035,0.40236733275102465
perc,resp,2191,1,2.1.2left.bmp,2.1.2right.bmp,,ACC016,"[0, -2, 0]","[0, -2, 0]",[],match,1.0,,-0.7897856484191323,-0.143671173097807,0.4868041494562084,1st,2nd,3rd,-1.2387623334680449,-0.358128510056424,0.40236733275102465
perc,resp,698,0,2.2.2left.bmp,1.2.2right.bmp,,ACC016,"[0, 0, 0]","[-2, 0, 0]",[],non-match,0.7113248654051871,4,-0.13697583913364866,0.6979662407230549,0.27017118291289943,2nd,4th,3rd,-0.290169773804454,1.2628486146267035,0.40236733275102465
perc,resp,986,0,2.2.1left.bmp,3.2.3right.bmp,,ACC016,"[0, 0, -2]","[2, 0, 2]",[],non-match,0.3545027756320971,2,-0.750534493662377,-0.860023777935675,0.17152796744331048,1st,1st,3rd,-1.2387623334680449,-1.1645523291037159,0.40236733275102465
perc,resp,1105,1,3.1.1left.bmp,1.1.1right.bmp,,ACC016,"[2, -2, -2]","[-2, -2, -2]",[],non-match,0.42264973081037416,2,1.2033076074201094,1.7219399990243935,0.15189831098513606,4th,4th,3rd,1.239593964840981,1.2628486146267035,0.40236733275102465
perc,resp,942,1,2.3.3left.bmp,2.3.3right.bmp,,ACC016,"[0, 2, 2]","[0, 2, 2]",[],match,1.0,,-0.2348829750100251,-0.9694756951072103,0.11264770512579018,2nd,1st,3rd,-0.290169773804454,-1.1645523291037159,0.40236733275102465
perc,resp,707,1,3.3.1left.bmp,1.2.3right.bmp,,ACC016,"[2, 2, -2]","[-2, 0, 2]",[],non-match,0.1339745962155613,1,0.4909607676491511,-0.1068252054156317,0.19934202041709498,3rd,2nd,3rd,0.2893381424315178,-0.358128510056424,0.40236733275102465
perc,resp,1145,1,1.3.3left.bmp,2.2.2right.bmp,,ACC016,"[-2, 2, 2]","[0, 0, 0]",[],non-match,0.5,3,0.49234552018150934,-1.2111968920268374,0.3447169688878854,3rd,1st,3rd,0.2893381424315178,-1.1645523291037159,0.40236733275102465
perc,resp,468,1,1.3.1left.bmp,1.1.2right.bmp,,ACC016,"[-2, 2, -2]","[-2, -2, 0]",[],non-match,0.3545027756320971,2,0.8585855391843128,0.9113369464868679,0.31551774366286184,4th,4th,3rd,1.239593964840981,1.2628486146267035,0.40236733275102465
perc,resp,563,1,3.1.3left.bmp,1.2.2right.bmp,,ACC016,"[2, -2, 2]","[-2, 0, 0]",[],non-match,0.29289321881345254,1,0.7298989918362345,-0.7847441746674471,0.5148962056564912,4th,1st,3rd,1.239593964840981,-1.1645523291037159,0.40236733275102465
perc,resp,657,0,1.1.1left.bmp,1.1.1right.bmp,,ACC016,"[-2, -2, -2]","[-2, -2, -2]",[],match,1.0,,0.02069395523534455,-0.9194807981256156,0.6229472234339518,3rd,1st,3rd,0.2893381424315178,-1.1645523291037159,0.40236733275102465
perc,resp,592,1,3.2.3left.bmp,1.3.2right.bmp,,ACC016,"[2, 0, 2]","[-2, 2, 0]",[],non-match,0.29289321881345254,1,0.2810057179854686,-1.0187500684221409,0.6691151232332831,3rd,1st,3rd,0.2893381424315178,-1.1645523291037159,0.40236733275102465
perc,resp,1110,0,3.3.3left.bmp,2.1.3right.bmp,,ACC016,"[2, 2, 2]","[0, -2, 2]",[],non-match,0.3545027756320971,2,-0.6697407589714508,-0.3664948287930618,0.5459789337197266,2nd,2nd,3rd,-0.290169773804454,-0.358128510056424,0.40236733275102465
perc,resp,855,1,1.1.3left.bmp,3.3.2right.bmp,,ACC016,"[-2, -2, 2]","[2, 2, 0]",[],non-match,0.1339745962155613,1,0.8971788636016252,-0.4847399736511111,0.46463256529356517,4th,2nd,3rd,1.239593964840981,-0.358128510056424,0.40236733275102465
perc,resp,964,1,3.2.1left.bmp,3.3.1right.bmp,,ACC016,"[2, 0, -2]","[2, 2, -2]",[],non-match,0.7113248654051871,4,0.6788456634455879,1.1580627684795572,0.435493769518115,4th,4th,3rd,1.239593964840981,1.2628486146267035,0.40236733275102465
perc,resp,698,0,2.3.2left.bmp,2.3.2right.bmp,,ACC016,"[0, 2, 0]","[0, 2, 0]",[],match,1.0,,1.2065172192276878,-0.019347771997198976,0.3634510971091632,4th,3rd,3rd,1.239593964840981,0.25983222453343546,0.40236733275102465
perc,resp,692,0,1.3.2left.bmp,1.3.2right.bmp,,ACC016,"[-2, 2, 0]","[-2, 2, 0]",[],match,1.0,,-0.06473463449519544,0.2210298963866253,0.3522650334618457,2nd,3rd,3rd,-0.290169773804454,0.25983222453343546,0.40236733275102465
perc,resp,969,0,3.1.2left.bmp,3.1.2right.bmp,,ACC016,"[2, -2, 0]","[2, -2, 0]",[],match,1.0,,3.1058705061943725,1.0841444949105568,0.48050414051455553,4th,4th,3rd,1.239593964840981,1.2628486146267035,0.40236733275102465
perc,resp,2608,1,3.2.2left.bmp,1.3.1right.bmp,,ACC016,"[2, 0, 0]","[-2, 2, -2]",[],non-match,0.29289321881345254,1,0.11525908791911067,0.3221350641531753,0.5275928287279822,3rd,3rd,3rd,0.2893381424315178,0.25983222453343546,0.40236733275102465
perc,resp,2096,1,2.1.3left.bmp,2.1.3right.bmp,,ACC016,"[0, -2, 2]","[0, -2, 2]",[],match,1.0,,0.11546622067285292,-0.5016606959024438,0.4075575795058443,3rd,2nd,3rd,0.2893381424315178,-0.358128510056424,0.40236733275102465
perc,resp,2242,1,2.2.3left.bmp,2.2.3right.bmp,,ACC016,"[0, 0, 2]","[0, 0, 2]",[],match,1.0,,-0.006686966418208753,0.0077858440037051,0.24745992732680724,2nd,3rd,3rd,-0.290169773804454,0.25983222453343546,0.40236733275102465
perc,resp,1112,1,3.2.2left.bmp,3.2.2right.bmp,,ACC016,"[2, 0, 0]","[2, 0, 0]",[],match,1.0,,-1.0539863329149195,-0.26120548703366164,0.14941546274006143,1st,2nd,3rd,-1.2387623334680449,-0.358128510056424,0.40236733275102465
perc,resp,948,1,2.2.1left.bmp,2.2.1right.bmp,,ACC016,"[0, 0, -2]","[0, 0, -2]",[],match,1.0,,1.2097102789654142,1.71378306946566,0.11721429446360981,4th,4th,3rd,1.239593964840981,1.2628486146267035,0.40236733275102465
perc,resp,709,1,3.1.1left.bmp,3.1.1right.bmp,,ACC016,"[2, -2, -2]","[2, -2, -2]",[],match,1.0,,-0.2048247684059398,-0.7159078327076162,0.023086014968272534,2nd,1st,2nd,-0.290169773804454,-1.1645523291037159,-0.29501945791896556
perc,resp,1218,0,1.1.3left.bmp,1.3.1right.bmp,,ACC016,"[-2, -2, 2]","[-2, 2, -2]",[],non-match,0.18350341907227385,1,-0.9599048778931347,-0.5147840523403642,-0.2890668482196442,1st,2nd,2nd,-1.2387623334680449,-0.358128510056424,-0.29501945791896556
perc,resp,973,1,3.1.3left.bmp,3.1.3right.bmp,,ACC016,"[2, -2, 2]","[2, -2, 2]",[],match,1.0,,-0.6612330203523386,-0.529203782142578,-0.08084932389775758,2nd,2nd,2nd,-0.290169773804454,-0.358128510056424,-0.29501945791896556
perc,resp,890,1,1.1.1left.bmp,2.1.2right.bmp,,ACC016,"[-2, -2, -2]","[0, -2, 0]",[],non-match,0.5917517095361369,3,0.6444628011333923,-1.0496067513908935,-0.10095609744640556,4th,1st,2nd,1.239593964840981,-1.1645523291037159,-0.29501945791896556
perc,resp,1338,1,1.3.2left.bmp,1.3.2right.bmp,,ACC016,"[-2, 2, 0]","[-2, 2, 0]",[],match,1.0,,-1.167155671983887,-0.9199479824890819,0.054723014305590664,1st,1st,3rd,-1.2387623334680449,-1.1645523291037159,0.40236733275102465
perc,resp,968,0,2.1.3left.bmp,2.2.1right.bmp,,ACC016,"[0, -2, 2]","[0, 0, -2]",[],non-match,0.3545027756320971,2,2.406178371704966,0.852615101872138,0.5029135393270513,4th,4th,3rd,1.239593964840981,1.2628486146267035,0.40236733275102465
perc,resp,1277,1,2.3.2left.bmp,3.1.2right.bmp,,ACC016,"[0, 2, 0]","[2, -2, 0]",[],non-match,0.3545027756320971,2,0.1648059992929995,2.8264043576931894,0.7419441258650227,3rd,4th,3rd,0.2893381424315178,1.2628486146267035,0.40236733275102465
perc,resp,1387,0,1.2.3left.bmp,3.3.1right.bmp,,ACC016,"[-2, 0, 2]","[2, 2, -2]",[],non-match,0.1339745962155613,1,-3.098468560190821,-0.3336966156223111,0.7330405927800625,1st,2nd,3rd,-1.2387623334680449,-0.358128510056424,0.40236733275102465
perc,resp,1306,1,2.2.2left.bmp,2.2.2right.bmp,,ACC016,"[0, 0, 0]","[0, 0, 0]",[],match,1.0,,-1.8954109997396813,0.7443658080040961,0.9534799001840519,1st,4th,4th,-1.2387623334680449,1.2628486146267035,1.2249998460553455
perc,resp,833,0,2.3.3left.bmp,2.2.3right.bmp,,ACC016,"[0, 2, 2]","[0, 0, 2]",[],non-match,0.7113248654051871,4,0.5836277035700681,1.2991987822752322,1.1430554511555076,3rd,4th,4th,0.2893381424315178,1.2628486146267035,1.2249998460553455
perc,resp,1585,1,3.3.2left.bmp,3.2.1right.bmp,,ACC016,"[2, 2, 0]","[2, 0, -2]",[],non-match,0.5917517095361369,3,0.5971075569415731,0.31445354366185146,1.046331583260442,3rd,3rd,4th,0.2893381424315178,0.25983222453343546,1.2249998460553455
perc,resp,1415,1,3.2.3left.bmp,2.2.1right.bmp,,ACC016,"[2, 0, 2]","[0, 0, -2]",[],non-match,0.3545027756320971,2,-0.07522016210708125,0.5834780794410315,1.0495092730287456,2nd,3rd,4th,-0.290169773804454,0.25983222453343546,1.2249998460553455
perc,resp,802,1,1.3.1left.bmp,1.3.1right.bmp,,ACC016,"[-2, 2, -2]","[-2, 2, -2]",[],match,1.0,,-0.9504183997708012,0.49444508270342696,1.0009894349405413,1st,3rd,4th,-1.2387623334680449,0.25983222453343546,1.2249998460553455
perc,resp,1343,1,2.1.1left.bmp,1.2.1right.bmp,,ACC016,"[0, -2, -2]","[-2, 0, -2]",[],non-match,0.5917517095361369,3,-0.22405254405330866,0.10871997558067292,1.0149337275934418,2nd,3rd,4th,-0.290169773804454,0.25983222453343546,1.2249998460553455
perc,resp,1956,1,3.2.1left.bmp,1.2.2right.bmp,,ACC016,"[2, 0, -2]","[-2, 0, 0]",[],non-match,0.3545027756320971,2,0.10694511282615043,0.7771286043524304,1.043555303738669,3rd,4th,4th,0.2893381424315178,1.2628486146267035,1.2249998460553455
perc,resp,1155,1,2.3.1left.bmp,1.2.3right.bmp,,ACC016,"[0, 2, -2]","[-2, 0, 2]",[],non-match,0.29289321881345254,1,-1.128609231798568,1.2340496198053863,1.0153633584632515,1st,4th,4th,-1.2387623334680449,1.2628486146267035,1.2249998460553455
perc,resp,1564,0,3.3.3left.bmp,3.1.3right.bmp,,ACC016,"[2, 2, 2]","[2, -2, 2]",[],non-match,0.42264973081037416,2,-0.2435946274701811,0.7460669450531459,1.0784444821189259,2nd,4th,4th,-0.290169773804454,1.2628486146267035,1.2249998460553455
perc,resp,1628,1,3.1.2left.bmp,3.1.2right.bmp,,ACC016,"[2, -2, 0]","[2, -2, 0]",[],match,1.0,,0.001918001657294508,0.5880369893010952,1.143964233683173,2nd,4th,4th,-0.290169773804454,1.2628486146267035,1.2249998460553455
perc,resp,1448,0,2.1.2left.bmp,3.2.2right.bmp,,ACC016,"[0, -2, 0]","[2, 0, 0]",[],non-match,0.5917517095361369,3,-0.014927004330166927,0.7278328587758682,1.0508792732270804,2nd,4th,4th,-0.290169773804454,1.2628486146267035,1.2249998460553455
perc,resp,1269,1,3.3.1left.bmp,1.1.3right.bmp,,ACC016,"[2, 2, -2]","[-2, -2, 2]",[],non-match,0.0,1,-0.20257638694155775,2.0324144540721276,1.1461668462452044,2nd,4th,4th,-0.290169773804454,1.2628486146267035,1.2249998460553455
perc,resp,2005,0,1.2.1left.bmp,3.3.3right.bmp,,ACC016,"[-2, 0, -2]","[2, 2, 2]",[],non-match,0.1339745962155613,1,-0.4048201950690345,-0.1935798297307338,1.1705652280169379,2nd,2nd,4th,-0.290169773804454,-0.358128510056424,1.2249998460553455
perc,resp,1980,0,2.2.3left.bmp,1.1.1right.bmp,,ACC016,"[0, 0, 2]","[-2, -2, -2]",[],non-match,0.29289321881345254,1,-0.2373920373308805,0.8510190621844907,0.8968720132887871,2nd,4th,4th,-0.290169773804454,1.2628486146267035,1.2249998460553455
perc,resp,1280,1,1.2.2left.bmp,2.3.1right.bmp,,ACC016,"[-2, 0, 0]","[0, 2, -2]",[],non-match,0.5,3,-1.7713993409182391,-1.9834208344118909,0.7048169573129658,1st,1st,3rd,-1.2387623334680449,-1.1645523291037159,0.40236733275102465
perc,resp,1875,1,1.3.3left.bmp,1.3.3right.bmp,,ACC016,"[-2, 2, 2]","[-2, 2, 2]",[],match,1.0,,-0.3532103927432001,0.6658417002269266,0.5744686965856663,2nd,4th,3rd,-0.290169773804454,1.2628486146267035,0.40236733275102465
perc,resp,1549,1,1.1.2left.bmp,1.1.2right.bmp,,ACC016,"[-2, -2, 0]","[-2, -2, 0]",[],match,1.0,,0.9079521144674393,0.42222248658028655,0.7106637252697989,4th,3rd,3rd,1.239593964840981,0.25983222453343546,0.40236733275102465
perc,resp,574,1,2.3.3left.bmp,2.3.3right.bmp,,ACC016,"[0, 2, 2]","[0, 2, 2]",[],match,1.0,,1.652579984868338,-0.6320621649834313,0.6095809342846296,4th,1st,3rd,1.239593964840981,-1.1645523291037159,0.40236733275102465
perc,resp,1675,0,3.3.2left.bmp,3.2.2right.bmp,,ACC016,"[2, 2, 0]","[2, 0, 0]",[],non-match,0.7113248654051871,4,0.07640012684549324,-0.045792113095398844,0.5198269910729718,3rd,3rd,3rd,0.2893381424315178,0.25983222453343546,0.40236733275102465
perc,resp,1276,0,1.3.2left.bmp,1.2.1right.bmp,,ACC016,"[-2, 2, 0]","[-2, 0, -2]",[],non-match,0.5917517095361369,3,1.5018980149002363,-0.1409824597234963,0.5630869216612394,4th,2nd,3rd,1.239593964840981,-0.358128510056424,0.40236733275102465
perc,resp,1223,1,2.2.1left.bmp,2.2.1right.bmp,,ACC016,"[0, 0, -2]","[0, 0, -2]",[],match,1.0,,0.040112073305960234,0.058324261158013084,0.5886385839246275,3rd,3rd,3rd,0.2893381424315178,0.25983222453343546,0.40236733275102465
perc,resp,880,1,2.1.2left.bmp,2.1.2right.bmp,,ACC016,"[0, -2, 0]","[0, -2, 0]",[],match,1.0,,0.5737761575619895,-0.3770033882946841,0.34336882576988315,3rd,2nd,3rd,0.2893381424315178,-0.358128510056424,0.40236733275102465
perc,resp,795,0,1.1.2left.bmp,2.1.1right.bmp,,ACC016,"[-2, -2, 0]","[0, -2, -2]",[],non-match,0.5917517095361369,3,-0.49225521528550564,0.4547018542182022,0.5363748163029529,2nd,3rd,3rd,-0.290169773804454,0.25983222453343546,0.40236733275102465
perc,resp,920,0,2.2.3left.bmp,2.2.3right.bmp,,ACC016,"[0, 0, 2]","[0, 0, 2]",[],match,1.0,,1.2914796999752458,0.9561982235036564,0.4163936984093852,4th,4th,3rd,1.239593964840981,1.2628486146267035,0.40236733275102465
perc,resp,1079,0,3.2.1left.bmp,2.3.2right.bmp,,ACC016,"[2, 0, -2]","[0, 2, 0]",[],non-match,0.5,3,1.3567466862911344,0.9181020066910316,0.40013085274221033,4th,4th,3rd,1.239593964840981,1.2628486146267035,0.40236733275102465
perc,resp,1380,0,2.3.1left.bmp,3.3.3right.bmp,,ACC016,"[0, 2, -2]","[2, 2, 2]",[],non-match,0.3545027756320971,2,-0.40713183571276396,0.5761778369276396,0.6863029986855029,2nd,3rd,3rd,-0.290169773804454,0.25983222453343546,0.40236733275102465
perc,resp,1269,1,3.1.2left.bmp,3.1.2right.bmp,,ACC016,"[2, -2, 0]","[2, -2, 0]",[],match,1.0,,-0.6220677877988561,1.5916191767543162,0.3815411888792924,2nd,4th,3rd,-0.290169773804454,1.2628486146267035,0.40236733275102465
perc,resp,1640,1,1.1.1left.bmp,1.1.1right.bmp,,ACC016,"[-2, -2, -2]","[-2, -2, -2]",[],match,1.0,,-0.1758715293086833,0.25243268675417924,0.23375598595735658,2nd,3rd,3rd,-0.290169773804454,0.25983222453343546,0.40236733275102465
perc,resp,958,1,2.2.2left.bmp,2.2.2right.bmp,,ACC016,"[0, 0, 0]","[0, 0, 0]",[],match,1.0,,-0.37305120105165374,0.29749639267889066,0.3463387364676671,2nd,3rd,3rd,-0.290169773804454,0.25983222453343546,0.40236733275102465
perc,resp,1087,1,1.3.3left.bmp,1.3.3right.bmp,,ACC016,"[-2, 2, 2]","[-2, 2, 2]",[],match,1.0,,0.8610099169920105,0.07419801036662468,0.1473617213779428,4th,3rd,3rd,1.239593964840981,0.25983222453343546,0.40236733275102465
perc,resp,1014,1,3.3.3left.bmp,3.3.3right.bmp,,ACC016,"[2, 2, 2]","[2, 2, 2]",[],match,1.0,,1.1380221137303153,0.10462795592442121,0.07724400858758974,4th,3rd,3rd,1.239593964840981,0.25983222453343546,0.40236733275102465
