mode,type,rt,acc,item_1,item_2,item_cue,subj_idx,item_1_number,item_2_number,item_cue_number,trial_type,similarity,similarity_bin,ams,pams,slps,ams_quantile,pams_quantile,slps_quantile,ams_bin,pam_bin,slp_bin
perc,resp,1807,1,3.3.3left.bmp,3.3.3right.bmp,,ACC019,"[2, 2, 2]","[2, 2, 2]",[],match,1.0,,-1.9223417932876965,-1.602966279553069,-0.6506433350139686,1st,1st,1st,-1.2477371306253746,-1.215316438197501,-0.8556863752246574
perc,resp,1621,1,1.1.2left.bmp,1.1.2right.bmp,,ACC019,"[-2, -2, 0]","[-2, -2, 0]",[],match,1.0,,0.1693271773124456,-1.0499477234175845,-0.5619347262386365,3rd,1st,2nd,0.35292259030782513,-1.215316438197501,-0.47760446903514503
perc,resp,2046,1,2.1.3left.bmp,2.3.3right.bmp,,ACC019,"[0, -2, 2]","[0, 2, 2]",[],non-match,0.42264973081037416,2,-0.31448191281834587,-1.1512452532386825,-0.6417100005686626,2nd,1st,1st,-0.31675144200820676,-1.215316438197501,-0.8556863752246574
perc,resp,1520,0,2.2.3left.bmp,3.1.3right.bmp,,ACC019,"[0, 0, 2]","[2, -2, 2]",[],non-match,0.5917517095361369,3,-1.6216965872605529,-1.2465329889170762,-0.7485513172953042,1st,1st,1st,-1.2477371306253746,-1.215316438197501,-0.8556863752246574
perc,resp,2533,1,2.2.2left.bmp,2.2.2right.bmp,,ACC019,"[0, 0, 0]","[0, 0, 0]",[],match,1.0,,-1.837819117731482,-0.7253744338401978,-0.8147504674501173,1st,1st,1st,-1.2477371306253746,-1.215316438197501,-0.8556863752246574
perc,resp,954,1,3.3.1left.bmp,1.1.2right.bmp,,ACC019,"[2, 2, -2]","[-2, -2, 0]",[],non-match,0.1339745962155613,1,-0.3086232683822864,-0.09333034345636579,-0.8709100127203608,2nd,2nd,1st,-0.31675144200820676,-0.32511826295750806,-0.8556863752246574
perc,resp,2644,1,3.2.1left.bmp,3.2.1right.bmp,,ACC019,"[2, 0, -2]","[2, 0, -2]",[],match,1.0,,-1.8846277089565922,-2.4314554906845087,-0.8057547302687985,1st,1st,1st,-1.2477371306253746,-1.215316438197501,-0.8556863752246574
perc,resp,3131,1,2.3.2left.bmp,2.1.1right.bmp,,ACC019,"[0, 2, 0]","[0, -2, -2]",[],non-match,0.3545027756320971,2,-1.2091780794538716,-0.40810588545333915,-0.6078039489500253,1st,2nd,2nd,-1.2477371306253746,-0.32511826295750806,-0.47760446903514503
perc,resp,2929,1,2.2.1left.bmp,2.2.1right.bmp,,ACC019,"[0, 0, -2]","[0, 0, -2]",[],match,1.0,,-1.8706858596017961,-1.9482799159321973,-0.704308120804186,1st,1st,1st,-1.2477371306253746,-1.215316438197501,-0.8556863752246574
perc,resp,1790,0,1.3.1left.bmp,1.2.3right.bmp,,ACC019,"[-2, 2, -2]","[-2, 0, 2]",[],non-match,0.3545027756320971,2,-0.5065813506715624,0.5098741536708145,-0.6934501156296288,2nd,3rd,1st,-0.31675144200820676,0.2897501245355415,-0.8556863752246574
perc,resp,2588,1,1.3.2left.bmp,2.1.2right.bmp,,ACC019,"[-2, 2, 0]","[0, -2, 0]",[],non-match,0.3545027756320971,2,1.3879114347346633,0.6344618753084247,-0.6752862286082735,4th,4th,1st,1.2313713336055243,1.2699753137337133,-0.8556863752246574
perc,resp,1474,1,1.1.3left.bmp,3.2.3right.bmp,,ACC019,"[-2, -2, 2]","[2, 0, 2]",[],non-match,0.3545027756320971,2,0.3943322975591849,0.9954070955230989,-0.5981464384635254,3rd,4th,2nd,0.35292259030782513,1.2699753137337133,-0.47760446903514503
perc,resp,2593,1,1.1.1left.bmp,1.1.1right.bmp,,ACC019,"[-2, -2, -2]","[-2, -2, -2]",[],match,1.0,,-0.1508281181484325,0.8612674065301574,-0.6785195582400275,2nd,4th,1st,-0.31675144200820676,1.2699753137337133,-0.8556863752246574
perc,resp,987,1,3.1.2left.bmp,1.3.3right.bmp,,ACC019,"[2, -2, 0]","[-2, 2, 2]",[],non-match,0.1339745962155613,1,-0.6171820199158333,-0.9389852184106501,-0.6845559593009197,2nd,1st,1st,-0.31675144200820676,-1.215316438197501,-0.8556863752246574
perc,resp,2479,1,3.2.2left.bmp,3.3.3right.bmp,,ACC019,"[2, 0, 0]","[2, 2, 2]",[],non-match,0.5917517095361369,3,-2.19084619738347,-1.1393697697732847,-0.5862538070307328,1st,1st,2nd,-1.2477371306253746,-1.215316438197501,-0.47760446903514503
perc,resp,3400,1,3.2.3left.bmp,3.2.3right.bmp,,ACC019,"[2, 0, 2]","[2, 0, 2]",[],match,1.0,,-2.578670724448744,-2.032983663152099,-0.5478629789129574,1st,1st,2nd,-1.2477371306253746,-1.215316438197501,-0.47760446903514503
perc,resp,2187,1,1.2.2left.bmp,1.2.2right.bmp,,ACC019,"[-2, 0, 0]","[-2, 0, 0]",[],match,1.0,,2.295321554055301,3.0261675059417295,-0.34408566846477895,4th,4th,2nd,1.2313713336055243,1.2699753137337133,-0.47760446903514503
perc,resp,2148,1,2.1.2left.bmp,2.1.2right.bmp,,ACC019,"[0, -2, 0]","[0, -2, 0]",[],match,1.0,,0.2073746858462124,0.583726191632939,-0.423737584997027,3rd,3rd,2nd,0.35292259030782513,0.2897501245355415,-0.47760446903514503
perc,resp,1134,1,2.3.1left.bmp,1.2.3right.bmp,,ACC019,"[0, 2, -2]","[-2, 0, 2]",[],non-match,0.29289321881345254,1,0.4067920799072874,0.21937985088721457,-0.6278762452910974,3rd,3rd,2nd,0.35292259030782513,0.2897501245355415,-0.47760446903514503
perc,resp,1095,1,1.3.3left.bmp,3.3.2right.bmp,,ACC019,"[-2, 2, 2]","[2, 2, 0]",[],non-match,0.3545027756320971,2,0.348793440099822,0.40642982806555356,-0.6368401283114739,3rd,3rd,1st,0.35292259030782513,0.2897501245355415,-0.8556863752246574
perc,resp,2678,0,3.1.1left.bmp,3.2.1right.bmp,,ACC019,"[2, -2, -2]","[2, 0, -2]",[],non-match,0.7113248654051871,4,-1.112620154144639,-0.6220315864713883,-0.6929435470757582,1st,2nd,1st,-1.2477371306253746,-0.32511826295750806,-0.8556863752246574
perc,resp,2925,1,1.2.1left.bmp,1.2.1right.bmp,,ACC019,"[-2, 0, -2]","[-2, 0, -2]",[],match,1.0,,0.4615695889236104,-1.5050518611356931,-0.5614216867643536,3rd,1st,2nd,0.35292259030782513,-1.215316438197501,-0.47760446903514503
perc,resp,1124,1,3.1.3left.bmp,2.3.1right.bmp,,ACC019,"[2, -2, 2]","[0, 2, -2]",[],non-match,0.1339745962155613,1,-0.8240520458396087,1.3444775748348392,-0.47706532259820145,1st,4th,2nd,-1.2477371306253746,1.2699753137337133,-0.47760446903514503
perc,resp,3154,1,2.1.1left.bmp,2.1.1right.bmp,,ACC019,"[0, -2, -2]","[0, -2, -2]",[],match,1.0,,-0.2516929586181074,-0.20152409221811243,-0.46168682363719554,2nd,2nd,2nd,-0.31675144200820676,-0.32511826295750806,-0.47760446903514503
perc,resp,2138,0,1.2.3left.bmp,1.2.3right.bmp,,ACC019,"[-2, 0, 2]","[-2, 0, 2]",[],match,1.0,,-0.5940717852437004,0.034922602898468144,-0.670206441118946,2nd,3rd,1st,-0.31675144200820676,0.2897501245355415,-0.8556863752246574
perc,resp,2445,1,2.3.3left.bmp,2.3.3right.bmp,,ACC019,"[0, 2, 2]","[0, 2, 2]",[],match,1.0,,-2.3807986951311113,-2.3551451925315416,-0.6469848301032035,1st,1st,1st,-1.2477371306253746,-1.215316438197501,-0.8556863752246574
perc,resp,2999,1,1.2.1left.bmp,1.1.3right.bmp,,ACC019,"[-2, 0, -2]","[-2, -2, 2]",[],non-match,0.3545027756320971,2,-2.2317145420360722,0.09084245381669229,-0.7457204048729916,1st,3rd,1st,-1.2477371306253746,0.2897501245355415,-0.8556863752246574
perc,resp,1954,1,1.2.3left.bmp,1.2.3right.bmp,,ACC019,"[-2, 0, 2]","[-2, 0, 2]",[],match,1.0,,-2.25067185640353,-1.0780472665205358,-0.5036257148259815,1st,1st,2nd,-1.2477371306253746,-1.215316438197501,-0.47760446903514503
perc,resp,2286,1,2.1.3left.bmp,2.1.3right.bmp,,ACC019,"[0, -2, 2]","[0, -2, 2]",[],match,1.0,,4.669447880146085,4.60593560936431,-0.309606699383967,4th,4th,2nd,1.2313713336055243,1.2699753137337133,-0.47760446903514503
perc,resp,2282,1,3.1.1left.bmp,3.1.1right.bmp,,ACC019,"[2, -2, -2]","[2, -2, -2]",[],match,1.0,,-0.3955918028826335,-0.5448860645538968,-0.5711797627727172,2nd,2nd,2nd,-0.31675144200820676,-0.32511826295750806,-0.47760446903514503
perc,resp,2481,0,2.1.1left.bmp,2.1.1right.bmp,,ACC019,"[0, -2, -2]","[0, -2, -2]",[],match,1.0,,-2.105015474120242,-0.8720135956882636,-0.5548021133813417,1st,1st,2nd,-1.2477371306253746,-1.215316438197501,-0.47760446903514503
perc,resp,1628,1,1.3.1left.bmp,3.2.3right.bmp,,ACC019,"[-2, 2, -2]","[2, 0, 2]",[],non-match,0.1339745962155613,1,-1.428740630251464,-0.8214427115875276,-0.5845752666322036,1st,1st,2nd,-1.2477371306253746,-1.215316438197501,-0.47760446903514503
perc,resp,1945,1,2.2.3left.bmp,2.2.3right.bmp,,ACC019,"[0, 0, 2]","[0, 0, 2]",[],match,1.0,,-0.24111352943087153,0.5097698451106263,-0.7157295646005977,2nd,3rd,1st,-0.31675144200820676,0.2897501245355415,-0.8556863752246574
perc,resp,1420,1,1.3.2left.bmp,2.2.1right.bmp,,ACC019,"[-2, 2, 0]","[0, 0, -2]",[],non-match,0.5,3,-0.4295368389110113,-0.6990613799494347,-0.9110685329909639,2nd,1st,1st,-0.31675144200820676,-1.215316438197501,-0.8556863752246574
perc,resp,2409,0,3.1.2left.bmp,2.3.1right.bmp,,ACC019,"[2, -2, 0]","[0, 2, -2]",[],non-match,0.29289321881345254,1,-0.962613738643211,-0.1972298614418423,-0.8632317301964487,1st,2nd,1st,-1.2477371306253746,-0.32511826295750806,-0.8556863752246574
perc,resp,2029,1,1.3.3left.bmp,1.3.3right.bmp,,ACC019,"[-2, 2, 2]","[-2, 2, 2]",[],match,1.0,,1.0300010588902055,0.2616732067588726,-1.0434366502839096,4th,3rd,1st,1.2313713336055243,0.2897501245355415,-0.8556863752246574
perc,resp,3526,1,3.1.3left.bmp,3.1.3right.bmp,,ACC019,"[2, -2, 2]","[2, -2, 2]",[],match,1.0,,-1.3109807909058462,-0.210546350175474,-1.2881178303244187,1st,2nd,1st,-1.2477371306253746,-0.32511826295750806,-0.8556863752246574
perc,resp,1553,1,3.3.2left.bmp,3.3.2right.bmp,,ACC019,"[2, 2, 0]","[2, 2, 0]",[],match,1.0,,-1.4647742594370194,-0.8072108277844221,-1.3284782197414617,1st,1st,1st,-1.2477371306253746,-1.215316438197501,-0.8556863752246574
perc,resp,1018,1,2.2.2left.bmp,3.2.2right.bmp,,ACC019,"[0, 0, 0]","[2, 0, 0]",[],non-match,0.7113248654051871,4,0.45605330398231264,0.15157206148908178,-1.106465551143628,3rd,3rd,1st,0.35292259030782513,0.2897501245355415,-0.8556863752246574
perc,resp,935,1,1.1.3left.bmp,1.1.2right.bmp,,ACC019,"[-2, -2, 2]","[-2, -2, 0]",[],non-match,0.7113248654051871,4,-0.45863789564834095,1.9641776311990615,-1.2099564785367196,2nd,4th,1st,-0.31675144200820676,1.2699753137337133,-0.8556863752246574
perc,resp,1056,1,3.3.1left.bmp,1.3.1right.bmp,,ACC019,"[2, 2, -2]","[-2, 2, -2]",[],non-match,0.42264973081037416,2,-0.7634743681639323,-0.8146775652571447,-1.0954203543038628,1st,1st,1st,-1.2477371306253746,-1.215316438197501,-0.8556863752246574
perc,resp,1327,1,3.2.1left.bmp,3.2.1right.bmp,,ACC019,"[2, 0, -2]","[2, 0, -2]",[],match,1.0,,-0.6004456624134207,-0.2551746658874982,-0.8744897584660908,2nd,2nd,1st,-0.31675144200820676,-0.32511826295750806,-0.8556863752246574
perc,resp,815,1,2.2.1left.bmp,1.2.3right.bmp,,ACC019,"[0, 0, -2]","[-2, 0, 2]",[],non-match,0.3545027756320971,2,0.4981676275888985,-0.6211992041610874,-0.7068546426733603,3rd,2nd,1st,0.35292259030782513,-0.32511826295750806,-0.8556863752246574
perc,resp,977,1,1.1.1left.bmp,1.1.1right.bmp,,ACC019,"[-2, -2, -2]","[-2, -2, -2]",[],match,1.0,,-0.6500803003824269,-1.2141837266488245,-0.9190721617133766,1st,1st,1st,-1.2477371306253746,-1.215316438197501,-0.8556863752246574
perc,resp,989,0,2.3.3left.bmp,1.2.2right.bmp,,ACC019,"[0, 2, 2]","[-2, 0, 0]",[],non-match,0.5,3,-0.48255169196114667,1.0282014015528869,-0.9649222577202581,2nd,4th,1st,-0.31675144200820676,1.2699753137337133,-0.8556863752246574
perc,resp,1185,1,3.3.3left.bmp,2.2.3right.bmp,,ACC019,"[2, 2, 2]","[0, 0, 2]",[],non-match,0.5917517095361369,3,0.6732975995259337,1.0359154520777039,-1.0963790376379143,3rd,4th,1st,0.35292259030782513,1.2699753137337133,-0.8556863752246574
perc,resp,1428,1,1.1.2left.bmp,1.1.2right.bmp,,ACC019,"[-2, -2, 0]","[-2, -2, 0]",[],match,1.0,,0.7391461308445497,1.0064064077538204,-0.9206049130532421,4th,4th,1st,1.2313713336055243,1.2699753137337133,-0.8556863752246574
perc,resp,2026,1,3.2.2left.bmp,3.2.2right.bmp,,ACC019,"[2, 0, 0]","[2, 0, 0]",[],match,1.0,,-0.8058573560657021,-0.31005396895478715,-0.9726820765832471,1st,2nd,1st,-1.2477371306253746,-0.32511826295750806,-0.8556863752246574
perc,resp,869,1,1.2.2left.bmp,1.2.2right.bmp,,ACC019,"[-2, 0, 0]","[-2, 0, 0]",[],match,1.0,,-0.5820760256497212,1.5640179385161346,-0.986157593955498,2nd,4th,1st,-0.31675144200820676,1.2699753137337133,-0.8556863752246574
perc,resp,1966,0,2.1.2left.bmp,2.1.2right.bmp,,ACC019,"[0, -2, 0]","[0, -2, 0]",[],match,1.0,,0.21213889575608044,-0.8731253977343073,-0.794853848779249,3rd,1st,1st,0.35292259030782513,-1.215316438197501,-0.8556863752246574
perc,resp,1137,1,2.3.2left.bmp,1.1.1right.bmp,,ACC019,"[0, 2, 0]","[-2, -2, -2]",[],non-match,0.29289321881345254,1,-0.7557588769811159,-1.8541071584637034,-0.718544865377853,1st,1st,1st,-1.2477371306253746,-1.215316438197501,-0.8556863752246574
perc,resp,816,1,3.2.3left.bmp,3.2.3right.bmp,,ACC019,"[2, 0, 2]","[2, 0, 2]",[],match,1.0,,1.117770736342592,0.43258634438276755,-0.7024677553800034,4th,3rd,1st,1.2313713336055243,0.2897501245355415,-0.8556863752246574
perc,resp,1913,1,3.3.3left.bmp,3.3.3right.bmp,,ACC019,"[2, 2, 2]","[2, 2, 2]",[],match,1.0,,-0.8271716561103079,0.9631493934326986,-0.5830215838251586,1st,4th,2nd,-1.2477371306253746,1.2699753137337133,-0.47760446903514503
perc,resp,915,1,3.1.2left.bmp,1.3.2right.bmp,,ACC019,"[2, -2, 0]","[-2, 2, 0]",[],non-match,0.18350341907227385,1,0.3866003712397678,0.6118373486036285,-0.4677544065973813,3rd,3rd,2nd,0.35292259030782513,0.2897501245355415,-0.47760446903514503
perc,resp,883,1,3.1.1left.bmp,2.3.2right.bmp,,ACC019,"[2, -2, -2]","[0, 2, 0]",[],non-match,0.29289321881345254,1,0.5457585820982379,-1.7284385648122562,-0.3058720493435804,3rd,1st,2nd,0.35292259030782513,-1.215316438197501,-0.47760446903514503
perc,resp,940,1,1.2.3left.bmp,2.2.1right.bmp,,ACC019,"[-2, 0, 2]","[0, 0, -2]",[],non-match,0.3545027756320971,2,0.14418984646082733,0.3440305138365096,-0.17004141962434013,3rd,3rd,3rd,0.35292259030782513,0.2897501245355415,-0.051306383722738505
perc,resp,2577,0,1.2.2left.bmp,1.3.3right.bmp,,ACC019,"[-2, 0, 0]","[-2, 2, 2]",[],non-match,0.5917517095361369,3,-0.7529525990920307,-0.2577431496971246,-0.08167351249017915,1st,2nd,3rd,-1.2477371306253746,-0.32511826295750806,-0.051306383722738505
perc,resp,2292,1,2.3.1left.bmp,2.3.1right.bmp,,ACC019,"[0, 2, -2]","[0, 2, -2]",[],match,1.0,,-0.008980178131123487,0.7635193459556561,-0.09243952876279832,2nd,4th,3rd,-0.31675144200820676,1.2699753137337133,-0.051306383722738505
perc,resp,2270,1,1.1.2left.bmp,1.1.2right.bmp,,ACC019,"[-2, -2, 0]","[-2, -2, 0]",[],match,1.0,,0.5395765950495502,0.42051952308241336,-0.31700024040365277,3rd,3rd,2nd,0.35292259030782513,0.2897501245355415,-0.47760446903514503
perc,resp,3245,1,1.2.1left.bmp,1.2.1right.bmp,,ACC019,"[-2, 0, -2]","[-2, 0, -2]",[],match,1.0,,1.07080801240388,1.7138387658610597,-0.24719641347286753,4th,4th,3rd,1.2313713336055243,1.2699753137337133,-0.051306383722738505
perc,resp,3654,1,3.3.2left.bmp,3.3.2right.bmp,,ACC019,"[2, 2, 0]","[2, 2, 0]",[],match,1.0,,-2.5159392056160432,-1.2200482922892675,-0.25018854226275145,1st,1st,3rd,-1.2477371306253746,-1.215316438197501,-0.051306383722738505
perc,resp,2000,0,2.1.2left.bmp,2.1.2right.bmp,,ACC019,"[0, -2, 0]","[0, -2, 0]",[],match,1.0,,-0.1887898876712694,0.4472048583586688,-0.07393656769423516,2nd,3rd,3rd,-0.31675144200820676,0.2897501245355415,-0.051306383722738505
perc,resp,1434,1,2.2.2left.bmp,1.2.2right.bmp,,ACC019,"[0, 0, 0]","[-2, 0, 0]",[],non-match,0.7113248654051871,4,-1.45839884568685,-2.119928982249609,-0.13959064167831822,1st,1st,3rd,-1.2477371306253746,-1.215316438197501,-0.051306383722738505
perc,resp,2069,1,2.2.1left.bmp,3.2.3right.bmp,,ACC019,"[0, 0, -2]","[2, 0, 2]",[],non-match,0.3545027756320971,2,-1.1917516845786007,-0.034055121487179506,-0.26684013048685423,1st,3rd,3rd,-1.2477371306253746,0.2897501245355415,-0.051306383722738505
perc,resp,954,1,3.1.1left.bmp,1.1.1right.bmp,,ACC019,"[2, -2, -2]","[-2, -2, -2]",[],non-match,0.42264973081037416,2,-0.639114274317368,-1.3257254264021416,-0.2528569150029071,2nd,1st,3rd,-0.31675144200820676,-1.215316438197501,-0.051306383722738505
perc,resp,914,1,3.3.1left.bmp,1.2.3right.bmp,,ACC019,"[2, 2, -2]","[-2, 0, 2]",[],non-match,0.1339745962155613,1,0.17544669479428576,-0.42733083081437584,-0.32385377239359786,3rd,2nd,2nd,0.35292259030782513,-0.32511826295750806,-0.47760446903514503
perc,resp,1435,1,1.3.3left.bmp,2.2.2right.bmp,,ACC019,"[-2, 2, 2]","[0, 0, 0]",[],non-match,0.5,3,-0.5215775777135325,-0.19309250056365027,-0.3666205213326003,2nd,2nd,2nd,-0.31675144200820676,-0.32511826295750806,-0.47760446903514503
perc,resp,2290,1,1.3.1left.bmp,1.1.2right.bmp,,ACC019,"[-2, 2, -2]","[-2, -2, 0]",[],non-match,0.3545027756320971,2,-0.1602292908008085,1.0194403474949034,-0.2971206310395835,2nd,4th,2nd,-0.31675144200820676,1.2699753137337133,-0.47760446903514503
perc,resp,908,1,3.1.3left.bmp,1.2.2right.bmp,,ACC019,"[2, -2, 2]","[-2, 0, 0]",[],non-match,0.29289321881345254,1,-0.36903301513077086,-1.6401672676653014,-0.2535626090320159,2nd,1st,3rd,-0.31675144200820676,-1.215316438197501,-0.051306383722738505
perc,resp,2175,1,1.1.1left.bmp,1.1.1right.bmp,,ACC019,"[-2, -2, -2]","[-2, -2, -2]",[],match,1.0,,-0.33185141272380314,-0.1395602535072977,-0.043850933622941554,2nd,2nd,3rd,-0.31675144200820676,-0.32511826295750806,-0.051306383722738505
perc,resp,983,1,3.2.3left.bmp,1.3.2right.bmp,,ACC019,"[2, 0, 2]","[-2, 2, 0]",[],non-match,0.29289321881345254,1,-0.1265543393891444,0.756697667883804,-0.04528723959682177,2nd,4th,3rd,-0.31675144200820676,1.2699753137337133,-0.051306383722738505
perc,resp,1888,1,3.3.3left.bmp,2.1.3right.bmp,,ACC019,"[2, 2, 2]","[0, -2, 2]",[],non-match,0.3545027756320971,2,-1.0321547316140516,0.3112382685368132,-0.009808344565230047,1st,3rd,3rd,-1.2477371306253746,0.2897501245355415,-0.051306383722738505
perc,resp,885,1,1.1.3left.bmp,3.3.2right.bmp,,ACC019,"[-2, -2, 2]","[2, 2, 0]",[],non-match,0.1339745962155613,1,1.3256807960957195,0.6086876371437442,-0.12910024135556195,4th,3rd,3rd,1.2313713336055243,0.2897501245355415,-0.051306383722738505
perc,resp,1505,1,3.2.1left.bmp,3.3.1right.bmp,,ACC019,"[2, 0, -2]","[2, 2, -2]",[],non-match,0.7113248654051871,4,0.8523040258209015,0.3060123333480534,-0.28705127807101505,4th,3rd,3rd,1.2313713336055243,0.2897501245355415,-0.051306383722738505
perc,resp,2333,1,2.3.2left.bmp,2.3.2right.bmp,,ACC019,"[0, 2, 0]","[0, 2, 0]",[],match,1.0,,-0.6247922792194446,-0.30129896988151733,-0.047954392645647756,2nd,2nd,3rd,-0.31675144200820676,-0.32511826295750806,-0.051306383722738505
perc,resp,2481,1,1.3.2left.bmp,1.3.2right.bmp,,ACC019,"[-2, 2, 0]","[-2, 2, 0]",[],match,1.0,,-1.327695136541963,-1.031841302916501,0.26467181931921874,1st,1st,3rd,-1.2477371306253746,-1.215316438197501,-0.051306383722738505
perc,resp,2129,1,3.1.2left.bmp,3.1.2right.bmp,,ACC019,"[2, -2, 0]","[2, -2, 0]",[],match,1.0,,-0.4489860322141928,-1.2297594370316811,0.399523948324303,2nd,1st,4th,-0.31675144200820676,-1.215316438197501,1.398179551398806
perc,resp,825,1,3.2.2left.bmp,1.3.1right.bmp,,ACC019,"[2, 0, 0]","[-2, 2, -2]",[],non-match,0.29289321881345254,1,1.2836210224400029,-0.8274082978225396,0.18116165409929474,4th,1st,3rd,1.2313713336055243,-1.215316438197501,-0.051306383722738505
perc,resp,2021,1,2.1.3left.bmp,2.1.3right.bmp,,ACC019,"[0, -2, 2]","[0, -2, 2]",[],match,1.0,,0.6959120657474717,0.41986812884459507,0.14147081118550295,4th,3rd,3rd,1.2313713336055243,0.2897501245355415,-0.051306383722738505
perc,resp,2117,1,2.2.3left.bmp,2.2.3right.bmp,,ACC019,"[0, 0, 2]","[0, 0, 2]",[],match,1.0,,-0.06535313800715582,-0.5784440284994751,-0.04590616201188672,2nd,2nd,3rd,-0.31675144200820676,-0.32511826295750806,-0.051306383722738505
perc,resp,1893,1,3.2.2left.bmp,3.2.2right.bmp,,ACC019,"[2, 0, 0]","[2, 0, 0]",[],match,1.0,,-0.8595908121014588,-1.9401828558228695,0.3882960110812986,1st,1st,4th,-1.2477371306253746,-1.215316438197501,1.398179551398806
perc,resp,1524,1,2.2.1left.bmp,2.2.1right.bmp,,ACC019,"[0, 0, -2]","[0, 0, -2]",[],match,1.0,,1.039912067901607,1.1024724546336206,0.36609432058108715,4th,4th,4th,1.2313713336055243,1.2699753137337133,1.398179551398806
perc,resp,2483,1,3.1.1left.bmp,3.1.1right.bmp,,ACC019,"[2, -2, -2]","[2, -2, -2]",[],match,1.0,,1.5412627716471863,-0.20653278574944658,0.48506576021175846,4th,2nd,4th,1.2313713336055243,-0.32511826295750806,1.398179551398806
perc,resp,1847,1,1.1.3left.bmp,1.3.1right.bmp,,ACC019,"[-2, -2, 2]","[-2, 2, -2]",[],non-match,0.18350341907227385,1,0.6187751240031458,-0.42544176303763154,0.47160135034019623,3rd,2nd,4th,0.35292259030782513,-0.32511826295750806,1.398179551398806
perc,resp,1678,1,3.1.3left.bmp,3.1.3right.bmp,,ACC019,"[2, -2, 2]","[2, -2, 2]",[],match,1.0,,-0.7910246436629045,-1.1326055218321778,0.5987304738997172,1st,1st,4th,-1.2477371306253746,-1.215316438197501,1.398179551398806
perc,resp,2688,0,1.1.1left.bmp,2.1.2right.bmp,,ACC019,"[-2, -2, -2]","[0, -2, 0]",[],non-match,0.5917517095361369,3,-0.4953997550320389,-1.561317191227663,0.5939838841702345,2nd,1st,4th,-0.31675144200820676,-1.215316438197501,1.398179551398806
perc,resp,3508,1,1.3.2left.bmp,1.3.2right.bmp,,ACC019,"[-2, 2, 0]","[-2, 2, 0]",[],match,1.0,,-0.33397328066597787,-0.7549795120025129,0.6629948120095477,2nd,1st,4th,-0.31675144200820676,-1.215316438197501,1.398179551398806
perc,resp,2307,1,2.1.3left.bmp,2.2.1right.bmp,,ACC019,"[0, -2, 2]","[0, 0, -2]",[],non-match,0.3545027756320971,2,-1.1359526765509462,-0.6176549010503453,0.8176611577860745,1st,2nd,4th,-1.2477371306253746,-0.32511826295750806,1.398179551398806
perc,resp,1047,1,2.3.2left.bmp,3.1.2right.bmp,,ACC019,"[0, 2, 0]","[2, -2, 0]",[],non-match,0.3545027756320971,2,-0.3714980650675474,-0.2244084235611137,1.3575102021935024,2nd,2nd,4th,-0.31675144200820676,-0.32511826295750806,1.398179551398806
perc,resp,772,1,1.2.3left.bmp,3.3.1right.bmp,,ACC019,"[-2, 0, 2]","[2, 2, -2]",[],non-match,0.1339745962155613,1,1.2002090523704905,0.23028767687831747,1.1176057886806972,4th,3rd,4th,1.2313713336055243,0.2897501245355415,1.398179551398806
perc,resp,2813,1,2.2.2left.bmp,2.2.2right.bmp,,ACC019,"[0, 0, 0]","[0, 0, 0]",[],match,1.0,,1.0096023498119713,1.9644851633638303,1.1291899870593378,4th,4th,4th,1.2313713336055243,1.2699753137337133,1.398179551398806
perc,resp,1839,1,2.3.3left.bmp,2.2.3right.bmp,,ACC019,"[0, 2, 2]","[0, 0, 2]",[],non-match,0.7113248654051871,4,0.5902084090200809,-1.4616254821502435,1.0293747389939916,3rd,1st,4th,0.35292259030782513,-1.215316438197501,1.398179551398806
perc,resp,1560,1,3.3.2left.bmp,3.2.1right.bmp,,ACC019,"[2, 2, 0]","[2, 0, -2]",[],non-match,0.5917517095361369,3,-1.5565329374589094,-1.471799576923899,0.758433362402253,1st,1st,4th,-1.2477371306253746,-1.215316438197501,1.398179551398806
perc,resp,1601,1,3.2.3left.bmp,2.2.1right.bmp,,ACC019,"[2, 0, 2]","[0, 0, -2]",[],non-match,0.3545027756320971,2,-1.0928462956911513,-1.0526180050676348,0.5370706703121659,1st,1st,4th,-1.2477371306253746,-1.215316438197501,1.398179551398806
perc,resp,1705,1,1.3.1left.bmp,1.3.1right.bmp,,ACC019,"[-2, 2, -2]","[-2, 2, -2]",[],match,1.0,,0.22163997128044874,-0.9005604476067756,0.44413982624636666,3rd,1st,4th,0.35292259030782513,-1.215316438197501,1.398179551398806
perc,resp,882,1,2.1.1left.bmp,1.2.1right.bmp,,ACC019,"[0, -2, -2]","[-2, 0, -2]",[],non-match,0.5917517095361369,3,0.7245627831382674,-0.3650571447975778,0.31488891478693487,4th,2nd,4th,1.2313713336055243,-0.32511826295750806,1.398179551398806
perc,resp,1059,1,3.2.1left.bmp,1.2.2right.bmp,,ACC019,"[2, 0, -2]","[-2, 0, 0]",[],non-match,0.3545027756320971,2,-0.30059463562193045,-0.19199553068604314,0.3277782823053998,2nd,2nd,4th,-0.31675144200820676,-0.32511826295750806,1.398179551398806
perc,resp,823,1,2.3.1left.bmp,1.2.3right.bmp,,ACC019,"[0, 2, -2]","[-2, 0, 2]",[],non-match,0.29289321881345254,1,0.22673743010556174,0.04425608198187381,0.29994927986687725,3rd,3rd,4th,0.35292259030782513,0.2897501245355415,1.398179551398806
perc,resp,1766,1,3.3.3left.bmp,3.1.3right.bmp,,ACC019,"[2, 2, 2]","[2, -2, 2]",[],non-match,0.42264973081037416,2,-0.00687207680302307,0.6917077360774836,0.27710914368510486,2nd,4th,4th,-0.31675144200820676,1.2699753137337133,1.398179551398806
perc,resp,2182,1,3.1.2left.bmp,3.1.2right.bmp,,ACC019,"[2, -2, 0]","[2, -2, 0]",[],match,1.0,,-0.6628164378142943,-0.8155420097291473,0.24276940072508443,1st,1st,3rd,-1.2477371306253746,-1.215316438197501,-0.051306383722738505
perc,resp,2502,1,2.1.2left.bmp,3.2.2right.bmp,,ACC019,"[0, -2, 0]","[2, 0, 0]",[],non-match,0.5917517095361369,3,-1.1405309662461147,0.3616290470536478,0.06342180774423593,1st,3rd,3rd,-1.2477371306253746,0.2897501245355415,-0.051306383722738505
perc,resp,750,1,3.3.1left.bmp,1.1.3right.bmp,,ACC019,"[2, 2, -2]","[-2, -2, 2]",[],non-match,0.0,1,0.9579143620462638,-0.5622161479248766,-0.023571097666133772,4th,2nd,3rd,1.2313713336055243,-0.32511826295750806,-0.051306383722738505
perc,resp,733,1,1.2.1left.bmp,3.3.3right.bmp,,ACC019,"[-2, 0, -2]","[2, 2, 2]",[],non-match,0.1339745962155613,1,0.9550334406814734,-0.19566271436890942,0.09979560998817885,4th,2nd,3rd,1.2313713336055243,-0.32511826295750806,-0.051306383722738505
perc,resp,1130,1,2.2.3left.bmp,1.1.1right.bmp,,ACC019,"[0, 0, 2]","[-2, -2, -2]",[],non-match,0.29289321881345254,1,0.4422520150590888,-0.3038156555866213,0.09553077516463042,3rd,2nd,3rd,0.35292259030782513,-0.32511826295750806,-0.051306383722738505
perc,resp,1239,1,1.2.2left.bmp,2.3.1right.bmp,,ACC019,"[-2, 0, 0]","[0, 2, -2]",[],non-match,0.5,3,0.4727655199868847,-1.2873641828505675,-0.057382671074272015,3rd,1st,3rd,0.35292259030782513,-1.215316438197501,-0.051306383722738505
perc,resp,1410,1,1.3.3left.bmp,1.3.3right.bmp,,ACC019,"[-2, 2, 2]","[-2, 2, 2]",[],match,1.0,,0.07332122543928231,0.4431401827381489,0.09243257661422492,3rd,3rd,3rd,0.35292259030782513,0.2897501245355415,-0.051306383722738505
perc,resp,1584,1,1.1.2left.bmp,1.1.2right.bmp,,ACC019,"[-2, -2, 0]","[-2, -2, 0]",[],match,1.0,,-0.4305105337823529,-0.8172867421258005,-0.07805510941371725,2nd,1st,3rd,-0.31675144200820676,-1.215316438197501,-0.051306383722738505
perc,resp,1747,1,2.3.3left.bmp,2.3.3right.bmp,,ACC019,"[0, 2, 2]","[0, 2, 2]",[],match,1.0,,-1.2012653955702137,-1.7157827014650127,-0.21621178045995013,1st,1st,3rd,-1.2477371306253746,-1.215316438197501,-0.051306383722738505
perc,resp,1468,0,3.3.2left.bmp,3.2.2right.bmp,,ACC019,"[2, 2, 0]","[2, 0, 0]",[],non-match,0.7113248654051871,4,-0.706944142451719,-0.5874936229319395,-0.1901264194678438,1st,2nd,3rd,-1.2477371306253746,-0.32511826295750806,-0.051306383722738505
perc,resp,1934,0,1.3.2left.bmp,1.2.1right.bmp,,ACC019,"[-2, 2, 0]","[-2, 0, -2]",[],non-match,0.5917517095361369,3,-0.5454783068391107,0.2285339701293212,0.0014623910425628354,2nd,3rd,3rd,-0.31675144200820676,0.2897501245355415,-0.051306383722738505
perc,resp,1515,0,2.2.1left.bmp,2.2.1right.bmp,,ACC019,"[0, 0, -2]","[0, 0, -2]",[],match,1.0,,0.22572761344571562,-0.35865555037104907,0.051480097497703305,3rd,2nd,3rd,0.35292259030782513,-0.32511826295750806,-0.051306383722738505
perc,resp,966,1,1.2.3left.bmp,3.2.3right.bmp,,ACC019,"[-2, 0, 2]","[2, 0, 2]",[],non-match,0.42264973081037416,2,1.9185995447073447,2.359061753083246,0.2089180731481244,4th,4th,3rd,1.2313713336055243,1.2699753137337133,-0.051306383722738505
perc,resp,3361,1,2.3.1left.bmp,3.3.2right.bmp,,ACC019,"[0, 2, -2]","[2, 2, 0]",[],non-match,0.5917517095361369,3,0.5976751261833767,1.044258050721547,0.04008144256544969,3rd,4th,3rd,0.35292259030782513,1.2699753137337133,-0.051306383722738505
perc,resp,888,1,1.1.1left.bmp,1.3.1right.bmp,,ACC019,"[-2, -2, -2]","[-2, 2, -2]",[],non-match,0.42264973081037416,2,1.217838576033219,2.3643076086628905,0.009478871375097678,4th,4th,3rd,1.2313713336055243,1.2699753137337133,-0.051306383722738505
perc,resp,1713,1,2.3.3left.bmp,2.3.3right.bmp,,ACC019,"[0, 2, 2]","[0, 2, 2]",[],match,1.0,,-1.1273905632024805,0.11787591891257508,0.3153433795473955,1st,3rd,4th,-1.2477371306253746,0.2897501245355415,1.398179551398806
perc,resp,1624,1,3.1.2left.bmp,3.1.2right.bmp,,ACC019,"[2, -2, 0]","[2, -2, 0]",[],match,1.0,,-1.5161674589058123,0.6097439012417659,0.2668603797448635,1st,3rd,3rd,-1.2477371306253746,0.2897501245355415,-0.051306383722738505
perc,resp,1450,1,2.2.3left.bmp,1.1.3right.bmp,,ACC019,"[0, 0, 2]","[-2, -2, 2]",[],non-match,0.5917517095361369,3,2.111412629595327,1.2542434449962672,0.37444073142627227,4th,4th,4th,1.2313713336055243,1.2699753137337133,1.398179551398806
perc,resp,1906,0,3.1.1left.bmp,3.1.1right.bmp,,ACC019,"[2, -2, -2]","[2, -2, -2]",[],match,1.0,,0.8231141318529683,0.4684149101050901,0.44438035272268783,4th,3rd,4th,1.2313713336055243,0.2897501245355415,1.398179551398806
perc,resp,1839,1,1.2.1left.bmp,1.2.1right.bmp,,ACC019,"[-2, 0, -2]","[-2, 0, -2]",[],match,1.0,,-0.5310123430913952,-0.2093862608983967,0.3589267928116442,2nd,2nd,4th,-0.31675144200820676,-0.32511826295750806,1.398179551398806
perc,resp,1488,1,1.3.2left.bmp,1.1.1right.bmp,,ACC019,"[-2, 2, 0]","[-2, -2, -2]",[],non-match,0.3545027756320971,2,0.5744820355034518,-0.47917911793094087,0.3370250439059628,3rd,2nd,4th,0.35292259030782513,-0.32511826295750806,1.398179551398806
perc,resp,1164,1,3.2.1left.bmp,3.2.1right.bmp,,ACC019,"[2, 0, -2]","[2, 0, -2]",[],match,1.0,,-1.449989727630713,-0.7936422176284825,0.336848362247679,1st,1st,4th,-1.2477371306253746,-1.215316438197501,1.398179551398806
perc,resp,1847,0,3.1.3left.bmp,3.1.3right.bmp,,ACC019,"[2, -2, 2]","[2, -2, 2]",[],match,1.0,,0.048485065281223295,0.18173832606548687,0.5060847723261486,3rd,3rd,4th,0.35292259030782513,0.2897501245355415,1.398179551398806
perc,resp,1125,1,2.1.3left.bmp,2.1.3right.bmp,,ACC019,"[0, -2, 2]","[0, -2, 2]",[],match,1.0,,0.07591395404139233,-1.656078463635002,0.4149104026022924,3rd,1st,4th,0.35292259030782513,-1.215316438197501,1.398179551398806
perc,resp,900,1,1.1.3left.bmp,1.1.3right.bmp,,ACC019,"[-2, -2, 2]","[-2, -2, 2]",[],match,1.0,,0.18990623393928494,-0.47916149996071405,0.3025315891725733,3rd,2nd,4th,0.35292259030782513,-0.32511826295750806,1.398179551398806
perc,resp,1298,1,3.2.3left.bmp,3.2.2right.bmp,,ACC019,"[2, 0, 2]","[2, 0, 0]",[],non-match,0.7113248654051871,4,-0.3252366544136948,0.39266521958090905,0.378296174715647,2nd,3rd,4th,-0.31675144200820676,0.2897501245355415,1.398179551398806
perc,resp,824,1,2.3.2left.bmp,3.2.1right.bmp,,ACC019,"[0, 2, 0]","[2, 0, -2]",[],non-match,0.5,3,-0.3908825139801931,0.11330254825279672,0.01683064615664073,2nd,3rd,3rd,-0.31675144200820676,0.2897501245355415,-0.051306383722738505
perc,resp,1112,1,1.3.3left.bmp,1.3.3right.bmp,,ACC019,"[-2, 2, 2]","[-2, 2, 2]",[],match,1.0,,-1.0192748747452232,-0.197675411640519,-0.08729208803587975,1st,2nd,3rd,-1.2477371306253746,-0.32511826295750806,-0.051306383722738505
perc,resp,1098,1,1.1.2left.bmp,1.1.2right.bmp,,ACC019,"[-2, -2, 0]","[-2, -2, 0]",[],match,1.0,,-1.2087279877406734,-0.7766827015480574,-0.14498578971667253,1st,1st,3rd,-1.2477371306253746,-1.215316438197501,-0.051306383722738505
perc,resp,997,1,1.2.2left.bmp,2.2.2right.bmp,,ACC019,"[-2, 0, 0]","[0, 0, 0]",[],non-match,0.7113248654051871,4,0.5516748349148711,0.7238299388040886,0.08834282847654013,3rd,4th,3rd,0.35292259030782513,1.2699753137337133,-0.051306383722738505
perc,resp,1184,1,2.1.2left.bmp,3.1.2right.bmp,,ACC019,"[0, -2, 0]","[2, -2, 0]",[],non-match,0.7113248654051871,4,-0.08449508545370572,-0.337548331600306,0.005699453671161341,2nd,2nd,3rd,-0.31675144200820676,-0.32511826295750806,-0.051306383722738505
perc,resp,1345,1,3.2.2left.bmp,2.1.3right.bmp,,ACC019,"[2, 0, 0]","[0, -2, 2]",[],non-match,0.5,3,1.1554128158302177,0.6510491751962074,-0.1616658309396218,4th,4th,3rd,1.2313713336055243,1.2699753137337133,-0.051306383722738505
perc,resp,1314,1,3.3.1left.bmp,3.1.3right.bmp,,ACC019,"[2, 2, -2]","[2, -2, 2]",[],non-match,0.18350341907227385,1,0.9765000372454102,-0.17142410173909528,-0.4025736365550011,4th,2nd,2nd,1.2313713336055243,-0.32511826295750806,-0.47760446903514503
perc,resp,1123,0,2.1.1left.bmp,2.1.1right.bmp,,ACC019,"[0, -2, -2]","[0, -2, -2]",[],match,1.0,,-0.6861417346577063,-0.07358112037482269,-0.46733227330000116,1st,2nd,2nd,-1.2477371306253746,-0.32511826295750806,-0.47760446903514503
perc,resp,970,1,3.3.3left.bmp,3.1.1right.bmp,,ACC019,"[2, 2, 2]","[2, -2, -2]",[],non-match,0.18350341907227385,1,-0.7221537222783494,0.5426818926078654,-0.5111284479223824,1st,3rd,2nd,-1.2477371306253746,0.2897501245355415,-0.47760446903514503
perc,resp,995,1,2.2.1left.bmp,2.2.1right.bmp,,ACC019,"[0, 0, -2]","[0, 0, -2]",[],match,1.0,,1.547058142534949,1.279352245429172,-0.3837936559880667,4th,4th,2nd,1.2313713336055243,1.2699753137337133,-0.47760446903514503
perc,resp,1626,1,1.3.1left.bmp,1.3.1right.bmp,,ACC019,"[-2, 2, -2]","[-2, 2, -2]",[],match,1.0,,1.1634368425465251,1.0939201194604626,-0.2575019818693464,4th,4th,3rd,1.2313713336055243,1.2699753137337133,-0.051306383722738505
perc,resp,994,1,2.2.2left.bmp,2.3.1right.bmp,,ACC019,"[0, 0, 0]","[0, 2, -2]",[],non-match,0.5917517095361369,3,0.09011135029430566,0.5315389907396554,-0.36903602851964606,3rd,3rd,2nd,0.35292259030782513,0.2897501245355415,-0.47760446903514503
perc,resp,1082,1,3.3.2left.bmp,2.1.3right.bmp,,ACC019,"[2, 2, 0]","[0, -2, 2]",[],non-match,0.29289321881345254,1,0.8534620151690063,0.03529442475387043,-0.5297904277104476,4th,3rd,2nd,1.2313713336055243,0.2897501245355415,-0.47760446903514503
perc,resp,1009,1,2.2.3left.bmp,1.1.2right.bmp,,ACC019,"[0, 0, 2]","[-2, -2, 0]",[],non-match,0.5,3,0.19200405644614815,-0.5859298595269343,-0.4165384234239249,3rd,2nd,2nd,0.35292259030782513,-0.32511826295750806,-0.47760446903514503
perc,resp,925,1,1.1.1left.bmp,2.3.3right.bmp,,ACC019,"[-2, -2, -2]","[0, 2, 2]",[],non-match,0.1339745962155613,1,0.3190994447229682,-1.3230757512579716,-0.8459953037489323,3rd,1st,1st,0.35292259030782513,-1.215316438197501,-0.8556863752246574
perc,resp,892,1,3.1.3left.bmp,2.2.1right.bmp,,ACC019,"[2, -2, 2]","[0, 0, -2]",[],non-match,0.29289321881345254,1,0.6237271095867994,-0.4991008699151464,-0.8424496629182341,3rd,2nd,1st,0.35292259030782513,-0.32511826295750806,-0.8556863752246574
perc,resp,907,1,2.2.2left.bmp,1.2.1right.bmp,,ACC019,"[0, 0, 0]","[-2, 0, -2]",[],non-match,0.5917517095361369,3,0.7905366492353203,-0.16520525082179383,-0.642791963525706,4th,2nd,1st,1.2313713336055243,-0.32511826295750806,-0.8556863752246574
perc,resp,956,1,2.1.1left.bmp,2.1.1right.bmp,,ACC019,"[0, -2, -2]","[0, -2, -2]",[],match,1.0,,0.3975759726951554,-0.3652897274456849,-0.5516883009703437,3rd,2nd,2nd,0.35292259030782513,-0.32511826295750806,-0.47760446903514503
perc,resp,952,1,1.2.3left.bmp,2.1.3right.bmp,,ACC019,"[-2, 0, 2]","[0, -2, 2]",[],non-match,0.5917517095361369,3,-1.2595202122750266,-0.5929482641793289,-0.355284649582985,1st,2nd,2nd,-1.2477371306253746,-0.32511826295750806,-0.47760446903514503
perc,resp,1483,1,2.2.1left.bmp,3.1.3right.bmp,,ACC019,"[0, 0, -2]","[2, -2, 2]",[],non-match,0.29289321881345254,1,2.0364485607362157,1.4647563861744162,-0.25108184522225685,4th,4th,3rd,1.2313713336055243,1.2699753137337133,-0.051306383722738505
perc,resp,958,1,1.1.3left.bmp,2.2.3right.bmp,,ACC019,"[-2, -2, 2]","[0, 0, 2]",[],non-match,0.5917517095361369,3,0.3512287802894214,-0.8983267020513208,-0.3000858965729686,3rd,1st,2nd,0.35292259030782513,-1.215316438197501,-0.47760446903514503
perc,resp,1589,1,3.3.1left.bmp,3.1.1right.bmp,,ACC019,"[2, 2, -2]","[2, -2, -2]",[],non-match,0.42264973081037416,2,0.1865405339660816,1.0255615808645362,-0.34132903208474313,3rd,4th,2nd,0.35292259030782513,1.2699753137337133,-0.47760446903514503
perc,resp,1341,1,3.1.2left.bmp,3.2.2right.bmp,,ACC019,"[2, -2, 0]","[2, 0, 0]",[],non-match,0.7113248654051871,4,1.2342698630024782,0.22800911998378962,-0.4424142061318915,4th,3rd,2nd,1.2313713336055243,0.2897501245355415,-0.47760446903514503
perc,resp,1100,0,2.1.2left.bmp,2.1.2right.bmp,,ACC019,"[0, -2, 0]","[0, -2, 0]",[],match,1.0,,0.03151183641666869,0.6752049515645652,-0.5116872592293031,3rd,4th,2nd,0.35292259030782513,1.2699753137337133,-0.47760446903514503
perc,resp,2296,1,2.3.2left.bmp,2.3.2right.bmp,,ACC019,"[0, 2, 0]","[0, 2, 0]",[],match,1.0,,-0.2117982997621769,-0.326262253512682,-0.35414664440719107,2nd,2nd,2nd,-0.31675144200820676,-0.32511826295750806,-0.47760446903514503
perc,resp,1726,1,1.3.3left.bmp,1.3.3right.bmp,,ACC019,"[-2, 2, 2]","[-2, 2, 2]",[],match,1.0,,-0.109873446379443,-0.7892692211687141,-0.34210102236962264,2nd,1st,2nd,-0.31675144200820676,-1.215316438197501,-0.47760446903514503
perc,resp,1173,1,3.2.3left.bmp,3.2.3right.bmp,,ACC019,"[2, 0, 2]","[2, 0, 2]",[],match,1.0,,0.13166316272477202,0.9104556091124721,-0.26253323487381935,3rd,4th,3rd,0.35292259030782513,1.2699753137337133,-0.051306383722738505
perc,resp,2450,1,3.2.2left.bmp,3.3.3right.bmp,,ACC019,"[2, 0, 0]","[2, 2, 2]",[],non-match,0.5917517095361369,3,-1.1938547197360385,-1.104991275895571,-0.24828247816497537,1st,1st,3rd,-1.2477371306253746,-1.215316438197501,-0.051306383722738505
perc,resp,828,1,3.1.1left.bmp,1.2.3right.bmp,,ACC019,"[2, -2, -2]","[-2, 0, 2]",[],non-match,0.1339745962155613,1,1.1552815894864776,-0.28783525343134725,-0.17909164437149336,4th,2nd,3rd,1.2313713336055243,-0.32511826295750806,-0.051306383722738505
perc,resp,1571,1,2.3.3left.bmp,2.3.3right.bmp,,ACC019,"[0, 2, 2]","[0, 2, 2]",[],match,1.0,,0.5604157420896241,0.33739908440199573,-0.24982192172057785,3rd,3rd,3rd,0.35292259030782513,0.2897501245355415,-0.051306383722738505
perc,resp,896,0,1.2.2left.bmp,1.1.3right.bmp,,ACC019,"[-2, 0, 0]","[-2, -2, 2]",[],non-match,0.5917517095361369,3,-0.6989727245078544,-0.2218168901037968,-0.14177058219296404,1st,2nd,3rd,-1.2477371306253746,-0.32511826295750806,-0.051306383722738505
perc,resp,1537,1,3.3.3left.bmp,2.1.1right.bmp,,ACC019,"[2, 2, 2]","[0, -2, -2]",[],non-match,0.1339745962155613,1,-0.8068243368763646,1.2727540420872454,-0.47798191954022784,1st,4th,2nd,-1.2477371306253746,1.2699753137337133,-0.47760446903514503
perc,resp,892,1,1.2.1left.bmp,3.2.3right.bmp,,ACC019,"[-2, 0, -2]","[2, 0, 2]",[],non-match,0.18350341907227385,1,0.6141236002627706,1.3019706662670303,-0.22844308919093056,3rd,4th,3rd,0.35292259030782513,1.2699753137337133,-0.051306383722738505
perc,resp,1111,1,1.3.2left.bmp,1.3.2right.bmp,,ACC019,"[-2, 2, 0]","[-2, 2, 0]",[],match,1.0,,1.3996771347890304,0.5403600349403029,-0.02276704435304692,4th,3rd,3rd,1.2313713336055243,0.2897501245355415,-0.051306383722738505
perc,resp,988,1,3.2.1left.bmp,3.2.1right.bmp,,ACC019,"[2, 0, -2]","[2, 0, -2]",[],match,1.0,,0.9404426356893484,1.26926158796325,0.03598504447291755,4th,4th,3rd,1.2313713336055243,1.2699753137337133,-0.051306383722738505
perc,resp,1007,0,1.1.2left.bmp,2.1.2right.bmp,,ACC019,"[-2, -2, 0]","[0, -2, 0]",[],non-match,0.7113248654051871,4,0.9237501829704943,1.1215977598785656,0.24659398135140037,4th,4th,3rd,1.2313713336055243,1.2699753137337133,-0.051306383722738505
perc,resp,809,1,3.3.2left.bmp,1.3.3right.bmp,,ACC019,"[2, 2, 0]","[-2, 2, 2]",[],non-match,0.3545027756320971,2,0.9767904398516005,-0.1972161486823444,0.10638112444674015,4th,2nd,3rd,1.2313713336055243,-0.32511826295750806,-0.051306383722738505
perc,resp,2597,1,2.3.1left.bmp,2.3.1right.bmp,,ACC019,"[0, 2, -2]","[0, 2, -2]",[],match,1.0,,-0.9639232926813937,-0.3277751028918148,-0.0741785519724744,1st,2nd,3rd,-1.2477371306253746,-0.32511826295750806,-0.051306383722738505
perc,resp,2296,0,1.3.1left.bmp,1.3.1right.bmp,,ACC019,"[-2, 2, -2]","[-2, 2, -2]",[],match,1.0,,-0.25546175289579903,-0.052264514890058185,0.12254815842788205,2nd,2nd,3rd,-0.31675144200820676,-0.32511826295750806,-0.051306383722738505
perc,resp,1820,0,2.1.3left.bmp,2.1.3right.bmp,,ACC019,"[0, -2, 2]","[0, -2, 2]",[],match,1.0,,-0.20151355012725425,-1.4770197922350958,0.09933641148431191,2nd,1st,3rd,-0.31675144200820676,-1.215316438197501,-0.051306383722738505
perc,resp,765,1,3.1.2left.bmp,1.2.3right.bmp,,ACC019,"[2, -2, 0]","[-2, 0, 2]",[],non-match,0.29289321881345254,1,0.6836283762725077,-0.5587740354017284,0.04025264347476785,4th,2nd,3rd,1.2313713336055243,-0.32511826295750806,-0.051306383722738505
perc,resp,1750,1,3.3.1left.bmp,3.2.2right.bmp,,ACC019,"[2, 2, -2]","[2, 0, 0]",[],non-match,0.5917517095361369,3,-0.2051182366241033,0.6920465099280847,-0.021922430016271838,2nd,4th,3rd,-0.31675144200820676,1.2699753137337133,-0.051306383722738505
perc,resp,1641,1,2.3.3left.bmp,2.3.3right.bmp,,ACC019,"[0, 2, 2]","[0, 2, 2]",[],match,1.0,,-0.16185617735272861,0.5327106048405783,-0.27066842500099897,2nd,3rd,3rd,-0.31675144200820676,0.2897501245355415,-0.051306383722738505
perc,resp,949,1,2.2.3left.bmp,2.2.3right.bmp,,ACC019,"[0, 0, 2]","[0, 0, 2]",[],match,1.0,,1.703295845603232,1.2322833383787566,-0.5142621215943153,4th,4th,2nd,1.2313713336055243,1.2699753137337133,-0.47760446903514503
perc,resp,1430,1,2.2.2left.bmp,1.2.2right.bmp,,ACC019,"[0, 0, 0]","[-2, 0, 0]",[],non-match,0.7113248654051871,4,1.1748337034276348,0.4091421050415664,-0.675591083260797,4th,3rd,1st,1.2313713336055243,0.2897501245355415,-0.8556863752246574
perc,resp,1087,1,1.2.3left.bmp,1.2.3right.bmp,,ACC019,"[-2, 0, 2]","[-2, 0, 2]",[],match,1.0,,-0.1900404142996892,-0.21831034160362017,-0.7559941287632345,2nd,2nd,1st,-0.31675144200820676,-0.32511826295750806,-0.8556863752246574
perc,resp,1083,1,3.1.3left.bmp,3.3.1right.bmp,,ACC019,"[2, -2, 2]","[2, 2, -2]",[],non-match,0.18350341907227385,1,0.7396697766233538,-0.2737723479056769,-0.9044930240478531,4th,2nd,1st,1.2313713336055243,-0.32511826295750806,-0.8556863752246574
perc,resp,1102,1,3.1.1left.bmp,3.1.1right.bmp,,ACC019,"[2, -2, -2]","[2, -2, -2]",[],match,1.0,,-0.7641963944789841,0.04198767609112977,-1.1168042953494792,1st,3rd,1st,-1.2477371306253746,0.2897501245355415,-0.8556863752246574
perc,resp,819,1,3.2.1left.bmp,2.3.2right.bmp,,ACC019,"[2, 0, -2]","[0, 2, 0]",[],non-match,0.5,3,1.2461472271613754,-1.6408031650856263,-0.9806021875672446,4th,1st,1st,1.2313713336055243,-1.215316438197501,-0.8556863752246574
perc,resp,1377,1,1.3.2left.bmp,1.3.2right.bmp,,ACC019,"[-2, 2, 0]","[-2, 2, 0]",[],match,1.0,,-0.41943936884088107,0.8985709970579882,-0.9039113116315205,2nd,4th,1st,-0.31675144200820676,1.2699753137337133,-0.8556863752246574
perc,resp,905,1,1.3.1left.bmp,1.3.1right.bmp,,ACC019,"[-2, 2, -2]","[-2, 2, -2]",[],match,1.0,,0.2362443969363653,0.8365377295518676,-1.0764272606703427,3rd,4th,1st,0.35292259030782513,1.2699753137337133,-0.8556863752246574
perc,resp,725,1,1.2.2left.bmp,1.2.2right.bmp,,ACC019,"[-2, 0, 0]","[-2, 0, 0]",[],match,1.0,,-0.1405406023078855,-0.6924512494960752,-0.8783897327186396,2nd,1st,1st,-0.31675144200820676,-1.215316438197501,-0.8556863752246574
perc,resp,852,1,3.2.3left.bmp,3.2.3right.bmp,,ACC019,"[2, 0, 2]","[2, 0, 2]",[],match,1.0,,-0.22871646026221096,-0.6955303364283785,-0.9278444213998512,2nd,1st,1st,-0.31675144200820676,-1.215316438197501,-0.8556863752246574
perc,resp,839,1,1.1.2left.bmp,2.3.2right.bmp,,ACC019,"[-2, -2, 0]","[0, 2, 0]",[],non-match,0.3545027756320971,2,-0.9374109735838669,-0.9440278058637671,-1.0915838377989873,1st,1st,1st,-1.2477371306253746,-1.215316438197501,-0.8556863752246574
perc,resp,1229,1,1.3.3left.bmp,1.3.3right.bmp,,ACC019,"[-2, 2, 2]","[-2, 2, 2]",[],match,1.0,,0.6334784038158208,0.9207700466016662,-1.183941438854342,3rd,4th,1st,0.35292259030782513,1.2699753137337133,-0.8556863752246574
perc,resp,774,1,3.2.2left.bmp,3.2.2right.bmp,,ACC019,"[2, 0, 0]","[2, 0, 0]",[],match,1.0,,0.24413991104090713,1.3569504871687834,-1.2492467941574454,3rd,4th,1st,0.35292259030782513,1.2699753137337133,-0.8556863752246574
perc,resp,768,1,2.3.1left.bmp,3.3.1right.bmp,,ACC019,"[0, 2, -2]","[2, 2, -2]",[],non-match,0.7113248654051871,4,1.3420498172770396,0.8701548011515292,-1.0543469005488275,4th,4th,1st,1.2313713336055243,1.2699753137337133,-0.8556863752246574
perc,resp,805,1,3.1.3left.bmp,1.3.2right.bmp,,ACC019,"[2, -2, 2]","[-2, 2, 0]",[],non-match,0.1339745962155613,1,1.585545012947306,0.5117718062328702,-0.9791310363424296,4th,3rd,1st,1.2313713336055243,0.2897501245355415,-0.8556863752246574
perc,resp,810,1,3.2.1left.bmp,2.3.3right.bmp,,ACC019,"[2, 0, -2]","[0, 2, 2]",[],non-match,0.29289321881345254,1,1.1014107103876218,-0.4178395913939638,-0.8417954858857378,4th,2nd,1st,1.2313713336055243,-0.32511826295750806,-0.8556863752246574
perc,resp,814,1,1.3.1left.bmp,1.3.1right.bmp,,ACC019,"[-2, 2, -2]","[-2, 2, -2]",[],match,1.0,,0.874411290994928,0.31425339651294243,-0.7210966134813558,4th,3rd,1st,1.2313713336055243,0.2897501245355415,-0.8556863752246574
perc,resp,2051,1,2.1.2left.bmp,3.1.2right.bmp,,ACC019,"[0, -2, 0]","[2, -2, 0]",[],non-match,0.7113248654051871,4,-0.39865131398793174,-0.7159573743428025,-0.6338055089445088,2nd,1st,2nd,-0.31675144200820676,-1.215316438197501,-0.47760446903514503
perc,resp,736,1,2.2.3left.bmp,2.2.3right.bmp,,ACC019,"[0, 0, 2]","[0, 0, 2]",[],match,1.0,,-0.5329013757943962,-0.9582008268834944,-0.5804096499080508,2nd,1st,2nd,-0.31675144200820676,-1.215316438197501,-0.47760446903514503
perc,resp,631,1,1.2.1left.bmp,1.2.1right.bmp,,ACC019,"[-2, 0, -2]","[-2, 0, -2]",[],match,1.0,,1.9307137028073935,0.19471614271296622,-0.6086173510927877,4th,3rd,2nd,1.2313713336055243,0.2897501245355415,-0.47760446903514503
perc,resp,1077,0,3.1.1left.bmp,3.1.1right.bmp,,ACC019,"[2, -2, -2]","[2, -2, -2]",[],match,1.0,,0.027756573652710097,-1.0013800359231055,-0.5839146074762372,3rd,1st,2nd,0.35292259030782513,-1.215316438197501,-0.47760446903514503
perc,resp,852,1,2.2.1left.bmp,1.1.2right.bmp,,ACC019,"[0, 0, -2]","[-2, -2, 0]",[],non-match,0.5,3,1.459589693326271,1.0658866596465573,-0.6665444588283805,4th,4th,1st,1.2313713336055243,1.2699753137337133,-0.8556863752246574
perc,resp,819,1,2.1.1left.bmp,1.1.1right.bmp,,ACC019,"[0, -2, -2]","[-2, -2, -2]",[],non-match,0.7113248654051871,4,0.9608850524056566,-1.09961343182562,-0.7297325972035724,4th,1st,1st,1.2313713336055243,-1.215316438197501,-0.8556863752246574
perc,resp,1247,1,2.3.3left.bmp,2.3.3right.bmp,,ACC019,"[0, 2, 2]","[0, 2, 2]",[],match,1.0,,-0.6521755247590638,0.25876136969844166,-0.6272697321750264,1st,3rd,2nd,-1.2477371306253746,0.2897501245355415,-0.47760446903514503
perc,resp,1658,1,1.1.3left.bmp,1.3.1right.bmp,,ACC019,"[-2, -2, 2]","[-2, 2, -2]",[],non-match,0.18350341907227385,1,-1.3588030466564838,-0.7387754824706404,-0.6411248487487948,1st,1st,1st,-1.2477371306253746,-1.215316438197501,-0.8556863752246574
perc,resp,1268,1,1.1.2left.bmp,1.1.2right.bmp,,ACC019,"[-2, -2, 0]","[-2, -2, 0]",[],match,1.0,,0.20592701577389264,1.29984852133056,-0.5560939012093425,3rd,4th,2nd,0.35292259030782513,1.2699753137337133,-0.47760446903514503
perc,resp,1551,0,3.1.2left.bmp,3.1.2right.bmp,,ACC019,"[2, -2, 0]","[2, -2, 0]",[],match,1.0,,-1.4864887563132203,1.1366824059129463,-0.6323860695017403,1st,4th,2nd,-1.2477371306253746,1.2699753137337133,-0.47760446903514503
perc,resp,805,1,1.2.2left.bmp,2.3.1right.bmp,,ACC019,"[-2, 0, 0]","[0, 2, -2]",[],non-match,0.5,3,-0.8441332876481177,-0.3524709431908241,-0.7766420134596103,1st,2nd,1st,-1.2477371306253746,-0.32511826295750806,-0.8556863752246574
perc,resp,751,1,3.2.3left.bmp,3.2.3right.bmp,,ACC019,"[2, 0, 2]","[2, 0, 2]",[],match,1.0,,0.6932318335854967,1.8774259825684856,-0.7990204714815168,4th,4th,1st,1.2313713336055243,1.2699753137337133,-0.8556863752246574
perc,resp,826,1,3.3.3left.bmp,1.3.3right.bmp,,ACC019,"[2, 2, 2]","[-2, 2, 2]",[],non-match,0.42264973081037416,2,0.9663188006632459,-0.813510059895849,-0.6131608392044425,4th,1st,2nd,1.2313713336055243,-1.215316438197501,-0.47760446903514503
perc,resp,852,0,1.2.3left.bmp,1.2.1right.bmp,,ACC019,"[-2, 0, 2]","[-2, 0, -2]",[],non-match,0.42264973081037416,2,0.601595084363901,-0.15995652039646588,-0.515633693441451,3rd,2nd,2nd,0.35292259030782513,-0.32511826295750806,-0.47760446903514503
perc,resp,938,1,1.1.1left.bmp,3.1.2right.bmp,,ACC019,"[-2, -2, -2]","[2, -2, 0]",[],non-match,0.3545027756320971,2,0.7275241413787685,-0.027492484820165163,-0.39717292627640055,4th,3rd,2nd,1.2313713336055243,0.2897501245355415,-0.47760446903514503
perc,resp,1084,1,1.3.2left.bmp,1.3.2right.bmp,,ACC019,"[-2, 2, 0]","[-2, 2, 0]",[],match,1.0,,0.18990576006494708,0.5058938916607103,-0.43783975962797533,3rd,3rd,2nd,0.35292259030782513,0.2897501245355415,-0.47760446903514503
perc,resp,1397,1,3.3.1left.bmp,3.3.1right.bmp,,ACC019,"[2, 2, -2]","[2, 2, -2]",[],match,1.0,,-0.5950136781253309,-0.6869582144301752,-0.5779142468010707,2nd,2nd,2nd,-0.31675144200820676,-0.32511826295750806,-0.47760446903514503
perc,resp,809,1,3.3.2left.bmp,3.3.2right.bmp,,ACC019,"[2, 2, 0]","[2, 2, 0]",[],match,1.0,,-0.3951025414570997,0.005463677565699613,-0.5227714422157009,2nd,3rd,2nd,-0.31675144200820676,0.2897501245355415,-0.47760446903514503
perc,resp,1103,1,2.3.2left.bmp,1.1.2right.bmp,,ACC019,"[0, 2, 0]","[-2, -2, 0]",[],non-match,0.3545027756320971,2,2.2295653270734292,1.051330374631198,-0.45604590670958495,4th,4th,2nd,1.2313713336055243,1.2699753137337133,-0.47760446903514503
perc,resp,751,1,2.1.3left.bmp,3.2.1right.bmp,,ACC019,"[0, -2, 2]","[2, 0, -2]",[],non-match,0.29289321881345254,1,-0.7138443415500568,-0.11829245043608923,-0.34372727559805866,1st,2nd,2nd,-1.2477371306253746,-0.32511826295750806,-0.47760446903514503
perc,resp,844,1,2.2.2left.bmp,2.2.2right.bmp,,ACC019,"[0, 0, 0]","[0, 0, 0]",[],match,1.0,,-0.01765379322439141,-0.7761042151776435,-0.45600106093645587,2nd,1st,2nd,-0.31675144200820676,-1.215316438197501,-0.47760446903514503
perc,resp,1244,0,3.3.3left.bmp,3.2.2right.bmp,,ACC019,"[2, 2, 2]","[2, 0, 0]",[],non-match,0.5917517095361369,3,-1.3135846102346929,-0.5896705298625086,-0.4089098667974842,1st,2nd,2nd,-1.2477371306253746,-0.32511826295750806,-0.47760446903514503
perc,resp,1218,1,2.3.3left.bmp,2.3.3right.bmp,,ACC019,"[0, 2, 2]","[0, 2, 2]",[],match,1.0,,1.1030179009678152,-0.8996446216284629,-0.2894018935639462,4th,1st,3rd,1.2313713336055243,-1.215316438197501,-0.051306383722738505
perc,resp,798,1,1.3.1left.bmp,1.3.1right.bmp,,ACC019,"[-2, 2, -2]","[-2, 2, -2]",[],match,1.0,,0.396730833330537,1.1041691732911976,-0.4160288335925783,3rd,4th,2nd,0.35292259030782513,1.2699753137337133,-0.47760446903514503
perc,resp,814,1,2.1.1left.bmp,1.1.3right.bmp,,ACC019,"[0, -2, -2]","[-2, -2, 2]",[],non-match,0.3545027756320971,2,1.2575065196093371,0.05190757281169035,-0.3985744044726909,4th,3rd,2nd,1.2313713336055243,0.2897501245355415,-0.47760446903514503
perc,resp,822,1,1.2.2left.bmp,2.2.1right.bmp,,ACC019,"[-2, 0, 0]","[0, 0, -2]",[],non-match,0.5917517095361369,3,-0.041215232092226016,-0.21786876021845336,-0.3552070036240333,2nd,2nd,2nd,-0.31675144200820676,-0.32511826295750806,-0.47760446903514503
perc,resp,1424,1,1.3.2left.bmp,2.1.2right.bmp,,ACC019,"[-2, 2, 0]","[0, -2, 0]",[],non-match,0.3545027756320971,2,-0.2821264038815826,-0.15955045480398727,-0.637827017966889,2nd,2nd,1st,-0.31675144200820676,-0.32511826295750806,-0.8556863752246574
perc,resp,1278,1,1.3.3left.bmp,1.3.3right.bmp,,ACC019,"[-2, 2, 2]","[-2, 2, 2]",[],match,1.0,,-1.6121957155413795,-2.742740448479237,-0.6316905741842085,1st,1st,2nd,-1.2477371306253746,-1.215316438197501,-0.47760446903514503
perc,resp,1086,0,3.1.1left.bmp,3.1.1right.bmp,,ACC019,"[2, -2, -2]","[2, -2, -2]",[],match,1.0,,-1.0834899316914393,-0.04362064895533493,-0.6457516982701753,1st,3rd,1st,-1.2477371306253746,0.2897501245355415,-0.8556863752246574
perc,resp,943,1,2.2.1left.bmp,2.2.2right.bmp,,ACC019,"[0, 0, -2]","[0, 0, 0]",[],non-match,0.7113248654051871,4,0.3464313855247545,-0.873803288890525,-0.9367098447715387,3rd,1st,1st,0.35292259030782513,-1.215316438197501,-0.8556863752246574
perc,resp,1216,1,2.1.3left.bmp,3.1.2right.bmp,,ACC019,"[0, -2, 2]","[2, -2, 0]",[],non-match,0.5917517095361369,3,0.17130475576000154,0.4178678977179833,-0.6780695601319089,3rd,3rd,1st,0.35292259030782513,0.2897501245355415,-0.8556863752246574
perc,resp,900,1,2.2.3left.bmp,2.3.2right.bmp,,ACC019,"[0, 0, 2]","[0, 2, 0]",[],non-match,0.5917517095361369,3,0.3071225893677846,-0.02411052144663279,-0.6213013494161289,3rd,3rd,2nd,0.35292259030782513,0.2897501245355415,-0.47760446903514503
perc,resp,985,1,3.3.1left.bmp,3.3.1right.bmp,,ACC019,"[2, 2, -2]","[2, 2, -2]",[],match,1.0,,1.54901144991661,0.983156538510141,-0.4605236068248178,4th,4th,2nd,1.2313713336055243,1.2699753137337133,-0.47760446903514503
perc,resp,1344,1,2.3.1left.bmp,2.3.1right.bmp,,ACC019,"[0, 2, -2]","[0, 2, -2]",[],match,1.0,,-0.5012850905586833,0.3201991879725615,-0.11145671740076359,2nd,3rd,3rd,-0.31675144200820676,0.2897501245355415,-0.051306383722738505
perc,resp,1007,0,3.1.3left.bmp,3.1.3right.bmp,,ACC019,"[2, -2, 2]","[2, -2, 2]",[],match,1.0,,-1.173752899237879,-0.05491322088685852,0.2516893223552684,1st,2nd,3rd,-1.2477371306253746,-0.32511826295750806,-0.051306383722738505
perc,resp,848,0,2.3.2left.bmp,2.3.3right.bmp,,ACC019,"[0, 2, 0]","[0, 2, 2]",[],non-match,0.7113248654051871,4,-0.44869710033938015,-1.1724343566142774,0.5501708438811705,2nd,1st,4th,-0.31675144200820676,-1.215316438197501,1.398179551398806
perc,resp,1165,1,1.1.3left.bmp,1.2.1right.bmp,,ACC019,"[-2, -2, 2]","[-2, 0, -2]",[],non-match,0.3545027756320971,2,0.009044175015793379,1.3453986448624118,0.7372598439603582,2nd,4th,4th,-0.31675144200820676,1.2699753137337133,1.398179551398806
perc,resp,1044,0,3.2.3left.bmp,3.2.3right.bmp,,ACC019,"[2, 0, 2]","[2, 0, 2]",[],match,1.0,,-0.9307900735144397,0.1469712907514198,1.189861568481157,1st,3rd,4th,-1.2477371306253746,0.2897501245355415,1.398179551398806
perc,resp,940,0,1.2.3left.bmp,2.2.3right.bmp,,ACC019,"[-2, 0, 2]","[0, 0, 2]",[],non-match,0.7113248654051871,4,-0.9314981868064716,0.36002819050699497,1.3271430315985997,1st,3rd,4th,-1.2477371306253746,0.2897501245355415,1.398179551398806
perc,resp,949,1,2.2.2left.bmp,3.3.1right.bmp,,ACC019,"[0, 0, 0]","[2, 2, -2]",[],non-match,0.5,3,0.7958526612848661,1.6767357530621365,1.3735672348008652,4th,4th,4th,1.2313713336055243,1.2699753137337133,1.398179551398806
perc,resp,901,1,1.2.1left.bmp,2.2.1right.bmp,,ACC019,"[-2, 0, -2]","[0, 0, -2]",[],non-match,0.7113248654051871,4,-0.11624134151660298,0.7947315709796253,1.589001349258089,2nd,4th,4th,-0.31675144200820676,1.2699753137337133,1.398179551398806
perc,resp,928,1,3.3.2left.bmp,2.1.1right.bmp,,ACC019,"[2, 2, 0]","[0, -2, -2]",[],non-match,0.29289321881345254,1,0.5610859758433435,-0.29009194368990415,1.685281207642647,3rd,2nd,4th,0.35292259030782513,-0.32511826295750806,1.398179551398806
perc,resp,1553,1,3.2.1left.bmp,3.2.1right.bmp,,ACC019,"[2, 0, -2]","[2, 0, -2]",[],match,1.0,,-0.4771756548679084,-0.20484735022514897,1.6457461414522787,2nd,2nd,4th,-0.31675144200820676,-0.32511826295750806,1.398179551398806
perc,resp,1198,0,3.2.2left.bmp,3.2.2right.bmp,,ACC019,"[2, 0, 0]","[2, 0, 0]",[],match,1.0,,0.4013485750357007,0.287783420251808,1.7341846533628604,3rd,3rd,4th,0.35292259030782513,0.2897501245355415,1.398179551398806
perc,resp,1399,1,3.1.2left.bmp,3.1.3right.bmp,,ACC019,"[2, -2, 0]","[2, -2, 2]",[],non-match,0.7113248654051871,4,0.013825438070127764,-0.033750972990338246,1.849199334495432,2nd,3rd,4th,-0.31675144200820676,0.2897501245355415,1.398179551398806
perc,resp,904,1,1.1.2left.bmp,1.1.2right.bmp,,ACC019,"[-2, -2, 0]","[-2, -2, 0]",[],match,1.0,,0.9215437663184363,-0.022701389121828546,1.9701371725742864,4th,3rd,4th,1.2313713336055243,0.2897501245355415,1.398179551398806
perc,resp,1705,1,2.1.2left.bmp,2.1.2right.bmp,,ACC019,"[0, -2, 0]","[0, -2, 0]",[],match,1.0,,0.8148859179758473,0.5581360453564344,2.054098171889159,4th,3rd,4th,1.2313713336055243,0.2897501245355415,1.398179551398806
perc,resp,801,1,1.1.1left.bmp,3.2.1right.bmp,,ACC019,"[-2, -2, -2]","[2, 0, -2]",[],non-match,0.3545027756320971,2,1.499499395169036,1.5867618349195656,2.104738814758332,4th,4th,4th,1.2313713336055243,1.2699753137337133,1.398179551398806
perc,resp,991,1,1.2.3left.bmp,1.2.3right.bmp,,ACC019,"[-2, 0, 2]","[-2, 0, 2]",[],match,1.0,,-0.05946053679706189,-0.6702844910841095,2.161057919884894,2nd,2nd,4th,-0.31675144200820676,-0.32511826295750806,1.398179551398806
perc,resp,904,1,1.1.3left.bmp,1.1.3right.bmp,,ACC019,"[-2, -2, 2]","[-2, -2, 2]",[],match,1.0,,0.17312198335026152,1.6324032411621385,2.0819570126686253,3rd,4th,4th,0.35292259030782513,1.2699753137337133,1.398179551398806
perc,resp,795,0,2.1.2left.bmp,2.1.2right.bmp,,ACC019,"[0, -2, 0]","[0, -2, 0]",[],match,1.0,,-0.16107417896336862,1.2396644665087884,1.9470049445974533,2nd,4th,4th,-0.31675144200820676,1.2699753137337133,1.398179551398806
perc,resp,765,1,1.1.2left.bmp,3.2.2right.bmp,,ACC019,"[-2, -2, 0]","[2, 0, 0]",[],non-match,0.3545027756320971,2,0.5418042182721136,-0.023194819493742507,1.9111141523991992,3rd,3rd,4th,0.35292259030782513,0.2897501245355415,1.398179551398806
perc,resp,815,1,1.3.3left.bmp,1.3.3right.bmp,,ACC019,"[-2, 2, 2]","[-2, 2, 2]",[],match,1.0,,0.6047647303398761,-0.03432077758119998,1.882713836338833,3rd,3rd,4th,0.35292259030782513,0.2897501245355415,1.398179551398806
perc,resp,890,0,1.2.1left.bmp,1.3.2right.bmp,,ACC019,"[-2, 0, -2]","[-2, 2, 0]",[],non-match,0.5917517095361369,3,0.6787755262712355,0.9252869634333816,2.066945162858225,4th,4th,4th,1.2313713336055243,1.2699753137337133,1.398179551398806
perc,resp,885,1,2.1.3left.bmp,2.1.3right.bmp,,ACC019,"[0, -2, 2]","[0, -2, 2]",[],match,1.0,,0.07012619525173787,-0.35174711810645526,2.3582939087648804,3rd,2nd,4th,0.35292259030782513,-0.32511826295750806,1.398179551398806
perc,resp,884,1,2.1.1left.bmp,1.1.1right.bmp,,ACC019,"[0, -2, -2]","[-2, -2, -2]",[],non-match,0.7113248654051871,4,0.6383360118081433,1.2488695188576013,2.3848012520344475,3rd,4th,4th,0.35292259030782513,1.2699753137337133,1.398179551398806
perc,resp,816,1,2.3.2left.bmp,2.3.2right.bmp,,ACC019,"[0, 2, 0]","[0, 2, 0]",[],match,1.0,,0.5756762609343262,1.2199264375166314,2.5197446833454378,3rd,4th,4th,0.35292259030782513,1.2699753137337133,1.398179551398806
perc,resp,729,1,2.2.3left.bmp,3.1.1right.bmp,,ACC019,"[0, 0, 2]","[2, -2, -2]",[],non-match,0.29289321881345254,1,0.5143687189167867,-0.0699943560477503,2.560719730893821,3rd,2nd,4th,0.35292259030782513,-0.32511826295750806,1.398179551398806
perc,resp,672,1,3.3.3left.bmp,3.3.3right.bmp,,ACC019,"[2, 2, 2]","[2, 2, 2]",[],match,1.0,,-0.12016505756528577,0.2449632298278634,2.4730741543730517,2nd,3rd,4th,-0.31675144200820676,0.2897501245355415,1.398179551398806
perc,resp,779,1,3.1.3left.bmp,1.1.3right.bmp,,ACC019,"[2, -2, 2]","[-2, -2, 2]",[],non-match,0.42264973081037416,2,1.7021451909426393,0.4238007142103594,2.2920289732468198,4th,3rd,4th,1.2313713336055243,0.2897501245355415,1.398179551398806
perc,resp,799,1,3.2.3left.bmp,3.2.3right.bmp,,ACC019,"[2, 0, 2]","[2, 0, 2]",[],match,1.0,,-0.472459314814525,0.570177934366792,2.451740540851812,2nd,3rd,4th,-0.31675144200820676,0.2897501245355415,1.398179551398806
perc,resp,996,0,3.2.2left.bmp,3.2.2right.bmp,,ACC019,"[2, 0, 0]","[2, 0, 0]",[],match,1.0,,0.04510765956125909,-0.11702192129077386,2.798150880572329,3rd,2nd,4th,0.35292259030782513,-0.32511826295750806,1.398179551398806
perc,resp,619,1,3.3.1left.bmp,3.3.1right.bmp,,ACC019,"[2, 2, -2]","[2, 2, -2]",[],match,1.0,,0.5748735780602674,0.9402085828205223,3.12009381402312,3rd,4th,4th,0.35292259030782513,1.2699753137337133,1.398179551398806
perc,resp,884,1,2.3.1left.bmp,3.2.1right.bmp,,ACC019,"[0, 2, -2]","[2, 0, -2]",[],non-match,0.5917517095361369,3,0.9029272759090485,1.0228635000291544,3.116394280098769,4th,4th,4th,1.2313713336055243,1.2699753137337133,1.398179551398806
perc,resp,746,1,2.2.2left.bmp,2.2.2right.bmp,,ACC019,"[0, 0, 0]","[0, 0, 0]",[],match,1.0,,0.14588763854456563,2.3565409459179585,3.3380364659876918,3rd,4th,4th,0.35292259030782513,1.2699753137337133,1.398179551398806
perc,resp,1272,1,2.2.1left.bmp,2.2.1right.bmp,,ACC019,"[0, 0, -2]","[0, 0, -2]",[],match,1.0,,-0.9832839393525543,0.26392194666985447,3.4444360724541987,1st,3rd,4th,-1.2477371306253746,0.2897501245355415,1.398179551398806
perc,resp,1062,0,1.2.2left.bmp,2.3.2right.bmp,,ACC019,"[-2, 0, 0]","[0, 2, 0]",[],non-match,0.5917517095361369,3,1.0338266320848002,0.7550128556667564,3.4821264896415522,4th,4th,4th,1.2313713336055243,1.2699753137337133,1.398179551398806
perc,resp,973,1,1.3.2left.bmp,3.3.3right.bmp,,ACC019,"[-2, 2, 0]","[2, 2, 2]",[],non-match,0.3545027756320971,2,0.7781281323685326,1.084895190186316,3.738698578519219,4th,4th,4th,1.2313713336055243,1.2699753137337133,1.398179551398806
