mode,type,rt,acc,item_1,item_2,item_cue,subj_idx,item_1_number,item_2_number,item_cue_number,trial_type,similarity,similarity_bin,ams,pams,slps,ams_quantile,pams_quantile,slps_quantile,ams_bin,pam_bin,slp_bin
perc,resp,2029,1,3.3.3left.bmp,3.3.3right.bmp,,ACC027,"[2, 2, 2]","[2, 2, 2]",[],match,1.0,,-1.1731656529554426,-1.8407708990462643,-1.0962041834183989,1st,1st,1st,-1.2726467637829884,-1.238090625934168,-1.4140726027941335
perc,resp,1195,1,1.1.2left.bmp,1.1.2right.bmp,,ACC027,"[-2, -2, 0]","[-2, -2, 0]",[],match,1.0,,0.41304827154075074,-0.7190011680100249,-0.8492548194711336,3rd,1st,1st,0.3866132662727401,-1.238090625934168,-1.4140726027941335
perc,resp,1338,1,2.1.3left.bmp,2.3.3right.bmp,,ACC027,"[0, -2, 2]","[0, 2, 2]",[],non-match,0.42264973081037416,2,-0.29577254316499724,0.4100088722335856,-1.3292713643456513,2nd,3rd,1st,-0.2863027241793374,0.2970167191867076,-1.4140726027941335
perc,resp,1435,0,2.2.3left.bmp,3.1.3right.bmp,,ACC027,"[0, 0, 2]","[2, -2, 2]",[],non-match,0.5917517095361369,3,-0.11737135670882809,-0.7392035579723655,-1.5616286604614236,2nd,1st,1st,-0.2863027241793374,-1.238090625934168,-1.4140726027941335
perc,resp,1613,1,2.2.2left.bmp,2.2.2right.bmp,,ACC027,"[0, 0, 0]","[0, 0, 0]",[],match,1.0,,-0.7469326290950885,-0.9460613037738272,-1.634710773194401,1st,1st,1st,-1.2726467637829884,-1.238090625934168,-1.4140726027941335
perc,resp,1072,1,3.3.1left.bmp,1.1.2right.bmp,,ACC027,"[2, 2, -2]","[-2, -2, 0]",[],non-match,0.1339745962155613,1,0.7368721387926803,-0.3530470808910316,-1.201999272503622,4th,2nd,1st,1.1738794607987146,-0.2766440749693377,-1.4140726027941335
perc,resp,1347,0,3.2.1left.bmp,3.2.1right.bmp,,ACC027,"[2, 0, -2]","[2, 0, -2]",[],match,1.0,,-0.4003688598438824,-0.07675890090175162,-1.5564300458148108,2nd,2nd,1st,-0.2863027241793374,-0.2766440749693377,-1.4140726027941335
perc,resp,1454,1,2.3.2left.bmp,2.1.1right.bmp,,ACC027,"[0, 2, 0]","[0, -2, -2]",[],non-match,0.3545027756320971,2,0.08451833938657269,-1.3246157042914783,-1.6179228372737224,3rd,1st,1st,0.3866132662727401,-1.238090625934168,-1.4140726027941335
perc,resp,1390,1,2.2.1left.bmp,2.2.1right.bmp,,ACC027,"[0, 0, -2]","[0, 0, -2]",[],match,1.0,,-0.41063432318804083,0.32500056869513727,-1.6753335687664377,2nd,3rd,1st,-0.2863027241793374,0.2970167191867076,-1.4140726027941335
perc,resp,1647,0,1.3.1left.bmp,1.2.3right.bmp,,ACC027,"[-2, 2, -2]","[-2, 0, 2]",[],non-match,0.3545027756320971,2,-0.23449872653842904,0.8527941043523654,-1.4213598014031015,2nd,4th,1st,-0.2863027241793374,1.2180314070124492,-1.4140726027941335
perc,resp,1625,1,1.3.2left.bmp,2.1.2right.bmp,,ACC027,"[-2, 2, 0]","[0, -2, 0]",[],non-match,0.3545027756320971,2,-0.7346456035647623,-0.7152807155353024,-1.5994447273000827,1st,1st,1st,-1.2726467637829884,-1.238090625934168,-1.4140726027941335
perc,resp,1822,1,1.1.3left.bmp,3.2.3right.bmp,,ACC027,"[-2, -2, 2]","[2, 0, 2]",[],non-match,0.3545027756320971,2,-2.2189985308241926,0.36027483839467517,-1.4906614840960593,1st,3rd,1st,-1.2726467637829884,0.2970167191867076,-1.4140726027941335
perc,resp,1520,1,1.1.1left.bmp,1.1.1right.bmp,,ACC027,"[-2, -2, -2]","[-2, -2, -2]",[],match,1.0,,0.5951641348643283,0.41606951020942207,-1.5757660113761012,3rd,3rd,1st,0.3866132662727401,0.2970167191867076,-1.4140726027941335
perc,resp,2734,1,3.3.2left.bmp,3.3.2right.bmp,,ACC027,"[2, 2, 0]","[2, 2, 0]",[],match,1.0,,-1.6305821073574103,-0.7171248758232823,-1.1127577832844067,1st,1st,1st,-1.2726467637829884,-1.238090625934168,-1.4140726027941335
perc,resp,1271,1,3.1.2left.bmp,1.3.3right.bmp,,ACC027,"[2, -2, 0]","[-2, 2, 2]",[],non-match,0.1339745962155613,1,0.91835633687865,-0.8122552834883161,-0.8668411404958623,4th,1st,1st,1.1738794607987146,-1.238090625934168,-1.4140726027941335
perc,resp,1906,1,3.2.3left.bmp,3.2.3right.bmp,,ACC027,"[2, 0, 2]","[2, 0, 2]",[],match,1.0,,-1.356015726312941,-0.18297241398977754,-0.9592482583792828,1st,2nd,1st,-1.2726467637829884,-0.2766440749693377,-1.4140726027941335
perc,resp,1645,1,1.2.2left.bmp,1.2.2right.bmp,,ACC027,"[-2, 0, 0]","[-2, 0, 0]",[],match,1.0,,-0.6853144535378858,0.2537410890879276,-1.0412640454848539,1st,3rd,1st,-1.2726467637829884,0.2970167191867076,-1.4140726027941335
perc,resp,1177,1,2.1.2left.bmp,2.1.2right.bmp,,ACC027,"[0, -2, 0]","[0, -2, 0]",[],match,1.0,,0.36806879441095014,1.1549589101019921,-1.3174650532944339,3rd,4th,1st,0.3866132662727401,1.2180314070124492,-1.4140726027941335
perc,resp,1230,1,2.3.1left.bmp,1.2.3right.bmp,,ACC027,"[0, 2, -2]","[-2, 0, 2]",[],non-match,0.29289321881345254,1,0.8205200990219883,0.45056436188379106,-1.5403802383793839,4th,3rd,1st,1.1738794607987146,0.2970167191867076,-1.4140726027941335
perc,resp,1160,1,1.3.3left.bmp,3.3.2right.bmp,,ACC027,"[-2, 2, 2]","[2, 2, 0]",[],non-match,0.3545027756320971,2,0.4415077785639634,0.6783521915096813,-1.764571879737069,3rd,4th,1st,0.3866132662727401,1.2180314070124492,-1.4140726027941335
perc,resp,1607,0,3.1.1left.bmp,3.2.1right.bmp,,ACC027,"[2, -2, -2]","[2, 0, -2]",[],non-match,0.7113248654051871,4,-0.1999992612386767,-0.1987623158290072,-1.8196748357531993,2nd,2nd,1st,-0.2863027241793374,-0.2766440749693377,-1.4140726027941335
perc,resp,1192,1,3.1.3left.bmp,2.3.1right.bmp,,ACC027,"[2, -2, 2]","[0, 2, -2]",[],non-match,0.1339745962155613,1,0.48036421321234946,-1.1920096480094036,-1.6690848015293622,3rd,1st,1st,0.3866132662727401,-1.238090625934168,-1.4140726027941335
perc,resp,2352,1,2.1.1left.bmp,2.1.1right.bmp,,ACC027,"[0, -2, -2]","[0, -2, -2]",[],match,1.0,,-1.5307275418216415,-1.6323700557525742,-1.564341210037167,1st,1st,1st,-1.2726467637829884,-1.238090625934168,-1.4140726027941335
perc,resp,1688,1,1.2.3left.bmp,1.2.3right.bmp,,ACC027,"[-2, 0, 2]","[-2, 0, 2]",[],match,1.0,,-1.8449492357112371,-0.09470453709646783,-1.7506492988060083,1st,2nd,1st,-1.2726467637829884,-0.2766440749693377,-1.4140726027941335
perc,resp,1813,1,2.3.3left.bmp,2.3.3right.bmp,,ACC027,"[0, 2, 2]","[0, 2, 2]",[],match,1.0,,0.4708625053618381,2.9766043941777793,-1.5751828714052456,3rd,4th,1st,0.3866132662727401,1.2180314070124492,-1.4140726027941335
perc,resp,1589,0,1.2.1left.bmp,1.1.3right.bmp,,ACC027,"[-2, 0, -2]","[-2, -2, 2]",[],non-match,0.3545027756320971,2,0.7296497693040872,0.47408602381071546,-1.3435619856669114,4th,3rd,1st,1.1738794607987146,0.2970167191867076,-1.4140726027941335
perc,resp,2116,1,2.1.3left.bmp,2.1.3right.bmp,,ACC027,"[0, -2, 2]","[0, -2, 2]",[],match,1.0,,-2.0177943576987913,-0.7158018053853122,-1.5942184744319157,1st,1st,1st,-1.2726467637829884,-1.238090625934168,-1.4140726027941335
perc,resp,1760,1,3.1.1left.bmp,3.1.1right.bmp,,ACC027,"[2, -2, -2]","[2, -2, -2]",[],match,1.0,,-1.5035721181342687,-0.4719346380871246,-1.55337512685862,1st,2nd,1st,-1.2726467637829884,-0.2766440749693377,-1.4140726027941335
perc,resp,1344,1,2.1.1left.bmp,2.1.1right.bmp,,ACC027,"[0, -2, -2]","[0, -2, -2]",[],match,1.0,,-0.5775027322340239,0.2814498476222375,-1.4189810803242444,2nd,3rd,1st,-0.2863027241793374,0.2970167191867076,-1.4140726027941335
perc,resp,1496,1,1.3.1left.bmp,3.2.3right.bmp,,ACC027,"[-2, 2, -2]","[2, 0, 2]",[],non-match,0.1339745962155613,1,1.4358735573157253,0.18234433194238123,-1.2602925971244794,4th,3rd,1st,1.1738794607987146,0.2970167191867076,-1.4140726027941335
perc,resp,1449,0,2.2.3left.bmp,2.2.3right.bmp,,ACC027,"[0, 0, 2]","[0, 0, 2]",[],match,1.0,,-0.6046504186868085,0.897660360376959,-0.9592694553304186,1st,4th,1st,-1.2726467637829884,1.2180314070124492,-1.4140726027941335
perc,resp,1283,0,1.3.2left.bmp,2.2.1right.bmp,,ACC027,"[-2, 2, 0]","[0, 0, -2]",[],non-match,0.5,3,-0.2870995814775974,-1.1407865216062447,-1.1580306275702943,2nd,1st,1st,-0.2863027241793374,-1.238090625934168,-1.4140726027941335
perc,resp,1290,1,3.1.2left.bmp,2.3.1right.bmp,,ACC027,"[2, -2, 0]","[0, 2, -2]",[],non-match,0.29289321881345254,1,0.22419671421823653,0.6933068103012135,-1.5390879772671062,3rd,4th,1st,0.3866132662727401,1.2180314070124492,-1.4140726027941335
perc,resp,1333,1,1.3.3left.bmp,1.3.3right.bmp,,ACC027,"[-2, 2, 2]","[-2, 2, 2]",[],match,1.0,,0.11714608383048414,1.2842691422190124,-1.2884660070108187,3rd,4th,1st,0.3866132662727401,1.2180314070124492,-1.4140726027941335
perc,resp,1162,0,3.1.3left.bmp,3.1.3right.bmp,,ACC027,"[2, -2, 2]","[2, -2, 2]",[],match,1.0,,-0.15163982600974976,1.232278559460648,-1.429782181175167,2nd,4th,1st,-0.2863027241793374,1.2180314070124492,-1.4140726027941335
perc,resp,901,0,3.3.2left.bmp,3.3.2right.bmp,,ACC027,"[2, 2, 0]","[2, 2, 0]",[],match,1.0,,0.34821300309368053,-1.5256181650921399,-1.6422728051756814,3rd,1st,1st,0.3866132662727401,-1.238090625934168,-1.4140726027941335
perc,resp,1686,1,2.2.2left.bmp,3.2.2right.bmp,,ACC027,"[0, 0, 0]","[2, 0, 0]",[],non-match,0.7113248654051871,4,-2.3113376183487735,-2.182797386495232,-1.576905079057982,1st,1st,1st,-1.2726467637829884,-1.238090625934168,-1.4140726027941335
perc,resp,1611,0,1.1.3left.bmp,1.1.2right.bmp,,ACC027,"[-2, -2, 2]","[-2, -2, 0]",[],non-match,0.7113248654051871,4,-0.5125337855778631,-2.062306208317502,-1.5238497457286058,2nd,1st,1st,-0.2863027241793374,-1.238090625934168,-1.4140726027941335
perc,resp,971,0,3.3.1left.bmp,1.3.1right.bmp,,ACC027,"[2, 2, -2]","[-2, 2, -2]",[],non-match,0.42264973081037416,2,-3.4807927774912186,0.8106189680091742,-1.1997353529261703,1st,4th,1st,-1.2726467637829884,1.2180314070124492,-1.4140726027941335
perc,resp,1310,1,3.2.1left.bmp,3.2.1right.bmp,,ACC027,"[2, 0, -2]","[2, 0, -2]",[],match,1.0,,-0.3605250766608365,0.7722744924564969,-1.2478849343309755,2nd,4th,1st,-0.2863027241793374,1.2180314070124492,-1.4140726027941335
perc,resp,1241,1,2.2.1left.bmp,1.2.3right.bmp,,ACC027,"[0, 0, -2]","[-2, 0, 2]",[],non-match,0.3545027756320971,2,0.938136873202865,-0.46532655800732997,-1.5072557234052384,4th,2nd,1st,1.1738794607987146,-0.2766440749693377,-1.4140726027941335
perc,resp,1319,1,1.1.1left.bmp,1.1.1right.bmp,,ACC027,"[-2, -2, -2]","[-2, -2, -2]",[],match,1.0,,-0.1416812694970696,-1.134363434056528,-1.4484240832011297,2nd,1st,1st,-0.2863027241793374,-1.238090625934168,-1.4140726027941335
perc,resp,1634,1,2.3.3left.bmp,1.2.2right.bmp,,ACC027,"[0, 2, 2]","[-2, 0, 0]",[],non-match,0.5,3,-1.235642241772238,-0.2114403105803645,-1.2927399155246846,1st,2nd,1st,-1.2726467637829884,-0.2766440749693377,-1.4140726027941335
perc,resp,1297,1,3.3.3left.bmp,2.2.3right.bmp,,ACC027,"[2, 2, 2]","[0, 0, 2]",[],non-match,0.5917517095361369,3,0.45013764583669885,-1.3960978538601472,-1.4795426528950089,3rd,1st,1st,0.3866132662727401,-1.238090625934168,-1.4140726027941335
perc,resp,1297,1,1.1.2left.bmp,1.1.2right.bmp,,ACC027,"[-2, -2, 0]","[-2, -2, 0]",[],match,1.0,,0.4385253821170002,-0.9672749633104429,-1.7390119752106028,3rd,1st,1st,0.3866132662727401,-1.238090625934168,-1.4140726027941335
perc,resp,1704,1,3.2.2left.bmp,3.2.2right.bmp,,ACC027,"[2, 0, 0]","[2, 0, 0]",[],match,1.0,,-1.3494149417111885,-1.8775427497061203,-1.7276659647733854,1st,1st,1st,-1.2726467637829884,-1.238090625934168,-1.4140726027941335
perc,resp,1697,1,1.2.2left.bmp,1.2.2right.bmp,,ACC027,"[-2, 0, 0]","[-2, 0, 0]",[],match,1.0,,-0.6926372050357631,-1.2160163355343003,-1.7305455220968695,1st,1st,1st,-1.2726467637829884,-1.238090625934168,-1.4140726027941335
perc,resp,1641,1,2.1.2left.bmp,2.1.2right.bmp,,ACC027,"[0, -2, 0]","[0, -2, 0]",[],match,1.0,,-0.01483306843893393,-0.23922857946889745,-1.9212628405341672,2nd,2nd,1st,-0.2863027241793374,-0.2766440749693377,-1.4140726027941335
perc,resp,1706,1,2.3.2left.bmp,1.1.1right.bmp,,ACC027,"[0, 2, 0]","[-2, -2, -2]",[],non-match,0.29289321881345254,1,1.2135672861673734,-1.0986870912941085,-1.7481883415281516,4th,1st,1st,1.1738794607987146,-1.238090625934168,-1.4140726027941335
perc,resp,1691,1,3.2.3left.bmp,3.2.3right.bmp,,ACC027,"[2, 0, 2]","[2, 0, 2]",[],match,1.0,,-1.4536116179643426,-0.9501378994251776,-2.1180700381110555,1st,1st,1st,-1.2726467637829884,-1.238090625934168,-1.4140726027941335
perc,resp,1613,1,3.3.3left.bmp,3.3.3right.bmp,,ACC027,"[2, 2, 2]","[2, 2, 2]",[],match,1.0,,-0.8636925027306729,-0.9462788232669969,-2.0218957095156127,1st,1st,1st,-1.2726467637829884,-1.238090625934168,-1.4140726027941335
perc,resp,1031,1,3.1.2left.bmp,1.3.2right.bmp,,ACC027,"[2, -2, 0]","[-2, 2, 0]",[],non-match,0.18350341907227385,1,0.06015452969702868,-1.216199883153175,-1.9400394564726113,2nd,1st,1st,-0.2863027241793374,-1.238090625934168,-1.4140726027941335
perc,resp,1033,1,3.1.1left.bmp,2.3.2right.bmp,,ACC027,"[2, -2, -2]","[0, 2, 0]",[],non-match,0.29289321881345254,1,-0.286088712606782,-2.240136858602626,-1.7868321852853837,2nd,1st,1st,-0.2863027241793374,-1.238090625934168,-1.4140726027941335
perc,resp,921,1,1.2.3left.bmp,2.2.1right.bmp,,ACC027,"[-2, 0, 2]","[0, 0, -2]",[],non-match,0.3545027756320971,2,-0.4171526152615238,-0.6032505971706921,-1.476345022801404,2nd,2nd,1st,-0.2863027241793374,-0.2766440749693377,-1.4140726027941335
perc,resp,1100,1,2.2.3left.bmp,1.1.3right.bmp,,ACC027,"[0, 0, 2]","[-2, -2, 2]",[],non-match,0.5917517095361369,3,-0.23434656059610606,-1.2255368883758604,-1.3338502208380176,2nd,1st,1st,-0.2863027241793374,-1.238090625934168,-1.4140726027941335
perc,resp,1221,1,2.1.3left.bmp,2.1.3right.bmp,,ACC027,"[0, -2, 2]","[0, -2, 2]",[],match,1.0,,0.15164025501270753,-0.18882586267304832,-1.1148430090546944,3rd,2nd,1st,0.3866132662727401,-0.2766440749693377,-1.4140726027941335
perc,resp,1242,1,2.2.2left.bmp,3.3.2right.bmp,,ACC027,"[0, 0, 0]","[2, 2, 0]",[],non-match,0.5917517095361369,3,-0.2084983107078206,-0.5294756112923462,-1.198994162550535,2nd,2nd,1st,-0.2863027241793374,-0.2766440749693377,-1.4140726027941335
perc,resp,1157,1,1.2.3left.bmp,3.2.3right.bmp,,ACC027,"[-2, 0, 2]","[2, 0, 2]",[],non-match,0.42264973081037416,2,0.9852638619330083,-0.6863661328766757,-0.8027549126122608,4th,1st,1st,1.1738794607987146,-1.238090625934168,-1.4140726027941335
perc,resp,1330,0,2.3.1left.bmp,3.3.2right.bmp,,ACC027,"[0, 2, -2]","[2, 2, 0]",[],non-match,0.5917517095361369,3,-1.4503296391826856,-0.7376070883866842,-0.6119510220116164,1st,1st,2nd,-1.2726467637829884,-1.238090625934168,-0.16190531794474208
perc,resp,1734,1,1.1.1left.bmp,1.3.1right.bmp,,ACC027,"[-2, -2, -2]","[-2, 2, -2]",[],non-match,0.42264973081037416,2,-0.35156962990081486,-1.9545239578793923,-0.44120393380082135,2nd,1st,2nd,-0.2863027241793374,-1.238090625934168,-0.16190531794474208
perc,resp,1507,1,2.3.3left.bmp,2.3.3right.bmp,,ACC027,"[0, 2, 2]","[0, 2, 2]",[],match,1.0,,-0.8937767791781248,-1.6406089243453843,-0.05214143219733642,1st,1st,2nd,-1.2726467637829884,-1.238090625934168,-0.16190531794474208
perc,resp,1180,1,3.1.2left.bmp,3.1.2right.bmp,,ACC027,"[2, -2, 0]","[2, -2, 0]",[],match,1.0,,0.010863185914861647,0.4621072051296942,0.23082581623339174,2nd,3rd,3rd,-0.2863027241793374,0.2970167191867076,0.36036736137186065
perc,resp,1543,1,2.2.3left.bmp,1.1.3right.bmp,,ACC027,"[0, 0, 2]","[-2, -2, 2]",[],non-match,0.5917517095361369,3,-2.0954822791279124,0.34291448268743235,0.060194241397297024,1st,3rd,2nd,-1.2726467637829884,0.2970167191867076,-0.16190531794474208
perc,resp,1708,1,3.1.1left.bmp,3.1.1right.bmp,,ACC027,"[2, -2, -2]","[2, -2, -2]",[],match,1.0,,-1.3801896068196893,-0.6819421878880224,0.16407028507161114,1st,1st,3rd,-1.2726467637829884,-1.238090625934168,0.36036736137186065
perc,resp,1215,1,1.2.1left.bmp,1.2.1right.bmp,,ACC027,"[-2, 0, -2]","[-2, 0, -2]",[],match,1.0,,0.5467403162890657,-0.13524369742107303,-0.23259236092496127,3rd,2nd,2nd,0.3866132662727401,-0.2766440749693377,-0.16190531794474208
perc,resp,1356,1,1.3.2left.bmp,1.1.1right.bmp,,ACC027,"[-2, 2, 0]","[-2, -2, -2]",[],non-match,0.3545027756320971,2,0.5396776063605769,0.2637363336688535,-0.36749999653849036,3rd,3rd,2nd,0.3866132662727401,0.2970167191867076,-0.16190531794474208
perc,resp,1467,1,3.2.1left.bmp,3.2.1right.bmp,,ACC027,"[2, 0, -2]","[2, 0, -2]",[],match,1.0,,-0.23494896224271525,0.6490714281140667,-0.2408231491718859,2nd,4th,2nd,-0.2863027241793374,1.2180314070124492,-0.16190531794474208
perc,resp,1563,1,3.1.3left.bmp,3.1.3right.bmp,,ACC027,"[2, -2, 2]","[2, -2, 2]",[],match,1.0,,-0.34025176396658907,-0.19740379202550792,-0.016342099115840142,2nd,2nd,2nd,-0.2863027241793374,-0.2766440749693377,-0.16190531794474208
perc,resp,1112,1,2.1.3left.bmp,2.1.3right.bmp,,ACC027,"[0, -2, 2]","[0, -2, 2]",[],match,1.0,,-0.9452257413609986,-0.6392057529253321,0.2559372021465783,1st,1st,3rd,-1.2726467637829884,-1.238090625934168,0.36036736137186065
perc,resp,1057,1,1.1.3left.bmp,1.1.3right.bmp,,ACC027,"[-2, -2, 2]","[-2, -2, 2]",[],match,1.0,,-0.9727435081884362,-0.100972452156943,0.2869797223664772,1st,2nd,3rd,-1.2726467637829884,-0.2766440749693377,0.36036736137186065
perc,resp,1458,0,3.2.3left.bmp,3.2.2right.bmp,,ACC027,"[2, 0, 2]","[2, 0, 0]",[],non-match,0.7113248654051871,4,0.1726405439247424,-0.8094931107557339,0.43385558741824115,3rd,1st,3rd,0.3866132662727401,-1.238090625934168,0.36036736137186065
perc,resp,1208,1,2.3.2left.bmp,3.2.1right.bmp,,ACC027,"[0, 2, 0]","[2, 0, -2]",[],non-match,0.5,3,0.31727477810464194,-0.43205658133714514,0.2883131844662717,3rd,2nd,3rd,0.3866132662727401,-0.2766440749693377,0.36036736137186065
perc,resp,1099,1,1.3.3left.bmp,1.3.3right.bmp,,ACC027,"[-2, 2, 2]","[-2, 2, 2]",[],match,1.0,,0.6709959402328131,0.5691694627166294,0.11131938627079911,4th,3rd,2nd,1.1738794607987146,0.2970167191867076,-0.16190531794474208
perc,resp,1320,0,1.1.2left.bmp,1.1.2right.bmp,,ACC027,"[-2, -2, 0]","[-2, -2, 0]",[],match,1.0,,0.558643741413514,-0.4488203899075307,0.10957173710708007,3rd,2nd,2nd,0.3866132662727401,-0.2766440749693377,-0.16190531794474208
perc,resp,1463,1,1.2.2left.bmp,2.2.2right.bmp,,ACC027,"[-2, 0, 0]","[0, 0, 0]",[],non-match,0.7113248654051871,4,-1.8560462847945494,-1.5762886879490416,0.4361171795400575,1st,1st,3rd,-1.2726467637829884,-1.238090625934168,0.36036736137186065
perc,resp,1397,1,2.1.2left.bmp,3.1.2right.bmp,,ACC027,"[0, -2, 0]","[2, -2, 0]",[],non-match,0.7113248654051871,4,1.2751515564714553,-0.1807332479008016,0.349737529689425,4th,2nd,3rd,1.1738794607987146,-0.2766440749693377,0.36036736137186065
perc,resp,1588,1,3.2.2left.bmp,2.1.3right.bmp,,ACC027,"[2, 0, 0]","[0, -2, 2]",[],non-match,0.5,3,-1.062951415369286,0.5463928628502591,0.22031862692160437,1st,3rd,3rd,-1.2726467637829884,0.2970167191867076,0.36036736137186065
perc,resp,1179,1,3.3.1left.bmp,3.1.3right.bmp,,ACC027,"[2, 2, -2]","[2, -2, 2]",[],non-match,0.18350341907227385,1,-0.4137456703860755,-0.442096102386948,0.20749698132938643,2nd,2nd,3rd,-0.2863027241793374,-0.2766440749693377,0.36036736137186065
perc,resp,2016,1,2.1.1left.bmp,2.1.1right.bmp,,ACC027,"[0, -2, -2]","[0, -2, -2]",[],match,1.0,,0.5590624235010241,-0.1439932310124596,0.3375481223250637,3rd,2nd,3rd,0.3866132662727401,-0.2766440749693377,0.36036736137186065
perc,resp,2022,1,3.3.3left.bmp,3.1.1right.bmp,,ACC027,"[2, 2, 2]","[2, -2, -2]",[],non-match,0.18350341907227385,1,-0.8096639213020993,-1.5533627793723133,0.19640954249055415,1st,1st,3rd,-1.2726467637829884,-1.238090625934168,0.36036736137186065
perc,resp,1398,1,2.2.1left.bmp,2.2.1right.bmp,,ACC027,"[0, 0, -2]","[0, 0, -2]",[],match,1.0,,-0.9211289913437339,0.884764290115969,0.02356364186558694,1st,4th,2nd,-1.2726467637829884,1.2180314070124492,-0.16190531794474208
perc,resp,1317,1,1.3.1left.bmp,1.3.1right.bmp,,ACC027,"[-2, 2, -2]","[-2, 2, -2]",[],match,1.0,,0.6963300274115348,-0.40842766676089126,-0.09772571932484493,4th,2nd,2nd,1.1738794607987146,-0.2766440749693377,-0.16190531794474208
perc,resp,1369,1,2.2.2left.bmp,2.3.1right.bmp,,ACC027,"[0, 0, 0]","[0, 2, -2]",[],non-match,0.5917517095361369,3,0.48053905054430696,1.0769168490376475,0.3747989870006479,3rd,4th,3rd,0.3866132662727401,1.2180314070124492,0.36036736137186065
perc,resp,1462,1,3.3.2left.bmp,2.1.3right.bmp,,ACC027,"[2, 2, 0]","[0, -2, 2]",[],non-match,0.29289321881345254,1,0.6257308971043511,0.013078698258962016,0.5061008214536659,4th,3rd,3rd,1.1738794607987146,0.2970167191867076,0.36036736137186065
perc,resp,1314,1,2.2.3left.bmp,1.1.2right.bmp,,ACC027,"[0, 0, 2]","[-2, -2, 0]",[],non-match,0.5,3,1.133332075665368,0.305312903657505,0.5595849225609016,4th,3rd,3rd,1.1738794607987146,0.2970167191867076,0.36036736137186065
perc,resp,1203,1,1.1.1left.bmp,2.3.3right.bmp,,ACC027,"[-2, -2, -2]","[0, 2, 2]",[],non-match,0.1339745962155613,1,1.9684155702759467,-0.1479525364541201,0.6059114253783723,4th,2nd,3rd,1.1738794607987146,-0.2766440749693377,0.36036736137186065
perc,resp,1274,1,3.1.3left.bmp,2.2.1right.bmp,,ACC027,"[2, -2, 2]","[0, 0, -2]",[],non-match,0.29289321881345254,1,-0.21752318292211162,1.9805704318564308,0.886517872901009,2nd,4th,4th,-0.2863027241793374,1.2180314070124492,1.218663821573586
perc,resp,1213,1,2.2.2left.bmp,1.2.1right.bmp,,ACC027,"[0, 0, 0]","[-2, 0, -2]",[],non-match,0.5917517095361369,3,0.5643792465639891,-0.2231604060218987,0.8140565035072223,3rd,2nd,4th,0.3866132662727401,-0.2766440749693377,1.218663821573586
perc,resp,1608,1,2.1.1left.bmp,2.1.1right.bmp,,ACC027,"[0, -2, -2]","[0, -2, -2]",[],match,1.0,,-0.8179267027151846,-0.9440675677412672,1.0389468159902766,1st,1st,4th,-1.2726467637829884,-1.238090625934168,1.218663821573586
perc,resp,1087,1,1.2.3left.bmp,2.1.3right.bmp,,ACC027,"[-2, 0, 2]","[0, -2, 2]",[],non-match,0.5917517095361369,3,0.18012626600944207,0.34903514117725915,1.0351739873144654,3rd,3rd,4th,0.3866132662727401,0.2970167191867076,1.218663821573586
perc,resp,1984,1,2.2.1left.bmp,3.1.3right.bmp,,ACC027,"[0, 0, -2]","[2, -2, 2]",[],non-match,0.29289321881345254,1,-1.5860120290981998,-0.9980404004026253,1.2435505507646267,1st,1st,4th,-1.2726467637829884,-1.238090625934168,1.218663821573586
perc,resp,1608,1,1.1.3left.bmp,2.2.3right.bmp,,ACC027,"[-2, -2, 2]","[0, 0, 2]",[],non-match,0.5917517095361369,3,-0.7295957273152781,-0.18822548194899788,1.4629419201481164,1st,2nd,4th,-1.2726467637829884,-0.2766440749693377,1.218663821573586
perc,resp,2356,0,3.3.1left.bmp,3.1.1right.bmp,,ACC027,"[2, 2, -2]","[2, -2, -2]",[],non-match,0.42264973081037416,2,-0.5221643782741976,1.473411018313128,1.5527209867327605,2nd,4th,4th,-0.2863027241793374,1.2180314070124492,1.218663821573586
perc,resp,1852,0,3.1.2left.bmp,3.2.2right.bmp,,ACC027,"[2, -2, 0]","[2, 0, 0]",[],non-match,0.7113248654051871,4,-1.5278833890719323,-1.007429206606455,1.5511294600478112,1st,1st,4th,-1.2726467637829884,-1.238090625934168,1.218663821573586
perc,resp,2766,1,2.1.2left.bmp,2.1.2right.bmp,,ACC027,"[0, -2, 0]","[0, -2, 0]",[],match,1.0,,-1.0918940610127237,0.15583168187629698,1.6198154889842247,1st,3rd,4th,-1.2726467637829884,0.2970167191867076,1.218663821573586
perc,resp,1480,1,2.3.2left.bmp,2.3.2right.bmp,,ACC027,"[0, 2, 0]","[0, 2, 0]",[],match,1.0,,-0.5206851482515453,-1.402717237169356,1.4907709033511543,2nd,1st,4th,-0.2863027241793374,-1.238090625934168,1.218663821573586
perc,resp,1088,1,1.3.3left.bmp,1.3.3right.bmp,,ACC027,"[-2, 2, 2]","[-2, 2, 2]",[],match,1.0,,-0.35190674215245593,-0.328382249115974,1.5759481747886699,2nd,2nd,4th,-0.2863027241793374,-0.2766440749693377,1.218663821573586
perc,resp,1149,1,3.2.3left.bmp,3.2.3right.bmp,,ACC027,"[2, 0, 2]","[2, 0, 2]",[],match,1.0,,-0.7550933590225928,-0.7306945307652937,1.530491631325085,1st,1st,4th,-1.2726467637829884,-1.238090625934168,1.218663821573586
perc,resp,2892,0,3.2.2left.bmp,3.3.3right.bmp,,ACC027,"[2, 0, 0]","[2, 2, 2]",[],non-match,0.5917517095361369,3,-1.119655050078803,-0.8597321099672245,1.7323413631188496,1st,1st,4th,-1.2726467637829884,-1.238090625934168,1.218663821573586
perc,resp,1838,1,3.1.1left.bmp,1.2.3right.bmp,,ACC027,"[2, -2, -2]","[-2, 0, 2]",[],non-match,0.1339745962155613,1,0.014235368220279983,-2.0500092165314774,1.6466744544041862,2nd,1st,4th,-0.2863027241793374,-1.238090625934168,1.218663821573586
perc,resp,1632,1,2.3.3left.bmp,2.3.3right.bmp,,ACC027,"[0, 2, 2]","[0, 2, 2]",[],match,1.0,,0.17431740210664473,0.25136561117341966,1.620565574866303,3rd,3rd,4th,0.3866132662727401,0.2970167191867076,1.218663821573586
perc,resp,1385,1,1.2.2left.bmp,1.1.3right.bmp,,ACC027,"[-2, 0, 0]","[-2, -2, 2]",[],non-match,0.5917517095361369,3,-0.3895892282601162,-0.9539498458721043,1.6176363534343616,2nd,1st,4th,-0.2863027241793374,-1.238090625934168,1.218663821573586
perc,resp,1144,1,3.3.3left.bmp,2.1.1right.bmp,,ACC027,"[2, 2, 2]","[0, -2, -2]",[],non-match,0.1339745962155613,1,1.1371719919530998,-0.43258482624111416,1.5995305868820355,4th,2nd,4th,1.1738794607987146,-0.2766440749693377,1.218663821573586
perc,resp,1000,1,1.2.1left.bmp,3.2.3right.bmp,,ACC027,"[-2, 0, -2]","[2, 0, 2]",[],non-match,0.18350341907227385,1,1.1930715550846838,0.05871132055385391,1.2355407524376703,4th,3rd,4th,1.1738794607987146,0.2970167191867076,1.218663821573586
perc,resp,1885,1,1.3.2left.bmp,1.3.2right.bmp,,ACC027,"[-2, 2, 0]","[-2, 2, 0]",[],match,1.0,,-1.217303135938016,1.4959254710491594,1.1815746224935824,1st,4th,4th,-1.2726467637829884,1.2180314070124492,1.218663821573586
perc,resp,1519,1,3.2.1left.bmp,3.2.1right.bmp,,ACC027,"[2, 0, -2]","[2, 0, -2]",[],match,1.0,,-0.4895013552231573,-0.36438071562668684,1.126782052927714,2nd,2nd,4th,-0.2863027241793374,-0.2766440749693377,1.218663821573586
perc,resp,998,1,1.1.2left.bmp,2.1.2right.bmp,,ACC027,"[-2, -2, 0]","[0, -2, 0]",[],non-match,0.7113248654051871,4,-0.2563789283021683,-0.2703854302030836,0.7553248207594548,2nd,2nd,4th,-0.2863027241793374,-0.2766440749693377,1.218663821573586
perc,resp,1065,1,3.3.2left.bmp,1.3.3right.bmp,,ACC027,"[2, 2, 0]","[-2, 2, 2]",[],non-match,0.3545027756320971,2,0.6129012163305246,-0.22192748341101143,0.9180540601608662,3rd,2nd,4th,0.3866132662727401,-0.2766440749693377,1.218663821573586
perc,resp,1842,1,2.3.1left.bmp,2.3.1right.bmp,,ACC027,"[0, 2, -2]","[0, 2, -2]",[],match,1.0,,-1.4456345655003822,0.19024652570802897,0.818962499632749,1st,3rd,4th,-1.2726467637829884,0.2970167191867076,1.218663821573586
perc,resp,1020,1,1.3.1left.bmp,1.3.1right.bmp,,ACC027,"[-2, 2, -2]","[-2, 2, -2]",[],match,1.0,,-0.1809973247454076,0.6300106570065677,0.8512167728554333,2nd,4th,4th,-0.2863027241793374,1.2180314070124492,1.218663821573586
perc,resp,796,0,2.1.3left.bmp,2.1.3right.bmp,,ACC027,"[0, -2, 2]","[0, -2, 2]",[],match,1.0,,-0.08696034843262199,-0.7583982412553989,0.5958097707867989,2nd,1st,3rd,-0.2863027241793374,-1.238090625934168,0.36036736137186065
perc,resp,1067,1,3.1.2left.bmp,1.2.3right.bmp,,ACC027,"[2, -2, 0]","[-2, 0, 2]",[],non-match,0.29289321881345254,1,0.8182997727789343,-0.03166561457606666,0.22353156333994117,4th,3rd,3rd,1.1738794607987146,0.2970167191867076,0.36036736137186065
perc,resp,1408,1,3.3.1left.bmp,3.2.2right.bmp,,ACC027,"[2, 2, -2]","[2, 0, 0]",[],non-match,0.5917517095361369,3,-1.186776648968406,0.9277286771965181,0.011504849805609368,1st,4th,2nd,-1.2726467637829884,1.2180314070124492,-0.16190531794474208
perc,resp,1184,1,2.3.3left.bmp,2.3.3right.bmp,,ACC027,"[0, 2, 2]","[0, 2, 2]",[],match,1.0,,0.0004207117065418372,-0.12648535535834926,0.09239799195557098,2nd,2nd,2nd,-0.2863027241793374,-0.2766440749693377,-0.16190531794474208
perc,resp,1375,1,2.2.3left.bmp,2.2.3right.bmp,,ACC027,"[0, 0, 2]","[0, 0, 2]",[],match,1.0,,-0.2379821867644551,0.32272728075374185,-0.00832679407356728,2nd,3rd,2nd,-0.2863027241793374,0.2970167191867076,-0.16190531794474208
perc,resp,1588,1,2.2.2left.bmp,1.2.2right.bmp,,ACC027,"[0, 0, 0]","[-2, 0, 0]",[],non-match,0.7113248654051871,4,0.5237388581587746,-0.05541530178091075,-0.04472023938787461,3rd,2nd,2nd,0.3866132662727401,-0.2766440749693377,-0.16190531794474208
perc,resp,1269,1,1.2.3left.bmp,1.2.3right.bmp,,ACC027,"[-2, 0, 2]","[-2, 0, 2]",[],match,1.0,,0.8106064713565043,0.3486024140488458,-0.10459112440851505,4th,3rd,2nd,1.1738794607987146,0.2970167191867076,-0.16190531794474208
perc,resp,1051,1,3.1.3left.bmp,3.3.1right.bmp,,ACC027,"[2, -2, 2]","[2, 2, -2]",[],non-match,0.18350341907227385,1,0.18461381701239707,-0.018705778005966244,0.06240852966131873,3rd,3rd,2nd,0.3866132662727401,0.2970167191867076,-0.16190531794474208
perc,resp,1724,1,3.1.1left.bmp,3.1.1right.bmp,,ACC027,"[2, -2, -2]","[2, -2, -2]",[],match,1.0,,-1.9901402353673177,-0.20196025914853752,0.045941484435871205,1st,2nd,2nd,-1.2726467637829884,-0.2766440749693377,-0.16190531794474208
perc,resp,933,1,3.2.1left.bmp,2.3.2right.bmp,,ACC027,"[2, 0, -2]","[0, 2, 0]",[],non-match,0.5,3,0.4350394672427274,-0.18636332428602825,0.23541455728652208,3rd,2nd,3rd,0.3866132662727401,-0.2766440749693377,0.36036736137186065
perc,resp,1102,1,1.3.2left.bmp,1.3.2right.bmp,,ACC027,"[-2, 2, 0]","[-2, 2, 0]",[],match,1.0,,0.35059336861373996,1.8733214112659424,0.29280510566098306,3rd,4th,3rd,0.3866132662727401,1.2180314070124492,0.36036736137186065
perc,resp,949,1,1.3.1left.bmp,1.3.1right.bmp,,ACC027,"[-2, 2, -2]","[-2, 2, -2]",[],match,1.0,,0.32930448365680065,-0.18172462525450844,0.4847119724269453,3rd,2nd,3rd,0.3866132662727401,-0.2766440749693377,0.36036736137186065
perc,resp,1016,1,1.2.2left.bmp,1.2.2right.bmp,,ACC027,"[-2, 0, 0]","[-2, 0, 0]",[],match,1.0,,-0.301945870751055,0.6048407281708207,0.8130371808984287,2nd,4th,4th,-0.2863027241793374,1.2180314070124492,1.218663821573586
perc,resp,1473,1,1.3.3left.bmp,1.3.3right.bmp,,ACC027,"[-2, 2, 2]","[-2, 2, 2]",[],match,1.0,,-0.686640188340185,1.086577547291933,0.8588525257570627,1st,4th,4th,-1.2726467637829884,1.2180314070124492,1.218663821573586
perc,resp,1474,1,3.2.2left.bmp,3.2.2right.bmp,,ACC027,"[2, 0, 0]","[2, 0, 0]",[],match,1.0,,-1.5718465493058744,1.9267543592576362,0.5443729712470557,1st,4th,3rd,-1.2726467637829884,1.2180314070124492,0.36036736137186065
perc,resp,1801,1,2.3.1left.bmp,3.3.1right.bmp,,ACC027,"[0, 2, -2]","[2, 2, -2]",[],non-match,0.7113248654051871,4,-1.4036916887476516,2.582755575649582,0.40421196018079464,1st,4th,3rd,-1.2726467637829884,1.2180314070124492,0.36036736137186065
perc,resp,1231,1,3.1.3left.bmp,1.3.2right.bmp,,ACC027,"[2, -2, 2]","[-2, 2, 0]",[],non-match,0.1339745962155613,1,1.0780637205796444,0.03324421555059203,0.21802309656048846,4th,3rd,3rd,1.1738794607987146,0.2970167191867076,0.36036736137186065
perc,resp,950,1,3.2.1left.bmp,2.3.3right.bmp,,ACC027,"[2, 0, -2]","[0, 2, 2]",[],non-match,0.29289321881345254,1,1.3277339606569496,0.4697238698095269,-0.0466617781613134,4th,3rd,2nd,1.1738794607987146,0.2970167191867076,-0.16190531794474208
perc,resp,1441,1,1.3.1left.bmp,1.3.1right.bmp,,ACC027,"[-2, 2, -2]","[-2, 2, -2]",[],match,1.0,,1.159794750864216,-0.496769786484037,0.233549617112301,4th,2nd,3rd,1.1738794607987146,-0.2766440749693377,0.36036736137186065
perc,resp,1040,1,2.1.2left.bmp,3.1.2right.bmp,,ACC027,"[0, -2, 0]","[2, -2, 0]",[],non-match,0.7113248654051871,4,0.20514873753368718,1.403319407390623,0.35642336820441317,3rd,4th,3rd,0.3866132662727401,1.2180314070124492,0.36036736137186065
perc,resp,1191,1,2.2.3left.bmp,2.2.3right.bmp,,ACC027,"[0, 0, 2]","[0, 0, 2]",[],match,1.0,,-0.9066006729521419,0.1738807371331497,0.44029972305527937,1st,3rd,3rd,-1.2726467637829884,0.2970167191867076,0.36036736137186065
perc,resp,1392,1,1.2.1left.bmp,1.2.1right.bmp,,ACC027,"[-2, 0, -2]","[-2, 0, -2]",[],match,1.0,,0.3828837426800393,0.1521234617637628,0.3222385493414906,3rd,3rd,3rd,0.3866132662727401,0.2970167191867076,0.36036736137186065
perc,resp,1462,0,3.1.1left.bmp,3.1.1right.bmp,,ACC027,"[2, -2, -2]","[2, -2, -2]",[],match,1.0,,-1.2924821810932139,-0.34628501351498264,0.2873180631144301,1st,2nd,3rd,-1.2726467637829884,-0.2766440749693377,0.36036736137186065
perc,resp,1335,1,2.2.1left.bmp,1.1.2right.bmp,,ACC027,"[0, 0, -2]","[-2, -2, 0]",[],non-match,0.5,3,1.4914503460063337,1.1447990261199406,0.4409329898299117,4th,4th,3rd,1.1738794607987146,1.2180314070124492,0.36036736137186065
perc,resp,1406,1,2.1.1left.bmp,1.1.1right.bmp,,ACC027,"[0, -2, -2]","[-2, -2, -2]",[],non-match,0.7113248654051871,4,0.4750677216269044,0.3800568506468876,0.4062233840126845,3rd,3rd,3rd,0.3866132662727401,0.2970167191867076,0.36036736137186065
perc,resp,1488,0,2.3.3left.bmp,2.3.3right.bmp,,ACC027,"[0, 2, 2]","[0, 2, 2]",[],match,1.0,,-0.5578711137492962,-0.17524349251244684,0.011626443067547834,2nd,2nd,2nd,-0.2863027241793374,-0.2766440749693377,-0.16190531794474208
perc,resp,1149,1,1.1.3left.bmp,1.3.1right.bmp,,ACC027,"[-2, -2, 2]","[-2, 2, -2]",[],non-match,0.18350341907227385,1,0.42144211215317917,-0.2734888214598629,0.11108670738101571,3rd,2nd,2nd,0.3866132662727401,-0.2766440749693377,-0.16190531794474208
perc,resp,956,1,1.1.2left.bmp,1.1.2right.bmp,,ACC027,"[-2, -2, 0]","[-2, -2, 0]",[],match,1.0,,-0.37152570304714333,1.4434438964898533,0.4068569521408313,2nd,4th,3rd,-0.2863027241793374,1.2180314070124492,0.36036736137186065
perc,resp,1419,1,3.1.2left.bmp,3.1.2right.bmp,,ACC027,"[2, -2, 0]","[2, -2, 0]",[],match,1.0,,-0.8625370775154255,1.9532711940792067,0.12285159624375115,1st,4th,2nd,-1.2726467637829884,1.2180314070124492,-0.16190531794474208
perc,resp,1228,1,1.2.2left.bmp,2.3.1right.bmp,,ACC027,"[-2, 0, 0]","[0, 2, -2]",[],non-match,0.5,3,2.2603895696274896,1.024369079255208,0.05549451829941524,4th,4th,2nd,1.1738794607987146,1.2180314070124492,-0.16190531794474208
perc,resp,1651,1,3.2.3left.bmp,3.2.3right.bmp,,ACC027,"[2, 0, 2]","[2, 0, 2]",[],match,1.0,,-1.353290559849313,2.0208048366312084,0.049305053337957164,1st,4th,2nd,-1.2726467637829884,1.2180314070124492,-0.16190531794474208
perc,resp,1072,1,3.3.3left.bmp,1.3.3right.bmp,,ACC027,"[2, 2, 2]","[-2, 2, 2]",[],non-match,0.42264973081037416,2,1.3876257080741712,0.4518451897025783,0.03352662924425985,4th,3rd,2nd,1.1738794607987146,0.2970167191867076,-0.16190531794474208
perc,resp,1281,0,1.2.3left.bmp,1.2.1right.bmp,,ACC027,"[-2, 0, 2]","[-2, 0, -2]",[],non-match,0.42264973081037416,2,-1.9204670493233968,0.19182871444981575,-0.12516600841479109,1st,3rd,2nd,-1.2726467637829884,0.2970167191867076,-0.16190531794474208
perc,resp,1039,1,1.1.1left.bmp,3.1.2right.bmp,,ACC027,"[-2, -2, -2]","[2, -2, 0]",[],non-match,0.3545027756320971,2,1.640128799781854,0.12599367292855887,-0.16931158433960167,4th,3rd,2nd,1.1738794607987146,0.2970167191867076,-0.16190531794474208
perc,resp,1300,1,1.3.2left.bmp,1.3.2right.bmp,,ACC027,"[-2, 2, 0]","[-2, 2, 0]",[],match,1.0,,0.9690327054715047,-0.374730464598875,-0.33774678426622606,4th,2nd,2nd,1.1738794607987146,-0.2766440749693377,-0.16190531794474208
perc,resp,2439,0,3.3.1left.bmp,3.3.1right.bmp,,ACC027,"[2, 2, -2]","[2, 2, -2]",[],match,1.0,,-2.199082795797596,0.000648774642220101,-0.22186213410172856,1st,3rd,2nd,-1.2726467637829884,0.2970167191867076,-0.16190531794474208
perc,resp,1885,1,3.3.2left.bmp,3.3.2right.bmp,,ACC027,"[2, 2, 0]","[2, 2, 0]",[],match,1.0,,-0.6131505895190053,-1.1473021420010308,0.08627906710932634,1st,1st,2nd,-1.2726467637829884,-1.238090625934168,-0.16190531794474208
perc,resp,1015,1,2.3.2left.bmp,1.1.2right.bmp,,ACC027,"[0, 2, 0]","[-2, -2, 0]",[],non-match,0.3545027756320971,2,1.0086376382689237,1.1505477095959529,-0.2704555470694243,4th,4th,2nd,1.1738794607987146,1.2180314070124492,-0.16190531794474208
perc,resp,1002,1,2.1.3left.bmp,3.2.1right.bmp,,ACC027,"[0, -2, 2]","[2, 0, -2]",[],non-match,0.29289321881345254,1,0.9450930689254884,-0.15059326348555174,-0.47979910270908405,4th,2nd,2nd,1.1738794607987146,-0.2766440749693377,-0.16190531794474208
perc,resp,1817,1,2.2.2left.bmp,2.2.2right.bmp,,ACC027,"[0, 0, 0]","[0, 0, 0]",[],match,1.0,,-0.20326797984187658,-0.08171300758797036,-0.4119804640010208,2nd,2nd,2nd,-0.2863027241793374,-0.2766440749693377,-0.16190531794474208
perc,resp,1862,0,3.3.3left.bmp,3.2.2right.bmp,,ACC027,"[2, 2, 2]","[2, 0, 0]",[],non-match,0.5917517095361369,3,-0.4614944421851017,0.3879797340777675,-0.3978769195095707,2nd,3rd,2nd,-0.2863027241793374,0.2970167191867076,-0.16190531794474208
perc,resp,1918,1,2.3.3left.bmp,2.3.3right.bmp,,ACC027,"[0, 2, 2]","[0, 2, 2]",[],match,1.0,,-0.5789941211948885,2.108507595949838,-0.1281443415752547,2nd,4th,2nd,-0.2863027241793374,1.2180314070124492,-0.16190531794474208
perc,resp,1292,1,1.3.1left.bmp,1.3.1right.bmp,,ACC027,"[-2, 2, -2]","[-2, 2, -2]",[],match,1.0,,-0.38600860407899645,1.601630229073449,-0.06251935254220958,2nd,4th,2nd,-0.2863027241793374,1.2180314070124492,-0.16190531794474208
perc,resp,1129,1,2.1.1left.bmp,1.1.3right.bmp,,ACC027,"[0, -2, -2]","[-2, -2, 2]",[],non-match,0.3545027756320971,2,0.5652909333164722,1.9818421292996127,-0.052686235022112844,3rd,4th,2nd,0.3866132662727401,1.2180314070124492,-0.16190531794474208
perc,resp,1119,1,1.2.2left.bmp,2.2.1right.bmp,,ACC027,"[-2, 0, 0]","[0, 0, -2]",[],non-match,0.5917517095361369,3,0.9068698951476882,1.4330561628140281,0.14277624918792992,4th,4th,3rd,1.1738794607987146,1.2180314070124492,0.36036736137186065
perc,resp,1108,1,1.3.2left.bmp,2.1.2right.bmp,,ACC027,"[-2, 2, 0]","[0, -2, 0]",[],non-match,0.3545027756320971,2,-0.6542895486764441,0.3369007842066915,0.39621527067445667,1st,3rd,3rd,-1.2726467637829884,0.2970167191867076,0.36036736137186065
perc,resp,1399,1,1.3.3left.bmp,1.3.3right.bmp,,ACC027,"[-2, 2, 2]","[-2, 2, 2]",[],match,1.0,,0.30390481383856094,0.04491827868178624,0.22674265048217043,3rd,3rd,3rd,0.3866132662727401,0.2970167191867076,0.36036736137186065
perc,resp,968,0,3.1.1left.bmp,3.1.1right.bmp,,ACC027,"[2, -2, -2]","[2, -2, -2]",[],match,1.0,,-0.06516467458811681,0.6809306446972457,0.46271806757449185,2nd,4th,3rd,-0.2863027241793374,1.2180314070124492,0.36036736137186065
perc,resp,2225,1,2.2.1left.bmp,2.2.2right.bmp,,ACC027,"[0, 0, -2]","[0, 0, 0]",[],non-match,0.7113248654051871,4,-0.9340987927061811,0.5716752240676497,0.26315217739629354,1st,3rd,3rd,-1.2726467637829884,0.2970167191867076,0.36036736137186065
perc,resp,1584,1,2.2.3left.bmp,2.3.2right.bmp,,ACC027,"[0, 0, 2]","[0, 2, 0]",[],non-match,0.5917517095361369,3,0.34176556530910934,-0.6576987434319335,0.1667584880021999,3rd,1st,3rd,0.3866132662727401,-1.238090625934168,0.36036736137186065
perc,resp,2067,1,2.3.1left.bmp,2.3.1right.bmp,,ACC027,"[0, 2, -2]","[0, 2, -2]",[],match,1.0,,-0.5484888115426944,-2.47331520931022,0.40596022905051776,2nd,1st,3rd,-0.2863027241793374,-1.238090625934168,0.36036736137186065
perc,resp,1467,0,3.1.3left.bmp,3.1.3right.bmp,,ACC027,"[2, -2, 2]","[2, -2, 2]",[],match,1.0,,1.252939622063908,0.4504286938667948,0.5692987129465309,4th,3rd,3rd,1.1738794607987146,0.2970167191867076,0.36036736137186065
perc,resp,2207,0,2.3.2left.bmp,2.3.3right.bmp,,ACC027,"[0, 2, 0]","[0, 2, 2]",[],non-match,0.7113248654051871,4,-1.1121742496227647,-1.455170081772733,0.48974911295514933,1st,1st,3rd,-1.2726467637829884,-1.238090625934168,0.36036736137186065
perc,resp,977,1,1.1.3left.bmp,1.2.1right.bmp,,ACC027,"[-2, -2, 2]","[-2, 0, -2]",[],non-match,0.3545027756320971,2,0.7077678040753289,0.24825595741542394,0.41370560720133287,4th,3rd,3rd,1.1738794607987146,0.2970167191867076,0.36036736137186065
perc,resp,1899,1,3.2.3left.bmp,3.2.3right.bmp,,ACC027,"[2, 0, 2]","[2, 0, 2]",[],match,1.0,,0.0014821789124052254,-0.09905352228668793,0.24487954083778116,2nd,2nd,3rd,-0.2863027241793374,-0.2766440749693377,0.36036736137186065
perc,resp,1151,1,1.2.3left.bmp,2.2.3right.bmp,,ACC027,"[-2, 0, 2]","[0, 0, 2]",[],non-match,0.7113248654051871,4,1.9468755761504737,-0.9511275794654707,0.1876785356560488,4th,1st,3rd,1.1738794607987146,-1.238090625934168,0.36036736137186065
perc,resp,1776,1,2.2.2left.bmp,3.3.1right.bmp,,ACC027,"[0, 0, 0]","[2, 2, -2]",[],non-match,0.5,3,-0.2574322718075159,-0.9732704083559808,0.23713414411377914,2nd,1st,3rd,-0.2863027241793374,-1.238090625934168,0.36036736137186065
perc,resp,1346,1,1.2.1left.bmp,2.2.1right.bmp,,ACC027,"[-2, 0, -2]","[0, 0, -2]",[],non-match,0.7113248654051871,4,0.4200187524465458,-0.5913191569451314,-0.03348419023887079,3rd,2nd,2nd,0.3866132662727401,-0.2766440749693377,-0.16190531794474208
perc,resp,1160,1,3.3.2left.bmp,2.1.1right.bmp,,ACC027,"[2, 2, 0]","[0, -2, -2]",[],non-match,0.29289321881345254,1,-1.0003551271443982,0.6948370261357127,-0.292146782166454,1st,4th,2nd,-1.2726467637829884,1.2180314070124492,-0.16190531794474208
perc,resp,1418,0,3.2.1left.bmp,3.2.1right.bmp,,ACC027,"[2, 0, -2]","[2, 0, -2]",[],match,1.0,,0.809441452871307,0.9385546689013629,-0.238269129047373,4th,4th,2nd,1.1738794607987146,1.2180314070124492,-0.16190531794474208
perc,resp,2063,0,3.1.2left.bmp,3.1.3right.bmp,,ACC027,"[2, -2, 0]","[2, -2, 2]",[],non-match,0.7113248654051871,4,0.712549208108645,0.3524448389771578,-0.48318169065615335,4th,3rd,2nd,1.1738794607987146,0.2970167191867076,-0.16190531794474208
perc,resp,1667,1,1.1.2left.bmp,1.1.2right.bmp,,ACC027,"[-2, -2, 0]","[-2, -2, 0]",[],match,1.0,,-0.17125455047028723,-0.5284056892972202,-0.16069344812475841,2nd,2nd,2nd,-0.2863027241793374,-0.2766440749693377,-0.16190531794474208
perc,resp,1610,1,2.1.2left.bmp,2.1.2right.bmp,,ACC027,"[0, -2, 0]","[0, -2, 0]",[],match,1.0,,-0.8028235824510842,1.1408463343477884,0.09386010263119925,1st,4th,2nd,-1.2726467637829884,1.2180314070124492,-0.16190531794474208
perc,resp,2250,1,1.1.1left.bmp,3.2.1right.bmp,,ACC027,"[-2, -2, -2]","[2, 0, -2]",[],non-match,0.3545027756320971,2,0.4958024753332223,1.3606541571672215,-0.0652631156655082,3rd,4th,2nd,0.3866132662727401,1.2180314070124492,-0.16190531794474208
perc,resp,953,1,1.2.3left.bmp,1.2.3right.bmp,,ACC027,"[-2, 0, 2]","[-2, 0, 2]",[],match,1.0,,0.7000529473425547,-0.15966493545724392,-0.32494694782624084,4th,2nd,2nd,1.1738794607987146,-0.2766440749693377,-0.16190531794474208
perc,resp,897,1,1.1.3left.bmp,1.1.3right.bmp,,ACC027,"[-2, -2, 2]","[-2, -2, 2]",[],match,1.0,,-0.5651966084530159,0.6882743345577215,-0.3028297661075897,2nd,4th,2nd,-0.2863027241793374,1.2180314070124492,-0.16190531794474208
perc,resp,1569,1,2.1.2left.bmp,2.1.2right.bmp,,ACC027,"[0, -2, 0]","[0, -2, 0]",[],match,1.0,,-0.39842713226342213,1.2703075688305772,-0.24779657576640365,2nd,4th,2nd,-0.2863027241793374,1.2180314070124492,-0.16190531794474208
perc,resp,948,1,1.1.2left.bmp,3.2.2right.bmp,,ACC027,"[-2, -2, 0]","[2, 0, 0]",[],non-match,0.3545027756320971,2,0.8556380614451137,1.4304398419789244,-0.22977440259668394,4th,4th,2nd,1.1738794607987146,1.2180314070124492,-0.16190531794474208
perc,resp,911,1,1.3.3left.bmp,1.3.3right.bmp,,ACC027,"[-2, 2, 2]","[-2, 2, 2]",[],match,1.0,,-0.8070045702016254,0.780286806745862,-0.0576453953910565,1st,4th,2nd,-1.2726467637829884,1.2180314070124492,-0.16190531794474208
perc,resp,1222,1,1.2.1left.bmp,1.3.2right.bmp,,ACC027,"[-2, 0, -2]","[-2, 2, 0]",[],non-match,0.5917517095361369,3,1.083947123147796,1.3025075942416113,-0.3231817775319,4th,4th,2nd,1.1738794607987146,1.2180314070124492,-0.16190531794474208
perc,resp,1505,0,2.1.3left.bmp,2.1.3right.bmp,,ACC027,"[0, -2, 2]","[0, -2, 2]",[],match,1.0,,0.24037794395585568,3.1815657580397665,-0.5494149687712119,3rd,4th,2nd,0.3866132662727401,1.2180314070124492,-0.16190531794474208
perc,resp,1233,1,2.1.1left.bmp,1.1.1right.bmp,,ACC027,"[0, -2, -2]","[-2, -2, -2]",[],non-match,0.7113248654051871,4,-0.46298126603852297,0.8140231934365149,-0.5743765026891804,2nd,4th,2nd,-0.2863027241793374,1.2180314070124492,-0.16190531794474208
perc,resp,1080,1,2.3.2left.bmp,2.3.2right.bmp,,ACC027,"[0, 2, 0]","[0, 2, 0]",[],match,1.0,,0.5443616531391813,0.6112835543049774,-0.2973357005188394,3rd,4th,2nd,0.3866132662727401,1.2180314070124492,-0.16190531794474208
perc,resp,1057,1,2.2.3left.bmp,3.1.1right.bmp,,ACC027,"[0, 0, 2]","[2, -2, -2]",[],non-match,0.29289321881345254,1,0.7849297639710087,-0.05755052205531154,-0.4519542854160438,4th,2nd,2nd,1.1738794607987146,-0.2766440749693377,-0.16190531794474208
perc,resp,1843,1,1.2.2left.bmp,1.3.3right.bmp,,ACC027,"[-2, 0, 0]","[-2, 2, 2]",[],non-match,0.5917517095361369,3,-4.761009863515691,-4.8578204461614884,-0.6790828037222132,1st,1st,2nd,-1.2726467637829884,-1.238090625934168,-0.16190531794474208
perc,resp,1655,1,2.3.1left.bmp,2.3.1right.bmp,,ACC027,"[0, 2, -2]","[0, 2, -2]",[],match,1.0,,-0.026712377109357678,-1.6966949016900064,-0.7691028772200674,2nd,1st,1st,-0.2863027241793374,-1.238090625934168,-1.4140726027941335
perc,resp,1185,1,1.1.2left.bmp,1.1.2right.bmp,,ACC027,"[-2, -2, 0]","[-2, -2, 0]",[],match,1.0,,1.3043751269502093,0.4987481632955311,-0.7627989231720053,4th,3rd,1st,1.1738794607987146,0.2970167191867076,-1.4140726027941335
perc,resp,962,1,1.2.1left.bmp,1.2.1right.bmp,,ACC027,"[-2, 0, -2]","[-2, 0, -2]",[],match,1.0,,0.44311954930910036,0.08659727275574625,-1.0235244866812068,3rd,3rd,1st,0.3866132662727401,0.2970167191867076,-1.4140726027941335
perc,resp,1121,1,3.3.2left.bmp,3.3.2right.bmp,,ACC027,"[2, 2, 0]","[2, 2, 0]",[],match,1.0,,0.94974142368238,-0.034686890980453224,-1.311039645092659,4th,2nd,1st,1.1738794607987146,-0.2766440749693377,-1.4140726027941335
perc,resp,1038,1,1.2.3left.bmp,1.2.3right.bmp,,ACC027,"[-2, 0, 2]","[-2, 0, 2]",[],match,1.0,,-0.0903777426559824,-0.4269268905046842,-1.168614774827903,2nd,2nd,1st,-0.2863027241793374,-0.2766440749693377,-1.4140726027941335
perc,resp,1078,1,2.1.1left.bmp,2.1.1right.bmp,,ACC027,"[0, -2, -2]","[0, -2, -2]",[],match,1.0,,1.3976498231450458,0.2566156356741048,-1.077984469811319,4th,3rd,1st,1.1738794607987146,0.2970167191867076,-1.4140726027941335
perc,resp,983,1,2.1.2left.bmp,2.1.2right.bmp,,ACC027,"[0, -2, 0]","[0, -2, 0]",[],match,1.0,,0.3691951790558388,-1.0085206961875441,-1.086229872412088,3rd,1st,1st,0.3866132662727401,-1.238090625934168,-1.4140726027941335
perc,resp,994,1,2.2.2left.bmp,1.2.2right.bmp,,ACC027,"[0, 0, 0]","[-2, 0, 0]",[],non-match,0.7113248654051871,4,1.159373055398547,0.4374542545485323,-0.6815132914771592,4th,3rd,2nd,1.1738794607987146,0.2970167191867076,-0.16190531794474208
perc,resp,1263,0,2.2.1left.bmp,3.2.3right.bmp,,ACC027,"[0, 0, -2]","[2, 0, 2]",[],non-match,0.3545027756320971,2,-0.587136451328161,0.28238524289731765,-0.34284285112023827,1st,3rd,2nd,-1.2726467637829884,0.2970167191867076,-0.16190531794474208
perc,resp,1022,1,3.1.1left.bmp,1.1.1right.bmp,,ACC027,"[2, -2, -2]","[-2, -2, -2]",[],non-match,0.42264973081037416,2,0.3174789185998944,-0.9920318889702044,0.06466088198118984,3rd,1st,2nd,0.3866132662727401,-1.238090625934168,-0.16190531794474208
perc,resp,979,1,2.3.3left.bmp,2.3.3right.bmp,,ACC027,"[0, 2, 2]","[0, 2, 2]",[],match,1.0,,-0.7322064685812428,0.19740637896738875,0.16563654010687984,1st,3rd,3rd,-1.2726467637829884,0.2970167191867076,0.36036736137186065
perc,resp,1007,1,3.3.1left.bmp,1.2.3right.bmp,,ACC027,"[2, 2, -2]","[-2, 0, 2]",[],non-match,0.1339745962155613,1,0.9186977561750284,-0.13661732146114858,0.10288137305511383,4th,2nd,2nd,1.1738794607987146,-0.2766440749693377,-0.16190531794474208
perc,resp,986,1,1.3.3left.bmp,2.2.2right.bmp,,ACC027,"[-2, 2, 2]","[0, 0, 0]",[],non-match,0.5,3,0.5745303572725443,-0.49615995348011405,0.22056802568279327,3rd,2nd,3rd,0.3866132662727401,-0.2766440749693377,0.36036736137186065
perc,resp,1053,1,1.3.1left.bmp,1.1.2right.bmp,,ACC027,"[-2, 2, -2]","[-2, -2, 0]",[],non-match,0.3545027756320971,2,1.1679605789880851,-0.6614091876103202,0.793573087779768,4th,1st,4th,1.1738794607987146,-1.238090625934168,1.218663821573586
perc,resp,902,1,3.1.3left.bmp,1.2.2right.bmp,,ACC027,"[2, -2, 2]","[-2, 0, 0]",[],non-match,0.29289321881345254,1,0.04488939963113464,0.2381338825528628,0.7758707619012706,2nd,3rd,4th,-0.2863027241793374,0.2970167191867076,1.218663821573586
perc,resp,1080,1,1.1.1left.bmp,1.1.1right.bmp,,ACC027,"[-2, -2, -2]","[-2, -2, -2]",[],match,1.0,,2.0380532967407703,-0.9147341217857742,0.7897111961279296,4th,1st,4th,1.1738794607987146,-1.238090625934168,1.218663821573586
perc,resp,905,1,3.2.3left.bmp,1.3.2right.bmp,,ACC027,"[2, 0, 2]","[-2, 2, 0]",[],non-match,0.29289321881345254,1,0.38401181025126396,-0.9512706220166091,1.0471922642986293,3rd,1st,4th,0.3866132662727401,-1.238090625934168,1.218663821573586
perc,resp,994,1,3.3.3left.bmp,2.1.3right.bmp,,ACC027,"[2, 2, 2]","[0, -2, 2]",[],non-match,0.3545027756320971,2,0.7890412758738344,-0.15817109480504105,0.4638086305178512,4th,2nd,3rd,1.1738794607987146,-0.2766440749693377,0.36036736137186065
perc,resp,1051,1,1.1.3left.bmp,3.3.2right.bmp,,ACC027,"[-2, -2, 2]","[2, 2, 0]",[],non-match,0.1339745962155613,1,1.0938753445085256,-1.1293757542183462,0.6143214444132914,4th,1st,3rd,1.1738794607987146,-1.238090625934168,0.36036736137186065
perc,resp,1104,0,3.2.1left.bmp,3.3.1right.bmp,,ACC027,"[2, 0, -2]","[2, 2, -2]",[],non-match,0.7113248654051871,4,0.7517300466958681,-0.21217469127202193,0.4564447151334888,4th,2nd,3rd,1.1738794607987146,-0.2766440749693377,0.36036736137186065
perc,resp,971,1,2.3.2left.bmp,2.3.2right.bmp,,ACC027,"[0, 2, 0]","[0, 2, 0]",[],match,1.0,,0.34355601118155044,-0.38441431069644016,0.4447502223830926,3rd,2nd,3rd,0.3866132662727401,-0.2766440749693377,0.36036736137186065
perc,resp,958,1,1.3.2left.bmp,1.3.2right.bmp,,ACC027,"[-2, 2, 0]","[-2, 2, 0]",[],match,1.0,,-0.10415789455659001,1.7757495353114368,0.14578224273383852,2nd,4th,3rd,-0.2863027241793374,1.2180314070124492,0.36036736137186065
perc,resp,1126,1,3.1.2left.bmp,3.1.2right.bmp,,ACC027,"[2, -2, 0]","[2, -2, 0]",[],match,1.0,,1.6836800469475908,0.6889862112146355,0.464568275607177,4th,4th,3rd,1.1738794607987146,1.2180314070124492,0.36036736137186065
perc,resp,943,1,3.2.2left.bmp,1.3.1right.bmp,,ACC027,"[2, 0, 0]","[-2, 2, -2]",[],non-match,0.29289321881345254,1,1.9464198896956628,-0.6309036955306427,0.34052706952696093,4th,2nd,3rd,1.1738794607987146,-0.2766440749693377,0.36036736137186065
perc,resp,899,1,2.1.3left.bmp,2.1.3right.bmp,,ACC027,"[0, -2, 2]","[0, -2, 2]",[],match,1.0,,0.6057707225902607,-0.06309131390217403,0.17511622721152123,3rd,2nd,3rd,0.3866132662727401,-0.2766440749693377,0.36036736137186065
perc,resp,898,1,2.2.3left.bmp,2.2.3right.bmp,,ACC027,"[0, 0, 2]","[0, 0, 2]",[],match,1.0,,-0.8616081135926871,0.5447083085512123,0.3491229568456031,1st,3rd,3rd,-1.2726467637829884,0.2970167191867076,0.36036736137186065
perc,resp,1387,1,3.2.2left.bmp,3.2.2right.bmp,,ACC027,"[2, 0, 0]","[2, 0, 0]",[],match,1.0,,0.9781175104818987,0.8907123786540642,0.1626747431444914,4th,4th,3rd,1.1738794607987146,1.2180314070124492,0.36036736137186065
perc,resp,1418,1,2.2.1left.bmp,2.2.1right.bmp,,ACC027,"[0, 0, -2]","[0, 0, -2]",[],match,1.0,,0.10790650022276921,-1.4679402801488861,-0.02013249422726378,3rd,1st,2nd,0.3866132662727401,-1.238090625934168,-0.16190531794474208
perc,resp,997,1,3.1.1left.bmp,3.1.1right.bmp,,ACC027,"[2, -2, -2]","[2, -2, -2]",[],match,1.0,,0.010409266791582154,-0.46316795577745495,-0.33796764502315096,2nd,2nd,2nd,-0.2863027241793374,-0.2766440749693377,-0.16190531794474208
perc,resp,914,1,1.1.3left.bmp,1.3.1right.bmp,,ACC027,"[-2, -2, 2]","[-2, 2, -2]",[],non-match,0.18350341907227385,1,0.576537395412086,-0.0182995348196109,-0.1017428066252983,3rd,3rd,2nd,0.3866132662727401,0.2970167191867076,-0.16190531794474208
perc,resp,979,1,3.1.3left.bmp,3.1.3right.bmp,,ACC027,"[2, -2, 2]","[2, -2, 2]",[],match,1.0,,-0.6617030675616975,-0.23551667208929197,0.10729011006428016,1st,2nd,2nd,-1.2726467637829884,-0.2766440749693377,-0.16190531794474208
perc,resp,1381,1,1.1.1left.bmp,2.1.2right.bmp,,ACC027,"[-2, -2, -2]","[0, -2, 0]",[],non-match,0.5917517095361369,3,0.9926139185095498,0.5686358624962001,0.3495924622990998,4th,3rd,3rd,1.1738794607987146,0.2970167191867076,0.36036736137186065
perc,resp,839,1,1.3.2left.bmp,1.3.2right.bmp,,ACC027,"[-2, 2, 0]","[-2, 2, 0]",[],match,1.0,,-0.9443202521405359,0.8960844341363882,0.41605990657680486,1st,4th,3rd,-1.2726467637829884,1.2180314070124492,0.36036736137186065
perc,resp,915,1,2.1.3left.bmp,2.2.1right.bmp,,ACC027,"[0, -2, 2]","[0, 0, -2]",[],non-match,0.3545027756320971,2,1.9812227793314523,0.2850383193470345,0.6718553125984352,4th,3rd,3rd,1.1738794607987146,0.2970167191867076,0.36036736137186065
perc,resp,862,1,2.3.2left.bmp,3.1.2right.bmp,,ACC027,"[0, 2, 0]","[2, -2, 0]",[],non-match,0.3545027756320971,2,0.5484079877146268,-0.2283460496689623,0.8996919482108733,3rd,2nd,4th,0.3866132662727401,-0.2766440749693377,1.218663821573586
perc,resp,1111,1,1.2.3left.bmp,3.3.1right.bmp,,ACC027,"[-2, 0, 2]","[2, 2, -2]",[],non-match,0.1339745962155613,1,1.1516642823561274,0.8525715807110277,0.7913689284924886,4th,4th,4th,1.1738794607987146,1.2180314070124492,1.218663821573586
perc,resp,835,1,2.2.2left.bmp,2.2.2right.bmp,,ACC027,"[0, 0, 0]","[0, 0, 0]",[],match,1.0,,0.6141224573057453,0.7892380865212812,1.1786280589555194,3rd,4th,4th,0.3866132662727401,1.2180314070124492,1.218663821573586
perc,resp,752,0,2.3.3left.bmp,2.2.3right.bmp,,ACC027,"[0, 2, 2]","[0, 0, 2]",[],non-match,0.7113248654051871,4,0.38177945856379714,0.5515551538058727,0.8108879034078906,3rd,3rd,4th,0.3866132662727401,0.2970167191867076,1.218663821573586
perc,resp,858,1,3.3.2left.bmp,3.2.1right.bmp,,ACC027,"[2, 2, 0]","[2, 0, -2]",[],non-match,0.5917517095361369,3,0.22107874772783415,-0.0312782759494567,0.6815994381266889,3rd,3rd,4th,0.3866132662727401,0.2970167191867076,1.218663821573586
perc,resp,1167,1,3.2.3left.bmp,2.2.1right.bmp,,ACC027,"[2, 0, 2]","[0, 0, -2]",[],non-match,0.3545027756320971,2,-1.1685144138765995,-0.09248889928308822,0.639684821238454,1st,2nd,3rd,-1.2726467637829884,-0.2766440749693377,0.36036736137186065
perc,resp,814,1,1.3.1left.bmp,1.3.1right.bmp,,ACC027,"[-2, 2, -2]","[-2, 2, -2]",[],match,1.0,,0.4868619732630092,0.39753514037235643,0.6977175156111133,3rd,3rd,4th,0.3866132662727401,0.2970167191867076,1.218663821573586
perc,resp,1025,1,2.1.1left.bmp,1.2.1right.bmp,,ACC027,"[0, -2, -2]","[-2, 0, -2]",[],non-match,0.5917517095361369,3,2.8939298535221782,0.0948142596315809,0.8164115967263637,4th,3rd,4th,1.1738794607987146,0.2970167191867076,1.218663821573586
perc,resp,817,1,3.2.1left.bmp,1.2.2right.bmp,,ACC027,"[2, 0, -2]","[-2, 0, 0]",[],non-match,0.3545027756320971,2,1.602256806638538,0.4672572637231192,0.6849057607112097,4th,3rd,4th,1.1738794607987146,0.2970167191867076,1.218663821573586
perc,resp,854,1,2.3.1left.bmp,1.2.3right.bmp,,ACC027,"[0, 2, -2]","[-2, 0, 2]",[],non-match,0.29289321881345254,1,0.2959509596908857,-0.47963891925593277,0.9874200203868145,3rd,2nd,4th,0.3866132662727401,-0.2766440749693377,1.218663821573586
perc,resp,1295,1,3.3.3left.bmp,3.1.3right.bmp,,ACC027,"[2, 2, 2]","[2, -2, 2]",[],non-match,0.42264973081037416,2,0.7160524809591792,-0.6944618203714815,0.9394234388612037,4th,1st,4th,1.1738794607987146,-1.238090625934168,1.218663821573586
perc,resp,892,0,3.1.2left.bmp,3.1.2right.bmp,,ACC027,"[2, -2, 0]","[2, -2, 0]",[],match,1.0,,0.15416790645040876,0.25015402203630055,1.3996984666442245,3rd,3rd,4th,0.3866132662727401,0.2970167191867076,1.218663821573586
perc,resp,869,1,2.1.2left.bmp,3.2.2right.bmp,,ACC027,"[0, -2, 0]","[2, 0, 0]",[],non-match,0.5917517095361369,3,-0.5808112705523077,-1.2551978316861225,1.531665651671227,1st,1st,4th,-1.2726467637829884,-1.238090625934168,1.218663821573586
perc,resp,864,1,3.3.1left.bmp,1.1.3right.bmp,,ACC027,"[2, 2, -2]","[-2, -2, 2]",[],non-match,0.0,1,1.3717569816066246,0.6102494222116603,1.354333582754887,4th,4th,4th,1.1738794607987146,1.2180314070124492,1.218663821573586
perc,resp,751,1,1.2.1left.bmp,3.3.3right.bmp,,ACC027,"[-2, 0, -2]","[2, 2, 2]",[],non-match,0.1339745962155613,1,0.38128914711975975,-0.4410907660936146,1.3637387781499464,3rd,2nd,4th,0.3866132662727401,-0.2766440749693377,1.218663821573586
perc,resp,726,1,2.2.3left.bmp,1.1.1right.bmp,,ACC027,"[0, 0, 2]","[-2, -2, -2]",[],non-match,0.29289321881345254,1,0.31432415021128907,1.0946533059861412,1.4945316376132933,3rd,4th,4th,0.3866132662727401,1.2180314070124492,1.218663821573586
perc,resp,994,1,1.2.2left.bmp,2.3.1right.bmp,,ACC027,"[-2, 0, 0]","[0, 2, -2]",[],non-match,0.5,3,0.4625016231589753,1.3545210029389876,1.240572484359307,3rd,4th,4th,0.3866132662727401,1.2180314070124492,1.218663821573586
perc,resp,901,1,1.3.3left.bmp,1.3.3right.bmp,,ACC027,"[-2, 2, 2]","[-2, 2, 2]",[],match,1.0,,1.4949815945632627,0.5067962967507299,1.37199256134543,4th,3rd,4th,1.1738794607987146,0.2970167191867076,1.218663821573586
perc,resp,768,1,1.1.2left.bmp,1.1.2right.bmp,,ACC027,"[-2, -2, 0]","[-2, -2, 0]",[],match,1.0,,1.3444449155151343,-0.32605593476241335,1.7562437993392135,4th,2nd,4th,1.1738794607987146,-0.2766440749693377,1.218663821573586
perc,resp,1197,1,2.3.3left.bmp,2.3.3right.bmp,,ACC027,"[0, 2, 2]","[0, 2, 2]",[],match,1.0,,-0.48708631583676576,0.39816999411711906,1.984135014379998,2nd,3rd,4th,-0.2863027241793374,0.2970167191867076,1.218663821573586
perc,resp,934,0,3.3.2left.bmp,3.2.2right.bmp,,ACC027,"[2, 2, 0]","[2, 0, 0]",[],non-match,0.7113248654051871,4,0.3634101440334683,-1.786585534578891,1.942338636944551,3rd,1st,4th,0.3866132662727401,-1.238090625934168,1.218663821573586
perc,resp,1163,1,1.3.2left.bmp,1.2.1right.bmp,,ACC027,"[-2, 2, 0]","[-2, 0, -2]",[],non-match,0.5917517095361369,3,0.7770414903057667,-0.3826138708608744,2.1167896745192047,4th,2nd,4th,1.1738794607987146,-0.2766440749693377,1.218663821573586
perc,resp,1250,1,2.2.1left.bmp,2.2.1right.bmp,,ACC027,"[0, 0, -2]","[0, 0, -2]",[],match,1.0,,0.3107721384864194,1.001141111076898,2.049592032517692,3rd,4th,4th,0.3866132662727401,1.2180314070124492,1.218663821573586
perc,resp,1153,1,2.1.2left.bmp,2.1.2right.bmp,,ACC027,"[0, -2, 0]","[0, -2, 0]",[],match,1.0,,1.678612628000291,0.6765598870728914,2.1058965021577283,4th,4th,4th,1.1738794607987146,1.2180314070124492,1.218663821573586
perc,resp,866,0,1.1.2left.bmp,2.1.1right.bmp,,ACC027,"[-2, -2, 0]","[0, -2, -2]",[],non-match,0.5917517095361369,3,0.3081134628048751,0.7252908672123702,1.5955012038604908,3rd,4th,4th,0.3866132662727401,1.2180314070124492,1.218663821573586
perc,resp,900,1,2.2.3left.bmp,2.2.3right.bmp,,ACC027,"[0, 0, 2]","[0, 0, 2]",[],match,1.0,,-0.29358659801814274,0.599090757077735,1.365907981414501,2nd,4th,4th,-0.2863027241793374,1.2180314070124492,1.218663821573586
perc,resp,727,1,3.2.1left.bmp,2.3.2right.bmp,,ACC027,"[2, 0, -2]","[0, 2, 0]",[],non-match,0.5,3,-0.41363231186983385,0.1183441740133784,1.0500635159434595,2nd,3rd,4th,-0.2863027241793374,0.2970167191867076,1.218663821573586
perc,resp,1115,0,2.3.1left.bmp,3.3.3right.bmp,,ACC027,"[0, 2, -2]","[2, 2, 2]",[],non-match,0.3545027756320971,2,-0.5681294817281077,0.9216290010121668,1.0910268756677206,2nd,4th,4th,-0.2863027241793374,1.2180314070124492,1.218663821573586
perc,resp,810,1,3.1.2left.bmp,3.1.2right.bmp,,ACC027,"[2, -2, 0]","[2, -2, 0]",[],match,1.0,,-0.49029899982434294,0.4567460358644369,1.2338088464456303,2nd,3rd,4th,-0.2863027241793374,0.2970167191867076,1.218663821573586
perc,resp,929,1,1.1.1left.bmp,1.1.1right.bmp,,ACC027,"[-2, -2, -2]","[-2, -2, -2]",[],match,1.0,,0.8345063673935995,-0.14391533017957714,0.9953679787295929,4th,2nd,4th,1.1738794607987146,-0.2766440749693377,1.218663821573586
perc,resp,803,1,2.2.2left.bmp,2.2.2right.bmp,,ACC027,"[0, 0, 0]","[0, 0, 0]",[],match,1.0,,-0.12767661301542224,-0.8886525015346894,0.4756570233093614,2nd,1st,3rd,-0.2863027241793374,-1.238090625934168,0.36036736137186065
perc,resp,1034,1,1.3.3left.bmp,1.3.3right.bmp,,ACC027,"[-2, 2, 2]","[-2, 2, 2]",[],match,1.0,,-0.007616835354048513,-0.8655078626657833,0.7686892242393178,2nd,1st,4th,-0.2863027241793374,-1.238090625934168,1.218663821573586
perc,resp,1051,1,3.3.3left.bmp,3.3.3right.bmp,,ACC027,"[2, 2, 2]","[2, 2, 2]",[],match,1.0,,-0.5682570668802254,0.518976510447491,0.5760263766962278,2nd,3rd,3rd,-0.2863027241793374,0.2970167191867076,0.36036736137186065
perc,resp,888,1,3.3.1left.bmp,1.2.3right.bmp,,ACC027,"[2, 2, -2]","[-2, 0, 2]",[],non-match,0.1339745962155613,1,0.09719569968638413,1.4194373882071059,0.37781576500190417,3rd,4th,3rd,0.3866132662727401,1.2180314070124492,0.36036736137186065
perc,resp,987,0,3.1.3left.bmp,3.1.3right.bmp,,ACC027,"[2, -2, 2]","[2, -2, 2]",[],match,1.0,,-1.0142641699879995,0.95337215647468,1.0675860219691142,1st,4th,4th,-1.2726467637829884,1.2180314070124492,1.218663821573586
perc,resp,1003,0,1.3.1left.bmp,2.3.2right.bmp,,ACC027,"[-2, 2, -2]","[0, 2, 0]",[],non-match,0.5917517095361369,3,0.9252912484088331,1.7051333374880102,0.7799346292046017,4th,4th,4th,1.1738794607987146,1.2180314070124492,1.218663821573586
perc,resp,880,1,3.1.1left.bmp,2.1.2right.bmp,,ACC027,"[2, -2, -2]","[0, -2, 0]",[],non-match,0.5917517095361369,3,-0.5134921419150826,1.511751865126783,1.0475584639748226,2nd,4th,4th,-0.2863027241793374,1.2180314070124492,1.218663821573586
perc,resp,757,1,1.2.3left.bmp,1.2.3right.bmp,,ACC027,"[-2, 0, 2]","[-2, 0, 2]",[],match,1.0,,1.2227669259910048,-1.1290900138828566,0.9310352411040527,4th,1st,4th,1.1738794607987146,-1.238090625934168,1.218663821573586
perc,resp,844,0,1.2.2left.bmp,1.1.3right.bmp,,ACC027,"[-2, 0, 0]","[-2, -2, 2]",[],non-match,0.5917517095361369,3,0.5721165827273491,0.2482266933910505,1.1025797612512116,3rd,3rd,4th,0.3866132662727401,0.2970167191867076,1.218663821573586
