mode,type,rt,acc,item_1,item_2,item_cue,subj_idx,item_1_number,item_2_number,item_cue_number,trial_type,similarity,similarity_bin,ams,pams,slps,ams_quantile,pams_quantile,slps_quantile,ams_bin,pam_bin,slp_bin
perc,resp,1457,0,1.2.2left.bmp,1.3.3right.bmp,,ACC034,"[-2, 0, 0]","[-2, 2, 2]",[],non-match,0.5917517095361369,3,0.2179291466678736,-0.13355701178314777,-0.0027587789213581633,3rd,2nd,2nd,0.3417305967932681,-0.3194642559237085,-0.33914399193442146
perc,resp,1348,1,2.3.1left.bmp,2.3.1right.bmp,,ACC034,"[0, 2, -2]","[0, 2, -2]",[],match,1.0,,2.3728835920874713,2.146267029227104,-0.5320470211540339,4th,4th,2nd,1.2694817657098552,1.265881300776143,-0.33914399193442146
perc,resp,1369,1,1.1.2left.bmp,1.1.2right.bmp,,ACC034,"[-2, -2, 0]","[-2, -2, 0]",[],match,1.0,,0.508083964463028,1.774412391603841,-0.5619864857805861,3rd,4th,2nd,0.3417305967932681,1.265881300776143,-0.33914399193442146
perc,resp,1332,1,1.2.1left.bmp,1.2.1right.bmp,,ACC034,"[-2, 0, -2]","[-2, 0, -2]",[],match,1.0,,0.5541602175811328,0.7285987050594288,-0.09496057694531707,3rd,4th,2nd,0.3417305967932681,1.265881300776143,-0.33914399193442146
perc,resp,1473,1,3.3.2left.bmp,3.3.2right.bmp,,ACC034,"[2, 2, 0]","[2, 2, 0]",[],match,1.0,,0.16382447775312597,-0.4830114790190284,0.7145228638552844,3rd,2nd,3rd,0.3417305967932681,-0.3194642559237085,0.4183163168454361
perc,resp,1334,1,1.2.3left.bmp,1.2.3right.bmp,,ACC034,"[-2, 0, 2]","[-2, 0, 2]",[],match,1.0,,2.4675531580806296,1.618661821586078,0.4555486058905699,4th,4th,3rd,1.2694817657098552,1.265881300776143,0.4183163168454361
perc,resp,1589,1,2.1.1left.bmp,2.1.1right.bmp,,ACC034,"[0, -2, -2]","[0, -2, -2]",[],match,1.0,,-0.9886260651711192,-0.8467008132936501,0.39553056508537565,1st,1st,3rd,-1.258295533518817,-1.2223869205815945,0.4183163168454361
perc,resp,1713,1,2.1.2left.bmp,2.1.2right.bmp,,ACC034,"[0, -2, 0]","[0, -2, 0]",[],match,1.0,,0.5625934262236253,1.333273929403382,0.8036120436700939,3rd,4th,4th,0.3417305967932681,1.265881300776143,1.2603760964981874
perc,resp,1698,0,2.2.2left.bmp,1.2.2right.bmp,,ACC034,"[0, 0, 0]","[-2, 0, 0]",[],non-match,0.7113248654051871,4,-1.3177943724854704,-1.0360427155201029,0.9554777686371468,1st,1st,4th,-1.258295533518817,-1.2223869205815945,1.2603760964981874
perc,resp,1873,0,2.2.1left.bmp,3.2.3right.bmp,,ACC034,"[0, 0, -2]","[2, 0, 2]",[],non-match,0.3545027756320971,2,1.4600722450900625,1.5382476283253157,0.8274847582851473,4th,4th,4th,1.2694817657098552,1.265881300776143,1.2603760964981874
perc,resp,1423,1,3.1.1left.bmp,1.1.1right.bmp,,ACC034,"[2, -2, -2]","[-2, -2, -2]",[],non-match,0.42264973081037416,2,1.2033624056452152,-0.14899103688725232,0.5266206732334999,4th,2nd,3rd,1.2694817657098552,-0.3194642559237085,0.4183163168454361
perc,resp,1396,1,2.3.3left.bmp,2.3.3right.bmp,,ACC034,"[0, 2, 2]","[0, 2, 2]",[],match,1.0,,-0.45502861938582967,-0.4416649521109319,1.0908150607787521,2nd,2nd,4th,-0.3530837876737248,-0.3194642559237085,1.2603760964981874
perc,resp,1215,1,3.3.1left.bmp,1.2.3right.bmp,,ACC034,"[2, 2, -2]","[-2, 0, 2]",[],non-match,0.1339745962155613,1,1.6223193984711803,1.7157489994958053,1.0013201208018618,4th,4th,4th,1.2694817657098552,1.265881300776143,1.2603760964981874
perc,resp,1912,1,1.3.3left.bmp,2.2.2right.bmp,,ACC034,"[-2, 2, 2]","[0, 0, 0]",[],non-match,0.5,3,0.5671900640012678,1.0294699693625653,1.0148126254178762,3rd,4th,4th,0.3417305967932681,1.265881300776143,1.2603760964981874
perc,resp,1738,1,1.3.1left.bmp,1.1.2right.bmp,,ACC034,"[-2, 2, -2]","[-2, -2, 0]",[],non-match,0.3545027756320971,2,0.1804631480222062,1.1462249077395925,0.8065627817391033,3rd,4th,4th,0.3417305967932681,1.265881300776143,1.2603760964981874
perc,resp,1177,1,3.1.3left.bmp,1.2.2right.bmp,,ACC034,"[2, -2, 2]","[-2, 0, 0]",[],non-match,0.29289321881345254,1,-0.40753752633700685,-0.6790164301657271,0.9655086791220217,2nd,2nd,4th,-0.3530837876737248,-0.3194642559237085,1.2603760964981874
perc,resp,1188,1,1.1.1left.bmp,1.1.1right.bmp,,ACC034,"[-2, -2, -2]","[-2, -2, -2]",[],match,1.0,,0.35251567500612946,-0.6930754206882149,0.6881819428852296,3rd,1st,3rd,0.3417305967932681,-1.2223869205815945,0.4183163168454361
perc,resp,1217,1,3.2.3left.bmp,1.3.2right.bmp,,ACC034,"[2, 0, 2]","[-2, 2, 0]",[],non-match,0.29289321881345254,1,1.1110178069890784,0.8379852730946371,0.6976448565623002,4th,4th,3rd,1.2694817657098552,1.265881300776143,0.4183163168454361
perc,resp,1340,1,3.3.3left.bmp,2.1.3right.bmp,,ACC034,"[2, 2, 2]","[0, -2, 2]",[],non-match,0.3545027756320971,2,0.7532321464613384,-1.8868495475907137,0.7680095428436452,4th,1st,3rd,1.2694817657098552,-1.2223869205815945,0.4183163168454361
perc,resp,967,1,1.1.3left.bmp,3.3.2right.bmp,,ACC034,"[-2, -2, 2]","[2, 2, 0]",[],non-match,0.1339745962155613,1,0.5464279466403839,-1.401003670842755,0.63115155742125,3rd,1st,3rd,0.3417305967932681,-1.2223869205815945,0.4183163168454361
perc,resp,1358,1,3.2.1left.bmp,3.3.1right.bmp,,ACC034,"[2, 0, -2]","[2, 2, -2]",[],non-match,0.7113248654051871,4,0.18016226471301913,-0.23320692769564885,0.4286655023606487,3rd,2nd,3rd,0.3417305967932681,-0.3194642559237085,0.4183163168454361
perc,resp,1007,1,2.3.2left.bmp,2.3.2right.bmp,,ACC034,"[0, 2, 0]","[0, 2, 0]",[],match,1.0,,-0.7802559942496787,0.4637690355662729,0.32683607998506187,1st,3rd,3rd,-1.258295533518817,0.2753207058755099,0.4183163168454361
perc,resp,1116,1,1.3.2left.bmp,1.3.2right.bmp,,ACC034,"[-2, 2, 0]","[-2, 2, 0]",[],match,1.0,,1.3209356583361416,0.26538520027455426,0.3608094630170828,4th,3rd,3rd,1.2694817657098552,0.2753207058755099,0.4183163168454361
perc,resp,1125,1,3.1.2left.bmp,3.1.2right.bmp,,ACC034,"[2, -2, 0]","[2, -2, 0]",[],match,1.0,,-1.8988741699323364,0.49451285743076695,0.2075617191615226,1st,3rd,3rd,-1.258295533518817,0.2753207058755099,0.4183163168454361
perc,resp,974,1,3.2.2left.bmp,1.3.1right.bmp,,ACC034,"[2, 0, 0]","[-2, 2, -2]",[],non-match,0.29289321881345254,1,-0.01673531986678551,-0.5875532780141528,0.25854803031898965,2nd,2nd,3rd,-0.3530837876737248,-0.3194642559237085,0.4183163168454361
perc,resp,1487,0,2.1.3left.bmp,2.1.3right.bmp,,ACC034,"[0, -2, 2]","[0, -2, 2]",[],match,1.0,,-1.998058454813674,-0.8429019666228661,0.11062793087350921,1st,1st,3rd,-1.258295533518817,-1.2223869205815945,0.4183163168454361
perc,resp,1106,1,2.2.3left.bmp,2.2.3right.bmp,,ACC034,"[0, 0, 2]","[0, 0, 2]",[],match,1.0,,0.6337142283326513,0.3182303490409729,0.023412402139646488,4th,3rd,2nd,1.2694817657098552,0.2753207058755099,-0.33914399193442146
perc,resp,1083,1,3.2.2left.bmp,3.2.2right.bmp,,ACC034,"[2, 0, 0]","[2, 0, 0]",[],match,1.0,,-0.9838821861953216,-2.0824328416931635,-0.3484478098226137,1st,1st,2nd,-1.258295533518817,-1.2223869205815945,-0.33914399193442146
perc,resp,1181,1,2.2.1left.bmp,2.2.1right.bmp,,ACC034,"[0, 0, -2]","[0, 0, -2]",[],match,1.0,,-0.3439258799465996,-1.3199933715906167,-0.4689367182119784,2nd,1st,2nd,-0.3530837876737248,-1.2223869205815945,-0.33914399193442146
perc,resp,1016,1,3.1.1left.bmp,3.1.1right.bmp,,ACC034,"[2, -2, -2]","[2, -2, -2]",[],match,1.0,,0.4203478981735064,1.2322078990096546,0.0701948961663197,3rd,4th,3rd,0.3417305967932681,1.265881300776143,0.4183163168454361
perc,resp,1217,1,1.1.3left.bmp,1.3.1right.bmp,,ACC034,"[-2, -2, 2]","[-2, 2, -2]",[],non-match,0.18350341907227385,1,0.45899658582634645,0.1340956820476522,0.0014821762966658416,3rd,3rd,2nd,0.3417305967932681,0.2753207058755099,-0.33914399193442146
perc,resp,1125,1,3.1.3left.bmp,3.1.3right.bmp,,ACC034,"[2, -2, 2]","[2, -2, 2]",[],match,1.0,,-0.31093088264322943,1.0443749160417823,0.18527711700231692,2nd,4th,3rd,-0.3530837876737248,1.265881300776143,0.4183163168454361
perc,resp,1166,0,1.1.1left.bmp,2.1.2right.bmp,,ACC034,"[-2, -2, -2]","[0, -2, 0]",[],non-match,0.5917517095361369,3,-1.347720959848382,0.3766525117966138,0.3581238279904989,1st,3rd,3rd,-1.258295533518817,0.2753207058755099,0.4183163168454361
perc,resp,1206,1,1.3.2left.bmp,1.3.2right.bmp,,ACC034,"[-2, 2, 0]","[-2, 2, 0]",[],match,1.0,,-0.18883800707290857,-0.17960168146724492,0.5768839608757415,2nd,2nd,3rd,-0.3530837876737248,-0.3194642559237085,0.4183163168454361
perc,resp,1494,0,2.1.3left.bmp,2.2.1right.bmp,,ACC034,"[0, -2, 2]","[0, 0, -2]",[],non-match,0.3545027756320971,2,0.4460133938180451,0.23461482136292702,0.8292875401668244,3rd,3rd,4th,0.3417305967932681,0.2753207058755099,1.2603760964981874
perc,resp,1277,1,2.3.2left.bmp,3.1.2right.bmp,,ACC034,"[0, 2, 0]","[2, -2, 0]",[],non-match,0.3545027756320971,2,0.9107110641507656,0.37536512569789776,0.766636468066727,4th,3rd,3rd,1.2694817657098552,0.2753207058755099,0.4183163168454361
perc,resp,1084,0,1.2.3left.bmp,3.3.1right.bmp,,ACC034,"[-2, 0, 2]","[2, 2, -2]",[],non-match,0.1339745962155613,1,1.0855430143323312,1.9915106950534993,0.8451870495590125,4th,4th,4th,1.2694817657098552,1.265881300776143,1.2603760964981874
perc,resp,1135,1,2.2.2left.bmp,2.2.2right.bmp,,ACC034,"[0, 0, 0]","[0, 0, 0]",[],match,1.0,,0.5171269099928536,-0.16045793688118698,0.6928466031686334,3rd,2nd,3rd,0.3417305967932681,-0.3194642559237085,0.4183163168454361
perc,resp,1264,0,2.3.3left.bmp,2.2.3right.bmp,,ACC034,"[0, 2, 2]","[0, 0, 2]",[],non-match,0.7113248654051871,4,0.2026236036270267,0.6516868033559944,1.0781883003670414,3rd,4th,4th,0.3417305967932681,1.265881300776143,1.2603760964981874
perc,resp,1285,1,3.3.2left.bmp,3.2.1right.bmp,,ACC034,"[2, 2, 0]","[2, 0, -2]",[],non-match,0.5917517095361369,3,0.14228762052660832,1.2169420628555274,0.9553660633331861,3rd,4th,4th,0.3417305967932681,1.265881300776143,1.2603760964981874
perc,resp,1326,1,3.2.3left.bmp,2.2.1right.bmp,,ACC034,"[2, 0, 2]","[0, 0, -2]",[],non-match,0.3545027756320971,2,-0.9879134907853903,-0.6748753717378746,0.7917898426406202,1st,2nd,4th,-1.258295533518817,-0.3194642559237085,1.2603760964981874
perc,resp,1125,1,1.3.1left.bmp,1.3.1right.bmp,,ACC034,"[-2, 2, -2]","[-2, 2, -2]",[],match,1.0,,-0.6709430059524157,-0.5136062541440264,0.9431623814935708,2nd,2nd,4th,-0.3530837876737248,-0.3194642559237085,1.2603760964981874
perc,resp,1146,1,2.1.1left.bmp,1.2.1right.bmp,,ACC034,"[0, -2, -2]","[-2, 0, -2]",[],non-match,0.5917517095361369,3,0.5434251565048733,0.04814627061254039,1.11773947228213,3rd,3rd,4th,0.3417305967932681,0.2753207058755099,1.2603760964981874
perc,resp,1023,1,3.2.1left.bmp,1.2.2right.bmp,,ACC034,"[2, 0, -2]","[-2, 0, 0]",[],non-match,0.3545027756320971,2,0.6755381917816693,0.08639571400211273,1.131338127078423,4th,3rd,4th,1.2694817657098552,0.2753207058755099,1.2603760964981874
perc,resp,1042,1,2.3.1left.bmp,1.2.3right.bmp,,ACC034,"[0, 2, -2]","[-2, 0, 2]",[],non-match,0.29289321881345254,1,0.0004249647610627576,0.4651485360954822,1.3047667834561778,2nd,3rd,4th,-0.3530837876737248,0.2753207058755099,1.2603760964981874
perc,resp,908,1,3.3.3left.bmp,3.1.3right.bmp,,ACC034,"[2, 2, 2]","[2, -2, 2]",[],non-match,0.42264973081037416,2,0.9029614221196194,-0.1280745326998317,1.5732760744693017,4th,2nd,4th,1.2694817657098552,-0.3194642559237085,1.2603760964981874
perc,resp,1077,1,3.1.2left.bmp,3.1.2right.bmp,,ACC034,"[2, -2, 0]","[2, -2, 0]",[],match,1.0,,-0.2467981632080494,-0.491050832418203,1.3184511042442897,2nd,2nd,4th,-0.3530837876737248,-0.3194642559237085,1.2603760964981874
perc,resp,1410,1,2.1.2left.bmp,3.2.2right.bmp,,ACC034,"[0, -2, 0]","[2, 0, 0]",[],non-match,0.5917517095361369,3,0.30848718256825797,0.16302486326790347,0.3670300542257869,3rd,3rd,3rd,0.3417305967932681,0.2753207058755099,0.4183163168454361
perc,resp,1685,1,3.3.1left.bmp,1.1.3right.bmp,,ACC034,"[2, 2, -2]","[-2, -2, 2]",[],non-match,0.0,1,1.072140731060371,-1.2437852444204192,0.506951462906719,4th,1st,3rd,1.2694817657098552,-1.2223869205815945,0.4183163168454361
perc,resp,1124,1,1.2.1left.bmp,3.3.3right.bmp,,ACC034,"[-2, 0, -2]","[2, 2, 2]",[],non-match,0.1339745962155613,1,-0.3581578488746623,-2.395754094011014,0.3139445413126305,2nd,1st,3rd,-0.3530837876737248,-1.2223869205815945,0.4183163168454361
perc,resp,1044,1,2.2.3left.bmp,1.1.1right.bmp,,ACC034,"[0, 0, 2]","[-2, -2, -2]",[],non-match,0.29289321881345254,1,0.39096196478271344,-0.25371051923238885,0.34482604485956636,3rd,2nd,3rd,0.3417305967932681,-0.3194642559237085,0.4183163168454361
perc,resp,1082,1,1.2.2left.bmp,2.3.1right.bmp,,ACC034,"[-2, 0, 0]","[0, 2, -2]",[],non-match,0.5,3,0.7290843525970158,-0.47514608450593865,0.2487643808842674,4th,2nd,3rd,1.2694817657098552,-0.3194642559237085,0.4183163168454361
perc,resp,1485,1,1.3.3left.bmp,1.3.3right.bmp,,ACC034,"[-2, 2, 2]","[-2, 2, 2]",[],match,1.0,,0.08577768602165436,-0.5376921252545628,0.7195006741167116,3rd,2nd,3rd,0.3417305967932681,-0.3194642559237085,0.4183163168454361
perc,resp,1557,1,1.1.2left.bmp,1.1.2right.bmp,,ACC034,"[-2, -2, 0]","[-2, -2, 0]",[],match,1.0,,-0.9889837996013198,-0.11831348832138144,0.8379844545047647,1st,2nd,4th,-1.258295533518817,-0.3194642559237085,1.2603760964981874
perc,resp,1390,1,2.3.3left.bmp,2.3.3right.bmp,,ACC034,"[0, 2, 2]","[0, 2, 2]",[],match,1.0,,-1.810197447659718,-0.33339451301619194,0.5802575730796292,1st,2nd,3rd,-1.258295533518817,-0.3194642559237085,0.4183163168454361
perc,resp,967,0,3.3.2left.bmp,3.2.2right.bmp,,ACC034,"[2, 2, 0]","[2, 0, 0]",[],non-match,0.7113248654051871,4,-0.46658442426060526,0.9360446980225899,0.26095702818859823,2nd,4th,3rd,-0.3530837876737248,1.265881300776143,0.4183163168454361
perc,resp,1086,0,1.3.2left.bmp,1.2.1right.bmp,,ACC034,"[-2, 2, 0]","[-2, 0, -2]",[],non-match,0.5917517095361369,3,-0.3533960416609539,0.35486628988397556,0.45530534789031335,2nd,3rd,3rd,-0.3530837876737248,0.2753207058755099,0.4183163168454361
perc,resp,1247,1,2.2.1left.bmp,2.2.1right.bmp,,ACC034,"[0, 0, -2]","[0, 0, -2]",[],match,1.0,,0.36414842411957354,0.6682943669864114,0.11446007628577341,3rd,4th,3rd,0.3417305967932681,1.265881300776143,0.4183163168454361
perc,resp,996,1,2.1.2left.bmp,2.1.2right.bmp,,ACC034,"[0, -2, 0]","[0, -2, 0]",[],match,1.0,,1.357125434818719,1.189361734172993,-0.20682880691832886,4th,4th,2nd,1.2694817657098552,1.265881300776143,-0.33914399193442146
perc,resp,1154,0,1.1.2left.bmp,2.1.1right.bmp,,ACC034,"[-2, -2, 0]","[0, -2, -2]",[],non-match,0.5917517095361369,3,0.9798324766973866,1.6843235240274181,-0.2696869255054037,4th,4th,2nd,1.2694817657098552,1.265881300776143,-0.33914399193442146
perc,resp,1235,1,2.2.3left.bmp,2.2.3right.bmp,,ACC034,"[0, 0, 2]","[0, 0, 2]",[],match,1.0,,0.7829475809641727,2.3015812318465256,-0.1739564191027728,4th,4th,2nd,1.2694817657098552,1.265881300776143,-0.33914399193442146
perc,resp,1154,1,3.2.1left.bmp,2.3.2right.bmp,,ACC034,"[2, 0, -2]","[0, 2, 0]",[],non-match,0.5,3,-1.1465859989074236,-1.8952271070306046,0.04084634988409138,1st,1st,2nd,-1.258295533518817,-1.2223869205815945,-0.33914399193442146
perc,resp,1881,1,2.3.1left.bmp,3.3.3right.bmp,,ACC034,"[0, 2, -2]","[2, 2, 2]",[],non-match,0.3545027756320971,2,-1.12229654589096,-1.2647898807596833,-0.772544856871234,1st,1st,2nd,-1.258295533518817,-1.2223869205815945,-0.33914399193442146
perc,resp,1774,1,3.1.2left.bmp,3.1.2right.bmp,,ACC034,"[2, -2, 0]","[2, -2, 0]",[],match,1.0,,-0.9182018808481387,-1.3218800448160886,-0.7997782753528705,1st,1st,1st,-1.258295533518817,-1.2223869205815945,-1.3383841225134485
perc,resp,1525,1,1.1.1left.bmp,1.1.1right.bmp,,ACC034,"[-2, -2, -2]","[-2, -2, -2]",[],match,1.0,,-1.1826952538408688,-1.6757711795623953,-0.6102877590573584,1st,1st,2nd,-1.258295533518817,-1.2223869205815945,-0.33914399193442146
perc,resp,1235,1,2.2.2left.bmp,2.2.2right.bmp,,ACC034,"[0, 0, 0]","[0, 0, 0]",[],match,1.0,,-0.11170475594449827,-0.08679083587885583,-0.4825618256658616,2nd,2nd,2nd,-0.3530837876737248,-0.3194642559237085,-0.33914399193442146
perc,resp,1581,1,1.3.3left.bmp,1.3.3right.bmp,,ACC034,"[-2, 2, 2]","[-2, 2, 2]",[],match,1.0,,-0.9281390462489343,0.03524181277069504,-0.5538691238591609,1st,3rd,2nd,-1.258295533518817,0.2753207058755099,-0.33914399193442146
perc,resp,1207,1,3.3.3left.bmp,3.3.3right.bmp,,ACC034,"[2, 2, 2]","[2, 2, 2]",[],match,1.0,,-0.5049985918505984,-0.7663232361156057,-0.41437232570676397,2nd,1st,2nd,-0.3530837876737248,-1.2223869205815945,-0.33914399193442146
perc,resp,1071,1,1.2.3left.bmp,3.2.3right.bmp,,ACC034,"[-2, 0, 2]","[2, 0, 2]",[],non-match,0.42264973081037416,2,0.11139959177493414,1.4140153982128991,-0.6117575275221075,3rd,4th,2nd,0.3417305967932681,1.265881300776143,-0.33914399193442146
perc,resp,1020,0,2.3.1left.bmp,3.3.2right.bmp,,ACC034,"[0, 2, -2]","[2, 2, 0]",[],non-match,0.5917517095361369,3,-0.9466128903033469,-1.5162534208172294,-0.9349758016935552,1st,1st,1st,-1.258295533518817,-1.2223869205815945,-1.3383841225134485
perc,resp,957,1,1.1.1left.bmp,1.3.1right.bmp,,ACC034,"[-2, -2, -2]","[-2, 2, -2]",[],non-match,0.42264973081037416,2,0.6241555653632456,3.198931308922241,-0.9831620986334217,3rd,4th,1st,0.3417305967932681,1.265881300776143,-1.3383841225134485
perc,resp,1046,0,2.3.3left.bmp,2.3.3right.bmp,,ACC034,"[0, 2, 2]","[0, 2, 2]",[],match,1.0,,-0.7022926010245003,-0.08979788453026882,-0.6837277858097643,2nd,2nd,2nd,-0.3530837876737248,-0.3194642559237085,-0.33914399193442146
perc,resp,1186,1,3.1.2left.bmp,3.1.2right.bmp,,ACC034,"[2, -2, 0]","[2, -2, 0]",[],match,1.0,,0.6259701561334338,-1.1483321281833683,-0.46568689958097165,4th,1st,2nd,1.2694817657098552,-1.2223869205815945,-0.33914399193442146
perc,resp,974,1,2.2.3left.bmp,1.1.3right.bmp,,ACC034,"[0, 0, 2]","[-2, -2, 2]",[],non-match,0.5917517095361369,3,1.075285369932819,0.116909386155185,-0.4739654098844363,4th,3rd,2nd,1.2694817657098552,0.2753207058755099,-0.33914399193442146
perc,resp,1132,1,3.1.1left.bmp,3.1.1right.bmp,,ACC034,"[2, -2, -2]","[2, -2, -2]",[],match,1.0,,-0.7695307578786942,0.5380393463144051,-0.29232976773067787,1st,3rd,2nd,-1.258295533518817,0.2753207058755099,-0.33914399193442146
perc,resp,1233,1,1.2.1left.bmp,1.2.1right.bmp,,ACC034,"[-2, 0, -2]","[-2, 0, -2]",[],match,1.0,,-0.03082708169676693,0.8108873690256901,-0.2405202816157392,2nd,4th,2nd,-0.3530837876737248,1.265881300776143,-0.33914399193442146
perc,resp,1042,1,1.3.2left.bmp,1.1.1right.bmp,,ACC034,"[-2, 2, 0]","[-2, -2, -2]",[],non-match,0.3545027756320971,2,0.17394037855922076,1.1790292360043317,-0.049220825168152536,3rd,4th,2nd,0.3417305967932681,1.265881300776143,-0.33914399193442146
perc,resp,998,1,3.2.1left.bmp,3.2.1right.bmp,,ACC034,"[2, 0, -2]","[2, 0, -2]",[],match,1.0,,-1.5234993211964338,0.8335153027402847,-0.2107225514075377,1st,4th,2nd,-1.258295533518817,1.265881300776143,-0.33914399193442146
perc,resp,1209,1,3.1.3left.bmp,3.1.3right.bmp,,ACC034,"[2, -2, 2]","[2, -2, 2]",[],match,1.0,,-1.7406882740206466,0.8945625563089776,-0.12899262568541947,1st,4th,2nd,-1.258295533518817,1.265881300776143,-0.33914399193442146
perc,resp,996,1,2.1.3left.bmp,2.1.3right.bmp,,ACC034,"[0, -2, 2]","[0, -2, 2]",[],match,1.0,,0.4092245797030435,1.1326364269552462,-0.3479092365430513,3rd,4th,2nd,0.3417305967932681,1.265881300776143,-0.33914399193442146
perc,resp,1085,1,1.1.3left.bmp,1.1.3right.bmp,,ACC034,"[-2, -2, 2]","[-2, -2, 2]",[],match,1.0,,0.0958039658377805,0.8029818576894752,-0.9916918336703849,3rd,4th,1st,0.3417305967932681,1.265881300776143,-1.3383841225134485
perc,resp,1200,0,3.2.3left.bmp,3.2.2right.bmp,,ACC034,"[2, 0, 2]","[2, 0, 0]",[],non-match,0.7113248654051871,4,-1.1833438672716103,-0.59254365058223,-1.1475514400993478,1st,2nd,1st,-1.258295533518817,-0.3194642559237085,-1.3383841225134485
perc,resp,1281,1,2.3.2left.bmp,3.2.1right.bmp,,ACC034,"[0, 2, 0]","[2, 0, -2]",[],non-match,0.5,3,0.9428386133196901,-0.010554690001196668,-1.3093456532640884,4th,2nd,1st,1.2694817657098552,-0.3194642559237085,-1.3383841225134485
perc,resp,1182,1,1.3.3left.bmp,1.3.3right.bmp,,ACC034,"[-2, 2, 2]","[-2, 2, 2]",[],match,1.0,,-1.1187810401949025,0.17800873108205514,-1.343573212928512,1st,3rd,1st,-1.258295533518817,0.2753207058755099,-1.3383841225134485
perc,resp,1283,1,1.1.2left.bmp,1.1.2right.bmp,,ACC034,"[-2, -2, 0]","[-2, -2, 0]",[],match,1.0,,1.1891661761828782,1.3189685106200415,-1.1981638525633485,4th,4th,1st,1.2694817657098552,1.265881300776143,-1.3383841225134485
perc,resp,1314,1,1.2.2left.bmp,2.2.2right.bmp,,ACC034,"[-2, 0, 0]","[0, 0, 0]",[],non-match,0.7113248654051871,4,-0.5723060184220735,-0.03624875242199554,-1.4294730802089055,2nd,2nd,1st,-0.3530837876737248,-0.3194642559237085,-1.3383841225134485
perc,resp,1333,0,2.1.2left.bmp,3.1.2right.bmp,,ACC034,"[0, -2, 0]","[2, -2, 0]",[],non-match,0.7113248654051871,4,-0.011585299642732583,0.18394622545175068,-1.5098937297662411,2nd,3rd,1st,-0.3530837876737248,0.2753207058755099,-1.3383841225134485
perc,resp,1264,1,3.2.2left.bmp,2.1.3right.bmp,,ACC034,"[2, 0, 0]","[0, -2, 2]",[],non-match,0.5,3,1.7179220969083147,1.5057771893027139,-1.5277734155812301,4th,4th,1st,1.2694817657098552,1.265881300776143,-1.3383841225134485
perc,resp,1425,0,3.3.1left.bmp,3.1.3right.bmp,,ACC034,"[2, 2, -2]","[2, -2, 2]",[],non-match,0.18350341907227385,1,-0.8310519991862945,0.08303091226646594,-1.483892171091507,1st,3rd,1st,-1.258295533518817,0.2753207058755099,-1.3383841225134485
perc,resp,1238,1,2.1.1left.bmp,2.1.1right.bmp,,ACC034,"[0, -2, -2]","[0, -2, -2]",[],match,1.0,,-0.3389469265299374,0.04058242131274571,-1.709499429433772,2nd,3rd,1st,-0.3530837876737248,0.2753207058755099,-1.3383841225134485
perc,resp,1197,1,3.3.3left.bmp,3.1.1right.bmp,,ACC034,"[2, 2, 2]","[2, -2, -2]",[],non-match,0.18350341907227385,1,0.835882517267983,0.8651320298574764,-1.5895495061011253,4th,4th,1st,1.2694817657098552,1.265881300776143,-1.3383841225134485
perc,resp,1378,1,2.2.1left.bmp,2.2.1right.bmp,,ACC034,"[0, 0, -2]","[0, 0, -2]",[],match,1.0,,-1.0067622344374803,-0.07873159026273346,-1.7584227379225525,1st,2nd,1st,-1.258295533518817,-0.3194642559237085,-1.3383841225134485
perc,resp,1127,0,1.3.1left.bmp,1.3.1right.bmp,,ACC034,"[-2, 2, -2]","[-2, 2, -2]",[],match,1.0,,0.5452700221493761,1.1545497749638536,-1.5295570471049151,3rd,4th,1st,0.3417305967932681,1.265881300776143,-1.3383841225134485
perc,resp,1488,1,2.2.2left.bmp,2.3.1right.bmp,,ACC034,"[0, 0, 0]","[0, 2, -2]",[],non-match,0.5917517095361369,3,0.16457768826943042,0.10998454236433604,-1.3081667635805887,3rd,3rd,1st,0.3417305967932681,0.2753207058755099,-1.3383841225134485
perc,resp,1564,1,3.3.2left.bmp,2.1.3right.bmp,,ACC034,"[2, 2, 0]","[0, -2, 2]",[],non-match,0.29289321881345254,1,0.624209063551586,-0.051971700471486165,-0.9317527238409663,3rd,2nd,1st,0.3417305967932681,-0.3194642559237085,-1.3383841225134485
perc,resp,2219,1,2.2.3left.bmp,1.1.2right.bmp,,ACC034,"[0, 0, 2]","[-2, -2, 0]",[],non-match,0.5,3,-0.6881412531057693,1.7371033881401001,-1.1658219489207913,2nd,4th,1st,-0.3530837876737248,1.265881300776143,-1.3383841225134485
perc,resp,839,1,1.1.1left.bmp,2.3.3right.bmp,,ACC034,"[-2, -2, -2]","[0, 2, 2]",[],non-match,0.1339745962155613,1,2.1863184783118723,0.24205621506156214,-1.2414921445598792,4th,3rd,1st,1.2694817657098552,0.2753207058755099,-1.3383841225134485
perc,resp,1045,1,3.1.3left.bmp,2.2.1right.bmp,,ACC034,"[2, -2, 2]","[0, 0, -2]",[],non-match,0.29289321881345254,1,-0.6765587452504496,-0.08457472018253763,-1.2282466636841336,2nd,2nd,1st,-0.3530837876737248,-0.3194642559237085,-1.3383841225134485
perc,resp,1094,1,2.2.2left.bmp,1.2.1right.bmp,,ACC034,"[0, 0, 0]","[-2, 0, -2]",[],non-match,0.5917517095361369,3,1.1973431975157351,1.5838472714455112,-1.0341509940274691,4th,4th,1st,1.2694817657098552,1.265881300776143,-1.3383841225134485
perc,resp,1225,1,2.1.1left.bmp,2.1.1right.bmp,,ACC034,"[0, -2, -2]","[0, -2, -2]",[],match,1.0,,-0.14566493940807743,-0.20317871427323142,-0.9802882554280182,2nd,2nd,1st,-0.3530837876737248,-0.3194642559237085,-1.3383841225134485
perc,resp,1536,1,1.2.3left.bmp,2.1.3right.bmp,,ACC034,"[-2, 0, 2]","[0, -2, 2]",[],non-match,0.5917517095361369,3,-0.6795592059531399,-0.364000009824532,-0.9137186848840683,2nd,2nd,1st,-0.3530837876737248,-0.3194642559237085,-1.3383841225134485
perc,resp,1781,1,2.2.1left.bmp,3.1.3right.bmp,,ACC034,"[0, 0, -2]","[2, -2, 2]",[],non-match,0.29289321881345254,1,-0.13333274092511402,0.05467746328240109,-1.1211546116773592,2nd,3rd,1st,-0.3530837876737248,0.2753207058755099,-1.3383841225134485
perc,resp,1253,1,1.1.3left.bmp,2.2.3right.bmp,,ACC034,"[-2, -2, 2]","[0, 0, 2]",[],non-match,0.5917517095361369,3,-1.5145235241399684,-0.8258020706229903,-1.2377357179977282,1st,1st,1st,-1.258295533518817,-1.2223869205815945,-1.3383841225134485
perc,resp,1472,1,3.3.1left.bmp,3.1.1right.bmp,,ACC034,"[2, 2, -2]","[2, -2, -2]",[],non-match,0.42264973081037416,2,0.4759553634185988,0.4097609335920723,-1.4044711379240855,3rd,3rd,1st,0.3417305967932681,0.2753207058755099,-1.3383841225134485
perc,resp,1567,1,3.1.2left.bmp,3.2.2right.bmp,,ACC034,"[2, -2, 0]","[2, 0, 0]",[],non-match,0.7113248654051871,4,0.49974564794367043,0.236896409214598,-1.673150680471629,3rd,3rd,1st,0.3417305967932681,0.2753207058755099,-1.3383841225134485
perc,resp,1851,0,2.1.2left.bmp,2.1.2right.bmp,,ACC034,"[0, -2, 0]","[0, -2, 0]",[],match,1.0,,-1.1326020645219923,0.43306997545131176,-1.6227716934475098,1st,3rd,1st,-1.258295533518817,0.2753207058755099,-1.3383841225134485
perc,resp,1524,0,2.3.2left.bmp,2.3.2right.bmp,,ACC034,"[0, 2, 0]","[0, 2, 0]",[],match,1.0,,-1.452791986024627,-1.5524218178567515,-1.8320211916614006,1st,1st,1st,-1.258295533518817,-1.2223869205815945,-1.3383841225134485
perc,resp,1083,1,1.3.3left.bmp,1.3.3right.bmp,,ACC034,"[-2, 2, 2]","[-2, 2, 2]",[],match,1.0,,-0.27183813040807303,0.6422823359152745,-1.8487737213204782,2nd,4th,1st,-0.3530837876737248,1.265881300776143,-1.3383841225134485
perc,resp,1747,0,3.2.3left.bmp,3.2.3right.bmp,,ACC034,"[2, 0, 2]","[2, 0, 2]",[],match,1.0,,-0.5850525871184777,0.7479633265496934,-1.4700007493500304,2nd,4th,1st,-0.3530837876737248,1.265881300776143,-1.3383841225134485
perc,resp,912,0,3.2.2left.bmp,3.3.3right.bmp,,ACC034,"[2, 0, 0]","[2, 2, 2]",[],non-match,0.5917517095361369,3,-0.12035319957398868,1.3414523408195749,-1.1975801556733214,2nd,4th,1st,-0.3530837876737248,1.265881300776143,-1.3383841225134485
perc,resp,909,1,3.1.1left.bmp,1.2.3right.bmp,,ACC034,"[2, -2, -2]","[-2, 0, 2]",[],non-match,0.1339745962155613,1,1.3517020299149283,1.011201652778227,-1.176623720657224,4th,4th,1st,1.2694817657098552,1.265881300776143,-1.3383841225134485
perc,resp,1410,1,2.3.3left.bmp,2.3.3right.bmp,,ACC034,"[0, 2, 2]","[0, 2, 2]",[],match,1.0,,-0.28879617842914185,0.619343729067783,-1.3215343013818062,2nd,3rd,1st,-0.3530837876737248,0.2753207058755099,-1.3383841225134485
perc,resp,2015,1,1.2.2left.bmp,1.1.3right.bmp,,ACC034,"[-2, 0, 0]","[-2, -2, 2]",[],non-match,0.5917517095361369,3,-1.6037325729183984,-1.1780602825558708,-1.475621427418032,1st,1st,1st,-1.258295533518817,-1.2223869205815945,-1.3383841225134485
perc,resp,1105,1,3.3.3left.bmp,2.1.1right.bmp,,ACC034,"[2, 2, 2]","[0, -2, -2]",[],non-match,0.1339745962155613,1,-0.3499153485402011,-0.7322916820719364,-1.2934308295063726,2nd,1st,1st,-0.3530837876737248,-1.2223869205815945,-1.3383841225134485
perc,resp,1233,1,1.2.1left.bmp,3.2.3right.bmp,,ACC034,"[-2, 0, -2]","[2, 0, 2]",[],non-match,0.18350341907227385,1,1.064180545231311,0.3525277015408963,-1.2990834819729096,4th,3rd,1st,1.2694817657098552,0.2753207058755099,-1.3383841225134485
perc,resp,1728,1,1.3.2left.bmp,1.3.2right.bmp,,ACC034,"[-2, 2, 0]","[-2, 2, 0]",[],match,1.0,,0.14804218674616468,0.2272585874893748,-1.6785264544271012,3rd,3rd,1st,0.3417305967932681,0.2753207058755099,-1.3383841225134485
perc,resp,1066,1,3.2.1left.bmp,3.2.1right.bmp,,ACC034,"[2, 0, -2]","[2, 0, -2]",[],match,1.0,,-0.8191951956036757,-0.22731272915375741,-1.7185037558066756,1st,2nd,1st,-1.258295533518817,-0.3194642559237085,-1.3383841225134485
perc,resp,1980,1,1.1.2left.bmp,2.1.2right.bmp,,ACC034,"[-2, -2, 0]","[0, -2, 0]",[],non-match,0.7113248654051871,4,-0.5797241672065361,0.9806822533030514,-2.017515393769867,2nd,4th,1st,-0.3530837876737248,1.265881300776143,-1.3383841225134485
perc,resp,1090,1,3.3.2left.bmp,1.3.3right.bmp,,ACC034,"[2, 2, 0]","[-2, 2, 2]",[],non-match,0.3545027756320971,2,0.6343755069535907,-0.1394470511982737,-1.6344515458510869,4th,2nd,1st,1.2694817657098552,-0.3194642559237085,-1.3383841225134485
perc,resp,1423,1,2.3.1left.bmp,2.3.1right.bmp,,ACC034,"[0, 2, -2]","[0, 2, -2]",[],match,1.0,,-0.4762761113519097,0.2860562307548066,-1.3492678676430574,2nd,3rd,1st,-0.3530837876737248,0.2753207058755099,-1.3383841225134485
perc,resp,1818,1,1.3.1left.bmp,1.3.1right.bmp,,ACC034,"[-2, 2, -2]","[-2, 2, -2]",[],match,1.0,,-1.1551401287482133,-0.7685183665457799,-0.6022983585724834,1st,1st,2nd,-1.258295533518817,-1.2223869205815945,-0.33914399193442146
perc,resp,1852,0,2.1.3left.bmp,2.1.3right.bmp,,ACC034,"[0, -2, 2]","[0, -2, 2]",[],match,1.0,,0.4576955092826604,0.27738905376126827,-0.1083626603271973,3rd,3rd,2nd,0.3417305967932681,0.2753207058755099,-0.33914399193442146
perc,resp,951,1,3.1.2left.bmp,1.2.3right.bmp,,ACC034,"[2, -2, 0]","[-2, 0, 2]",[],non-match,0.29289321881345254,1,-0.49927147619538964,-0.9427201439291514,-0.05468341083836439,2nd,1st,2nd,-0.3530837876737248,-1.2223869205815945,-0.33914399193442146
perc,resp,2290,0,3.3.1left.bmp,3.2.2right.bmp,,ACC034,"[2, 2, -2]","[2, 0, 0]",[],non-match,0.5917517095361369,3,-1.5684812029707724,-1.435832903638312,-0.41383966667011873,1st,1st,2nd,-1.258295533518817,-1.2223869205815945,-0.33914399193442146
perc,resp,1292,1,2.2.3left.bmp,2.2.3right.bmp,,ACC034,"[0, 0, 2]","[0, 0, 2]",[],match,1.0,,-0.5557663545743786,-0.8617150819380731,-0.2682516724933091,2nd,1st,2nd,-0.3530837876737248,-1.2223869205815945,-0.33914399193442146
perc,resp,969,1,2.2.2left.bmp,1.2.2right.bmp,,ACC034,"[0, 0, 0]","[-2, 0, 0]",[],non-match,0.7113248654051871,4,0.30682069114000776,0.7901667699362829,-0.37703431686527805,3rd,4th,2nd,0.3417305967932681,1.265881300776143,-0.33914399193442146
perc,resp,1350,1,1.2.3left.bmp,1.2.3right.bmp,,ACC034,"[-2, 0, 2]","[-2, 0, 2]",[],match,1.0,,-0.25440672294316863,-0.05750448112482175,-0.41735650376655054,2nd,2nd,2nd,-0.3530837876737248,-0.3194642559237085,-0.33914399193442146
perc,resp,1101,1,3.1.3left.bmp,3.3.1right.bmp,,ACC034,"[2, -2, 2]","[2, 2, -2]",[],non-match,0.18350341907227385,1,0.4251468232938158,-0.01645707043180702,-0.35897990078631536,3rd,2nd,2nd,0.3417305967932681,-0.3194642559237085,-0.33914399193442146
perc,resp,1100,1,3.1.1left.bmp,3.1.1right.bmp,,ACC034,"[2, -2, -2]","[2, -2, -2]",[],match,1.0,,0.43974280308681307,0.4929716623257505,-0.0625851173717799,3rd,3rd,2nd,0.3417305967932681,0.2753207058755099,-0.33914399193442146
perc,resp,857,1,3.2.1left.bmp,2.3.2right.bmp,,ACC034,"[2, 0, -2]","[0, 2, 0]",[],non-match,0.5,3,0.5044995496757447,0.8264380371808437,-0.06340049898152503,3rd,4th,2nd,0.3417305967932681,1.265881300776143,-0.33914399193442146
perc,resp,1690,1,1.3.2left.bmp,1.3.2right.bmp,,ACC034,"[-2, 2, 0]","[-2, 2, 0]",[],match,1.0,,-1.3344700609387616,0.4392706198169292,-0.14853796839506708,1st,3rd,2nd,-1.258295533518817,0.2753207058755099,-0.33914399193442146
perc,resp,2187,1,1.3.1left.bmp,1.3.1right.bmp,,ACC034,"[-2, 2, -2]","[-2, 2, -2]",[],match,1.0,,0.775270391353669,0.6655092861577018,0.23645678711442894,4th,4th,3rd,1.2694817657098552,1.265881300776143,0.4183163168454361
perc,resp,2327,1,1.2.2left.bmp,1.2.2right.bmp,,ACC034,"[-2, 0, 0]","[-2, 0, 0]",[],match,1.0,,-2.573366980894993,-2.3154520096713025,0.870130089744102,1st,1st,4th,-1.258295533518817,-1.2223869205815945,1.2603760964981874
perc,resp,1053,1,3.2.3left.bmp,3.2.3right.bmp,,ACC034,"[2, 0, 2]","[2, 0, 2]",[],match,1.0,,-0.5008186651135703,-0.6780427342713737,0.907511545583061,2nd,2nd,4th,-0.3530837876737248,-0.3194642559237085,1.2603760964981874
perc,resp,1467,1,1.3.3left.bmp,1.3.3right.bmp,,ACC034,"[-2, 2, 2]","[-2, 2, 2]",[],match,1.0,,0.09417206529495621,0.2448904894961945,0.5950595892449579,3rd,3rd,3rd,0.3417305967932681,0.2753207058755099,0.4183163168454361
perc,resp,1054,1,3.2.2left.bmp,3.2.2right.bmp,,ACC034,"[2, 0, 0]","[2, 0, 0]",[],match,1.0,,0.05145733666651652,-0.29286735112648854,0.19599841626514417,2nd,2nd,3rd,-0.3530837876737248,-0.3194642559237085,0.4183163168454361
perc,resp,1617,0,2.3.1left.bmp,3.3.1right.bmp,,ACC034,"[0, 2, -2]","[2, 2, -2]",[],non-match,0.7113248654051871,4,-1.9186485570983232,-0.7517720261507692,0.41588137872734116,1st,1st,3rd,-1.258295533518817,-1.2223869205815945,0.4183163168454361
perc,resp,764,1,3.1.3left.bmp,1.3.2right.bmp,,ACC034,"[2, -2, 2]","[-2, 2, 0]",[],non-match,0.1339745962155613,1,1.521462183671825,2.0620899853445205,0.42290767110272287,4th,4th,3rd,1.2694817657098552,1.265881300776143,0.4183163168454361
perc,resp,800,1,3.2.1left.bmp,2.3.3right.bmp,,ACC034,"[2, 0, -2]","[0, 2, 2]",[],non-match,0.29289321881345254,1,0.10627365670425655,1.197431667381254,-0.08476796829456894,3rd,4th,2nd,0.3417305967932681,1.265881300776143,-0.33914399193442146
perc,resp,1560,1,1.3.1left.bmp,1.3.1right.bmp,,ACC034,"[-2, 2, -2]","[-2, 2, -2]",[],match,1.0,,-1.2998030590415066,-0.5081808266889235,0.34384934760016544,1st,2nd,3rd,-1.258295533518817,-0.3194642559237085,0.4183163168454361
perc,resp,1584,1,2.1.2left.bmp,3.1.2right.bmp,,ACC034,"[0, -2, 0]","[2, -2, 0]",[],non-match,0.7113248654051871,4,0.3209635079962108,-2.2582783519973613,0.33935730299868866,3rd,1st,3rd,0.3417305967932681,-1.2223869205815945,0.4183163168454361
perc,resp,1891,1,2.2.3left.bmp,2.2.3right.bmp,,ACC034,"[0, 0, 2]","[0, 0, 2]",[],match,1.0,,-0.7842202127728296,-1.0193701655339755,0.42791322049144004,1st,1st,3rd,-1.258295533518817,-1.2223869205815945,0.4183163168454361
perc,resp,1947,1,1.2.1left.bmp,1.2.1right.bmp,,ACC034,"[-2, 0, -2]","[-2, 0, -2]",[],match,1.0,,-1.214815874249259,0.04853030801428377,0.5992033343822177,1st,3rd,3rd,-1.258295533518817,0.2753207058755099,0.4183163168454361
perc,resp,1188,1,3.1.1left.bmp,3.1.1right.bmp,,ACC034,"[2, -2, -2]","[2, -2, -2]",[],match,1.0,,-1.465385987693964,-0.3094757329457777,0.5089025099733753,1st,2nd,3rd,-1.258295533518817,-0.3194642559237085,0.4183163168454361
perc,resp,923,1,2.2.1left.bmp,1.1.2right.bmp,,ACC034,"[0, 0, -2]","[-2, -2, 0]",[],non-match,0.5,3,1.9325325714411294,0.22424622061029392,0.18164828649688014,4th,3rd,3rd,1.2694817657098552,0.2753207058755099,0.4183163168454361
perc,resp,740,1,2.1.1left.bmp,1.1.1right.bmp,,ACC034,"[0, -2, -2]","[-2, -2, -2]",[],non-match,0.7113248654051871,4,-0.22311491614933124,-0.4795147272821876,-0.401574202180497,2nd,2nd,2nd,-0.3530837876737248,-0.3194642559237085,-0.33914399193442146
perc,resp,1168,1,2.3.3left.bmp,2.3.3right.bmp,,ACC034,"[0, 2, 2]","[0, 2, 2]",[],match,1.0,,0.0538568781326935,0.5817049273062641,-0.28543401718571554,3rd,3rd,2nd,0.3417305967932681,0.2753207058755099,-0.33914399193442146
perc,resp,1027,1,1.1.3left.bmp,1.3.1right.bmp,,ACC034,"[-2, -2, 2]","[-2, 2, -2]",[],non-match,0.18350341907227385,1,-0.3356031957253545,0.1821409598883318,-0.2167003643097233,2nd,3rd,2nd,-0.3530837876737248,0.2753207058755099,-0.33914399193442146
perc,resp,1348,1,1.1.2left.bmp,1.1.2right.bmp,,ACC034,"[-2, -2, 0]","[-2, -2, 0]",[],match,1.0,,-1.060216280215619,-0.06078661169320492,-0.2489184248991376,1st,2nd,2nd,-1.258295533518817,-0.3194642559237085,-0.33914399193442146
perc,resp,1227,1,3.1.2left.bmp,3.1.2right.bmp,,ACC034,"[2, -2, 0]","[2, -2, 0]",[],match,1.0,,-2.7568638893402375,-0.36588712836634285,-0.36623110951714943,1st,2nd,2nd,-1.258295533518817,-0.3194642559237085,-0.33914399193442146
perc,resp,884,1,1.2.2left.bmp,2.3.1right.bmp,,ACC034,"[-2, 0, 0]","[0, 2, -2]",[],non-match,0.5,3,0.5748804744291248,0.5779167810118199,-0.4711631842094858,3rd,3rd,2nd,0.3417305967932681,0.2753207058755099,-0.33914399193442146
perc,resp,983,1,3.2.3left.bmp,3.2.3right.bmp,,ACC034,"[2, 0, 2]","[2, 0, 2]",[],match,1.0,,-0.5981324197425957,-1.5629278871240633,0.08767480065135659,2nd,1st,3rd,-0.3530837876737248,-1.2223869205815945,0.4183163168454361
perc,resp,932,1,3.3.3left.bmp,1.3.3right.bmp,,ACC034,"[2, 2, 2]","[-2, 2, 2]",[],non-match,0.42264973081037416,2,1.1363619983478157,-0.26947427445186517,0.32279063336011704,4th,2nd,3rd,1.2694817657098552,-0.3194642559237085,0.4183163168454361
perc,resp,1310,1,1.2.3left.bmp,1.2.1right.bmp,,ACC034,"[-2, 0, 2]","[-2, 0, -2]",[],non-match,0.42264973081037416,2,-0.5283906828458798,-2.133001209467534,0.29409199316647744,2nd,1st,3rd,-0.3530837876737248,-1.2223869205815945,0.4183163168454361
perc,resp,957,1,1.1.1left.bmp,3.1.2right.bmp,,ACC034,"[-2, -2, -2]","[2, -2, 0]",[],non-match,0.3545027756320971,2,-0.780116327506514,-2.00810833658577,0.17750427442683603,1st,1st,3rd,-1.258295533518817,-1.2223869205815945,0.4183163168454361
perc,resp,1066,0,1.3.2left.bmp,1.3.2right.bmp,,ACC034,"[-2, 2, 0]","[-2, 2, 0]",[],match,1.0,,-0.49142516339661085,-1.1212910211239617,0.27455613089476766,2nd,1st,3rd,-0.3530837876737248,-1.2223869205815945,0.4183163168454361
perc,resp,1285,1,3.3.1left.bmp,3.3.1right.bmp,,ACC034,"[2, 2, -2]","[2, 2, -2]",[],match,1.0,,0.8852851276029319,-0.6933002436491689,0.13500115695808615,4th,1st,3rd,1.2694817657098552,-1.2223869205815945,0.4183163168454361
perc,resp,690,0,3.3.2left.bmp,3.3.2right.bmp,,ACC034,"[2, 2, 0]","[2, 2, 0]",[],match,1.0,,0.15597337266840144,0.6982375910397615,-0.1349573540186889,3rd,4th,2nd,0.3417305967932681,1.265881300776143,-0.33914399193442146
perc,resp,1111,1,2.3.2left.bmp,1.1.2right.bmp,,ACC034,"[0, 2, 0]","[-2, -2, 0]",[],non-match,0.3545027756320971,2,0.24124694821254083,-0.6493193105068013,-0.3968915668260329,3rd,2nd,2nd,0.3417305967932681,-0.3194642559237085,-0.33914399193442146
perc,resp,1149,1,2.1.3left.bmp,3.2.1right.bmp,,ACC034,"[0, -2, 2]","[2, 0, -2]",[],non-match,0.29289321881345254,1,-0.41238247852890736,-1.0670392501456512,-0.25685077446463606,2nd,1st,2nd,-0.3530837876737248,-1.2223869205815945,-0.33914399193442146
perc,resp,1116,1,2.2.2left.bmp,2.2.2right.bmp,,ACC034,"[0, 0, 0]","[0, 0, 0]",[],match,1.0,,0.10579310870756878,-0.1786636620168259,-0.5406200827919054,3rd,2nd,2nd,0.3417305967932681,-0.3194642559237085,-0.33914399193442146
perc,resp,1187,1,3.3.3left.bmp,3.2.2right.bmp,,ACC034,"[2, 2, 2]","[2, 0, 0]",[],non-match,0.5917517095361369,3,0.09174316121768943,-1.2977557597779674,-0.47306759825229405,3rd,1st,2nd,0.3417305967932681,-1.2223869205815945,-0.33914399193442146
perc,resp,1296,1,2.3.3left.bmp,2.3.3right.bmp,,ACC034,"[0, 2, 2]","[0, 2, 2]",[],match,1.0,,-0.15264666369484683,0.29647804787531534,-0.34114233831450563,2nd,3rd,2nd,-0.3530837876737248,0.2753207058755099,-0.33914399193442146
perc,resp,1859,1,1.3.1left.bmp,1.3.1right.bmp,,ACC034,"[-2, 2, -2]","[-2, 2, -2]",[],match,1.0,,-0.581093695968729,-0.19448830412485202,-0.41013275691146883,2nd,2nd,2nd,-0.3530837876737248,-0.3194642559237085,-0.33914399193442146
perc,resp,815,1,2.1.1left.bmp,1.1.3right.bmp,,ACC034,"[0, -2, -2]","[-2, -2, 2]",[],non-match,0.3545027756320971,2,0.32476791930239524,-0.6437911151202685,-0.019832185565782975,3rd,2nd,2nd,0.3417305967932681,-0.3194642559237085,-0.33914399193442146
perc,resp,974,1,1.2.2left.bmp,2.2.1right.bmp,,ACC034,"[-2, 0, 0]","[0, 0, -2]",[],non-match,0.5917517095361369,3,0.23076577439329052,2.361360769940632,-0.04249856227246612,3rd,4th,2nd,0.3417305967932681,1.265881300776143,-0.33914399193442146
perc,resp,750,1,1.3.2left.bmp,2.1.2right.bmp,,ACC034,"[-2, 2, 0]","[0, -2, 0]",[],non-match,0.3545027756320971,2,2.0272035902317893,0.19185446408420473,0.02451349119510074,4th,3rd,2nd,1.2694817657098552,0.2753207058755099,-0.33914399193442146
perc,resp,2185,1,1.3.3left.bmp,1.3.3right.bmp,,ACC034,"[-2, 2, 2]","[-2, 2, 2]",[],match,1.0,,0.9314326289037527,0.21341878635654557,0.06815640516674902,4th,3rd,3rd,1.2694817657098552,0.2753207058755099,0.4183163168454361
perc,resp,975,1,3.1.1left.bmp,3.1.1right.bmp,,ACC034,"[2, -2, -2]","[2, -2, -2]",[],match,1.0,,-1.2022736126100608,-0.24307834234379677,0.3424817782070733,1st,2nd,3rd,-1.258295533518817,-0.3194642559237085,0.4183163168454361
perc,resp,1014,1,2.2.1left.bmp,2.2.2right.bmp,,ACC034,"[0, 0, -2]","[0, 0, 0]",[],non-match,0.7113248654051871,4,1.5161942952810346,0.4224591226101936,0.05239124816502391,4th,3rd,3rd,1.2694817657098552,0.2753207058755099,0.4183163168454361
perc,resp,1242,1,2.1.3left.bmp,3.1.2right.bmp,,ACC034,"[0, -2, 2]","[2, -2, 0]",[],non-match,0.5917517095361369,3,0.957902829779212,-0.1929617511915218,0.14112468181074864,4th,2nd,3rd,1.2694817657098552,-0.3194642559237085,0.4183163168454361
perc,resp,1081,1,2.2.3left.bmp,2.3.2right.bmp,,ACC034,"[0, 0, 2]","[0, 2, 0]",[],non-match,0.5917517095361369,3,1.3993201963207311,0.48207989797194994,-0.38022867377138786,4th,3rd,2nd,1.2694817657098552,0.2753207058755099,-0.33914399193442146
perc,resp,1362,1,3.3.1left.bmp,3.3.1right.bmp,,ACC034,"[2, 2, -2]","[2, 2, -2]",[],match,1.0,,-1.4251036303992044,-1.0099234463085434,-0.8268557917425492,1st,1st,1st,-1.258295533518817,-1.2223869205815945,-1.3383841225134485
perc,resp,1322,0,2.3.1left.bmp,2.3.1right.bmp,,ACC034,"[0, 2, -2]","[0, 2, -2]",[],match,1.0,,-1.3580344977924832,-0.2594266423754338,-1.02110339432075,1st,2nd,1st,-1.258295533518817,-0.3194642559237085,-1.3383841225134485
perc,resp,1856,1,3.1.3left.bmp,3.1.3right.bmp,,ACC034,"[2, -2, 2]","[2, -2, 2]",[],match,1.0,,0.26181534241886834,0.503240921312855,-0.7253612745296304,3rd,3rd,2nd,0.3417305967932681,0.2753207058755099,-0.33914399193442146
perc,resp,1167,1,2.3.2left.bmp,2.3.3right.bmp,,ACC034,"[0, 2, 0]","[0, 2, 2]",[],non-match,0.7113248654051871,4,-0.07036391182145697,-0.5713020697286467,-1.1706629240484692,2nd,2nd,1st,-0.3530837876737248,-0.3194642559237085,-1.3383841225134485
perc,resp,1196,1,1.1.3left.bmp,1.2.1right.bmp,,ACC034,"[-2, -2, 2]","[-2, 0, -2]",[],non-match,0.3545027756320971,2,1.497081633472209,0.8704363142227352,-1.4912916094212654,4th,4th,1st,1.2694817657098552,1.265881300776143,-1.3383841225134485
perc,resp,1941,1,3.2.3left.bmp,3.2.3right.bmp,,ACC034,"[2, 0, 2]","[2, 0, 2]",[],match,1.0,,0.5537984757189625,-0.6463915537321552,-1.663030302767873,3rd,2nd,1st,0.3417305967932681,-0.3194642559237085,-1.3383841225134485
perc,resp,2089,0,1.2.3left.bmp,2.2.3right.bmp,,ACC034,"[-2, 0, 2]","[0, 0, 2]",[],non-match,0.7113248654051871,4,-1.8929683603389045,-0.729575601838089,-1.4984602004561132,1st,1st,1st,-1.258295533518817,-1.2223869205815945,-1.3383841225134485
perc,resp,1180,1,2.2.2left.bmp,3.3.1right.bmp,,ACC034,"[0, 0, 0]","[2, 2, -2]",[],non-match,0.5,3,0.5498591460135612,-0.8122323314774904,-1.5229112902058197,3rd,1st,1st,0.3417305967932681,-1.2223869205815945,-1.3383841225134485
perc,resp,1209,0,1.2.1left.bmp,2.2.1right.bmp,,ACC034,"[-2, 0, -2]","[0, 0, -2]",[],non-match,0.7113248654051871,4,-1.1594338770945791,-1.3477849698502145,-1.2007016776235397,1st,1st,1st,-1.258295533518817,-1.2223869205815945,-1.3383841225134485
perc,resp,1268,1,3.3.2left.bmp,2.1.1right.bmp,,ACC034,"[2, 2, 0]","[0, -2, -2]",[],non-match,0.29289321881345254,1,0.5395009319555344,0.6730992834101936,-0.5249373993427129,3rd,4th,2nd,0.3417305967932681,1.265881300776143,-0.33914399193442146
perc,resp,1451,1,3.2.1left.bmp,3.2.1right.bmp,,ACC034,"[2, 0, -2]","[2, 0, -2]",[],match,1.0,,-0.924551272969747,-0.6799593843177794,-0.906083820826246,1st,1st,1st,-1.258295533518817,-1.2223869205815945,-1.3383841225134485
perc,resp,1231,1,3.2.2left.bmp,3.2.2right.bmp,,ACC034,"[2, 0, 0]","[2, 0, 0]",[],match,1.0,,-0.6408976014205984,-1.2122108543159476,-1.5008937434110767,2nd,1st,1st,-0.3530837876737248,-1.2223869205815945,-1.3383841225134485
perc,resp,1402,0,3.1.2left.bmp,3.1.3right.bmp,,ACC034,"[2, -2, 0]","[2, -2, 2]",[],non-match,0.7113248654051871,4,-1.8070499931912178,0.41969937154530906,-1.7701645127479497,1st,3rd,1st,-1.258295533518817,0.2753207058755099,-1.3383841225134485
perc,resp,1675,1,1.1.2left.bmp,1.1.2right.bmp,,ACC034,"[-2, -2, 0]","[-2, -2, 0]",[],match,1.0,,-0.7229177789731355,-0.7065481447927905,-1.4603915470956714,1st,1st,1st,-1.258295533518817,-1.2223869205815945,-1.3383841225134485
perc,resp,1347,1,2.1.2left.bmp,2.1.2right.bmp,,ACC034,"[0, -2, 0]","[0, -2, 0]",[],match,1.0,,0.3273016852939511,0.7014700507253799,-1.4780897780194442,3rd,4th,1st,0.3417305967932681,1.265881300776143,-1.3383841225134485
perc,resp,1157,1,1.1.1left.bmp,3.2.1right.bmp,,ACC034,"[-2, -2, -2]","[2, 0, -2]",[],non-match,0.3545027756320971,2,1.5835435720372448,-0.4410553502645695,-1.6479345691250527,4th,2nd,1st,1.2694817657098552,-0.3194642559237085,-1.3383841225134485
perc,resp,1510,1,1.2.3left.bmp,1.2.3right.bmp,,ACC034,"[-2, 0, 2]","[-2, 0, 2]",[],match,1.0,,-0.40700526669268305,-0.36857094979935584,-1.5192348792500692,2nd,2nd,1st,-0.3530837876737248,-0.3194642559237085,-1.3383841225134485
perc,resp,1127,1,1.1.3left.bmp,1.1.3right.bmp,,ACC034,"[-2, -2, 2]","[-2, -2, 2]",[],match,1.0,,-0.492960406871604,1.0193283137482725,-0.9344776729063164,2nd,4th,1st,-0.3530837876737248,1.265881300776143,-1.3383841225134485
perc,resp,1208,1,2.1.2left.bmp,2.1.2right.bmp,,ACC034,"[0, -2, 0]","[0, -2, 0]",[],match,1.0,,-1.476471042082463,0.3415724252759152,-1.5070338882456935,1st,3rd,1st,-1.258295533518817,0.2753207058755099,-1.3383841225134485
perc,resp,1145,1,1.1.2left.bmp,3.2.2right.bmp,,ACC034,"[-2, -2, 0]","[2, 0, 0]",[],non-match,0.3545027756320971,2,-0.3644687072609156,-0.41884365309294735,-1.468162631083754,2nd,2nd,1st,-0.3530837876737248,-0.3194642559237085,-1.3383841225134485
perc,resp,1246,0,1.3.3left.bmp,1.3.3right.bmp,,ACC034,"[-2, 2, 2]","[-2, 2, 2]",[],match,1.0,,0.5697275662546265,1.3029135312989772,-1.4708034470405698,3rd,4th,1st,0.3417305967932681,1.265881300776143,-1.3383841225134485
perc,resp,993,1,1.2.1left.bmp,1.3.2right.bmp,,ACC034,"[-2, 0, -2]","[-2, 2, 0]",[],non-match,0.5917517095361369,3,0.6463794698126942,-0.2959820171829575,-1.5713015292691315,4th,2nd,1st,1.2694817657098552,-0.3194642559237085,-1.3383841225134485
perc,resp,1586,1,2.1.3left.bmp,2.1.3right.bmp,,ACC034,"[0, -2, 2]","[0, -2, 2]",[],match,1.0,,-0.3801481508632565,-0.8352417329694025,-1.5566588290522148,2nd,1st,1st,-0.3530837876737248,-1.2223869205815945,-1.3383841225134485
perc,resp,761,1,2.1.1left.bmp,1.1.1right.bmp,,ACC034,"[0, -2, -2]","[-2, -2, -2]",[],non-match,0.7113248654051871,4,2.4413431971249886,0.2652068010092795,-0.9403317024033989,4th,3rd,1st,1.2694817657098552,0.2753207058755099,-1.3383841225134485
perc,resp,1012,1,2.2.3left.bmp,3.1.1right.bmp,,ACC034,"[0, 0, 2]","[2, -2, -2]",[],non-match,0.29289321881345254,1,0.8840529234115289,-0.061973326469475024,-0.7172041256919954,4th,2nd,2nd,1.2694817657098552,-0.3194642559237085,-0.33914399193442146
perc,resp,1331,1,3.3.3left.bmp,3.3.3right.bmp,,ACC034,"[2, 2, 2]","[2, 2, 2]",[],match,1.0,,0.15304984181671932,-0.7070215863743893,-0.8188329329363908,3rd,1st,1st,0.3417305967932681,-1.2223869205815945,-1.3383841225134485
perc,resp,818,1,3.1.3left.bmp,1.1.3right.bmp,,ACC034,"[2, -2, 2]","[-2, -2, 2]",[],non-match,0.42264973081037416,2,2.786882132082216,0.6695497073543114,-0.8368519700836694,4th,4th,1st,1.2694817657098552,1.265881300776143,-1.3383841225134485
perc,resp,1187,1,3.2.3left.bmp,3.2.3right.bmp,,ACC034,"[2, 0, 2]","[2, 0, 2]",[],match,1.0,,0.8440539689666435,0.11829839813002989,-0.8056957845321026,4th,3rd,1st,1.2694817657098552,0.2753207058755099,-1.3383841225134485
perc,resp,976,1,3.2.2left.bmp,3.2.2right.bmp,,ACC034,"[2, 0, 0]","[2, 0, 0]",[],match,1.0,,-0.4857542260272772,-0.7641175949414079,-0.5075530952254779,2nd,1st,2nd,-0.3530837876737248,-1.2223869205815945,-0.33914399193442146
perc,resp,803,1,3.3.1left.bmp,3.3.1right.bmp,,ACC034,"[2, 2, -2]","[2, 2, -2]",[],match,1.0,,-0.012729634344478885,-0.2696219916344441,-0.3610152227765186,2nd,2nd,2nd,-0.3530837876737248,-0.3194642559237085,-0.33914399193442146
perc,resp,969,1,3.3.3left.bmp,3.3.3right.bmp,,ACC034,"[2, 2, 2]","[2, 2, 2]",[],match,1.0,,0.032267793951458935,0.27128062609975356,-0.6703443939434993,2nd,3rd,2nd,-0.3530837876737248,0.2753207058755099,-0.33914399193442146
perc,resp,1125,1,1.1.2left.bmp,1.1.2right.bmp,,ACC034,"[-2, -2, 0]","[-2, -2, 0]",[],match,1.0,,1.2041239409112676,0.3379806954475294,-0.7371442791606433,4th,3rd,2nd,1.2694817657098552,0.2753207058755099,-0.33914399193442146
perc,resp,842,1,2.1.3left.bmp,2.3.3right.bmp,,ACC034,"[0, -2, 2]","[0, 2, 2]",[],non-match,0.42264973081037416,2,1.6344445014988638,-0.0342562920629287,-0.49332985196651213,4th,2nd,2nd,1.2694817657098552,-0.3194642559237085,-0.33914399193442146
perc,resp,1635,1,2.2.3left.bmp,3.1.3right.bmp,,ACC034,"[0, 0, 2]","[2, -2, 2]",[],non-match,0.5917517095361369,3,-1.0167611051995404,0.3431340751027291,-0.5105971172577066,1st,3rd,2nd,-1.258295533518817,0.2753207058755099,-0.33914399193442146
perc,resp,1124,1,2.2.2left.bmp,2.2.2right.bmp,,ACC034,"[0, 0, 0]","[0, 0, 0]",[],match,1.0,,1.4854312344326548,0.970524506640945,-0.3198810786416257,4th,4th,2nd,1.2694817657098552,1.265881300776143,-0.33914399193442146
perc,resp,1313,1,3.3.1left.bmp,1.1.2right.bmp,,ACC034,"[2, 2, -2]","[-2, -2, 0]",[],non-match,0.1339745962155613,1,0.8222003740391536,-0.48522882199865447,-0.3011144572613568,4th,2nd,2nd,1.2694817657098552,-0.3194642559237085,-0.33914399193442146
perc,resp,1164,1,3.2.1left.bmp,3.2.1right.bmp,,ACC034,"[2, 0, -2]","[2, 0, -2]",[],match,1.0,,-2.416999982432968,-2.9567699760532555,0.08493617943571362,1st,1st,3rd,-1.258295533518817,-1.2223869205815945,0.4183163168454361
perc,resp,971,1,2.3.2left.bmp,2.1.1right.bmp,,ACC034,"[0, 2, 0]","[0, -2, -2]",[],non-match,0.3545027756320971,2,-0.7290776330352616,-2.4964486666569026,0.4519976846449311,1st,1st,3rd,-1.258295533518817,-1.2223869205815945,0.4183163168454361
perc,resp,1403,0,2.2.1left.bmp,2.2.1right.bmp,,ACC034,"[0, 0, -2]","[0, 0, -2]",[],match,1.0,,-1.231878272530131,-0.9957304730968832,0.39106454600928087,1st,1st,3rd,-1.258295533518817,-1.2223869205815945,0.4183163168454361
perc,resp,1212,1,1.3.2left.bmp,2.1.2right.bmp,,ACC034,"[-2, 2, 0]","[0, -2, 0]",[],non-match,0.3545027756320971,2,0.9366853141025748,-0.9814417675258118,0.2253440074453357,4th,1st,3rd,1.2694817657098552,-1.2223869205815945,0.4183163168454361
perc,resp,971,1,1.1.3left.bmp,3.2.3right.bmp,,ACC034,"[-2, -2, 2]","[2, 0, 2]",[],non-match,0.3545027756320971,2,1.5102999021584727,0.23108655230891711,0.47054362051316573,4th,3rd,3rd,1.2694817657098552,0.2753207058755099,0.4183163168454361
perc,resp,1232,1,1.1.1left.bmp,1.1.1right.bmp,,ACC034,"[-2, -2, -2]","[-2, -2, -2]",[],match,1.0,,-1.006633718327169,0.743267911069933,0.5781233403044159,1st,4th,3rd,-1.258295533518817,1.265881300776143,0.4183163168454361
perc,resp,2225,1,3.3.2left.bmp,3.3.2right.bmp,,ACC034,"[2, 2, 0]","[2, 2, 0]",[],match,1.0,,0.545221006065772,0.6636378154780652,0.8502059610387482,3rd,4th,4th,0.3417305967932681,1.265881300776143,1.2603760964981874
perc,resp,2135,1,3.1.2left.bmp,1.3.3right.bmp,,ACC034,"[2, -2, 0]","[-2, 2, 2]",[],non-match,0.1339745962155613,1,2.0054976859093063,0.0667055556144447,0.7792690093345424,4th,3rd,3rd,1.2694817657098552,0.2753207058755099,0.4183163168454361
perc,resp,2221,0,3.2.2left.bmp,3.3.3right.bmp,,ACC034,"[2, 0, 0]","[2, 2, 2]",[],non-match,0.5917517095361369,3,-0.8501069398642161,0.00905569497146208,0.785985712138605,1st,3rd,3rd,-1.258295533518817,0.2753207058755099,0.4183163168454361
perc,resp,1575,1,3.2.3left.bmp,3.2.3right.bmp,,ACC034,"[2, 0, 2]","[2, 0, 2]",[],match,1.0,,-1.3681234525619512,-1.1378270816521465,1.0794157709782841,1st,1st,4th,-1.258295533518817,-1.2223869205815945,1.2603760964981874
perc,resp,1556,1,1.2.2left.bmp,1.2.2right.bmp,,ACC034,"[-2, 0, 0]","[-2, 0, 0]",[],match,1.0,,-0.9540960787447927,-0.39717214807838896,0.8221277817988092,1st,2nd,4th,-1.258295533518817,-0.3194642559237085,1.2603760964981874
perc,resp,1115,1,2.1.2left.bmp,2.1.2right.bmp,,ACC034,"[0, -2, 0]","[0, -2, 0]",[],match,1.0,,0.63655257889692,0.37659547721400216,0.7334537297873267,4th,3rd,3rd,1.2694817657098552,0.2753207058755099,0.4183163168454361
perc,resp,1062,1,2.3.1left.bmp,1.2.3right.bmp,,ACC034,"[0, 2, -2]","[-2, 0, 2]",[],non-match,0.29289321881345254,1,1.980576991780617,1.91902475196135,0.5920771249917031,4th,4th,3rd,1.2694817657098552,1.265881300776143,0.4183163168454361
perc,resp,1121,1,1.3.3left.bmp,3.3.2right.bmp,,ACC034,"[-2, 2, 2]","[2, 2, 0]",[],non-match,0.3545027756320971,2,0.4392316594755977,-0.23188289355371308,0.6454742694590769,3rd,2nd,3rd,0.3417305967932681,-0.3194642559237085,0.4183163168454361
perc,resp,1200,0,3.1.1left.bmp,3.2.1right.bmp,,ACC034,"[2, -2, -2]","[2, 0, -2]",[],non-match,0.7113248654051871,4,0.34409456106524094,0.24375559334847763,0.4464068249754838,3rd,3rd,3rd,0.3417305967932681,0.2753207058755099,0.4183163168454361
perc,resp,2007,1,1.2.1left.bmp,1.2.1right.bmp,,ACC034,"[-2, 0, -2]","[-2, 0, -2]",[],match,1.0,,-1.466413498620861,-0.8255514491441694,0.498475583071758,1st,1st,3rd,-1.258295533518817,-1.2223869205815945,0.4183163168454361
perc,resp,1036,1,3.1.3left.bmp,2.3.1right.bmp,,ACC034,"[2, -2, 2]","[0, 2, -2]",[],non-match,0.1339745962155613,1,0.60586836832375,-0.47178591065109815,0.8523101294503745,3rd,2nd,4th,0.3417305967932681,-0.3194642559237085,1.2603760964981874
perc,resp,1215,1,2.1.1left.bmp,2.1.1right.bmp,,ACC034,"[0, -2, -2]","[0, -2, -2]",[],match,1.0,,-0.9867654602127569,-2.157945862018486,0.5655031030502977,1st,1st,3rd,-1.258295533518817,-1.2223869205815945,0.4183163168454361
perc,resp,1156,1,1.2.3left.bmp,1.2.3right.bmp,,ACC034,"[-2, 0, 2]","[-2, 0, 2]",[],match,1.0,,-0.43418367255874174,-1.0058273413932406,0.99870080989192,2nd,1st,4th,-0.3530837876737248,-1.2223869205815945,1.2603760964981874
perc,resp,1335,1,2.3.3left.bmp,2.3.3right.bmp,,ACC034,"[0, 2, 2]","[0, 2, 2]",[],match,1.0,,-0.06586779916184127,0.2082822988924303,1.353865419493917,2nd,3rd,4th,-0.3530837876737248,0.2753207058755099,1.2603760964981874
perc,resp,1174,1,1.2.1left.bmp,1.1.3right.bmp,,ACC034,"[-2, 0, -2]","[-2, -2, 2]",[],non-match,0.3545027756320971,2,0.9983971167892154,0.029647702043170854,1.5085792184393434,4th,3rd,4th,1.2694817657098552,0.2753207058755099,1.2603760964981874
perc,resp,969,1,1.2.3left.bmp,1.2.3right.bmp,,ACC034,"[-2, 0, 2]","[-2, 0, 2]",[],match,1.0,,-0.2296775186677438,1.190467993710194,1.3698169981209969,2nd,4th,4th,-0.3530837876737248,1.265881300776143,1.2603760964981874
perc,resp,1290,0,2.3.1left.bmp,2.3.1right.bmp,,ACC034,"[0, 2, -2]","[0, 2, -2]",[],match,1.0,,-1.5905006169146096,-1.6560796490038063,1.5726885440325336,1st,1st,4th,-1.258295533518817,-1.2223869205815945,1.2603760964981874
perc,resp,1461,1,2.1.3left.bmp,2.1.3right.bmp,,ACC034,"[0, -2, 2]","[0, -2, 2]",[],match,1.0,,-1.255900935972934,-0.7957118239953225,1.3245589156264015,1st,1st,4th,-1.258295533518817,-1.2223869205815945,1.2603760964981874
perc,resp,1100,1,3.1.1left.bmp,3.1.1right.bmp,,ACC034,"[2, -2, -2]","[2, -2, -2]",[],match,1.0,,-0.8715847767681278,-0.7437162407917508,0.9567383660729738,1st,1st,4th,-1.258295533518817,-1.2223869205815945,1.2603760964981874
perc,resp,999,1,2.1.1left.bmp,2.1.1right.bmp,,ACC034,"[0, -2, -2]","[0, -2, -2]",[],match,1.0,,0.24225816999882488,-0.18337319125462703,0.7013127164067149,3rd,2nd,3rd,0.3417305967932681,-0.3194642559237085,0.4183163168454361
perc,resp,1268,1,1.3.1left.bmp,3.2.3right.bmp,,ACC034,"[-2, 2, -2]","[2, 0, 2]",[],non-match,0.1339745962155613,1,-0.39107636985853633,0.3074502333769823,0.8306004408415447,2nd,3rd,4th,-0.3530837876737248,0.2753207058755099,1.2603760964981874
perc,resp,1107,1,2.2.3left.bmp,2.2.3right.bmp,,ACC034,"[0, 0, 2]","[0, 0, 2]",[],match,1.0,,-0.1002077208759846,2.6711679862817226,1.1456284522218565,2nd,4th,4th,-0.3530837876737248,1.265881300776143,1.2603760964981874
perc,resp,1538,1,1.3.2left.bmp,2.2.1right.bmp,,ACC034,"[-2, 2, 0]","[0, 0, -2]",[],non-match,0.5,3,-0.9990210121484701,1.6883736953080846,1.0190980142537591,1st,4th,4th,-1.258295533518817,1.265881300776143,1.2603760964981874
perc,resp,1249,1,3.1.2left.bmp,2.3.1right.bmp,,ACC034,"[2, -2, 0]","[0, 2, -2]",[],non-match,0.29289321881345254,1,-0.34723149270421166,0.8835345294168048,1.0824032938591888,2nd,4th,4th,-0.3530837876737248,1.265881300776143,1.2603760964981874
perc,resp,1028,1,1.3.3left.bmp,1.3.3right.bmp,,ACC034,"[-2, 2, 2]","[-2, 2, 2]",[],match,1.0,,-0.6315967643944675,0.2579348405895314,1.2138335754871052,2nd,3rd,4th,-0.3530837876737248,0.2753207058755099,1.2603760964981874
perc,resp,885,1,3.1.3left.bmp,3.1.3right.bmp,,ACC034,"[2, -2, 2]","[2, -2, 2]",[],match,1.0,,0.11973501205466579,-1.0676967469361718,1.2966235489323212,3rd,1st,4th,0.3417305967932681,-1.2223869205815945,1.2603760964981874
perc,resp,832,1,3.3.2left.bmp,3.3.2right.bmp,,ACC034,"[2, 2, 0]","[2, 2, 0]",[],match,1.0,,0.1251716772643189,1.0941515497177872,1.2523603151771623,3rd,4th,4th,0.3417305967932681,1.265881300776143,1.2603760964981874
perc,resp,1704,1,2.2.2left.bmp,3.2.2right.bmp,,ACC034,"[0, 0, 0]","[2, 0, 0]",[],non-match,0.7113248654051871,4,1.1935041701513442,2.353575430094976,1.3910953396008179,4th,4th,4th,1.2694817657098552,1.265881300776143,1.2603760964981874
perc,resp,993,0,1.1.3left.bmp,1.1.2right.bmp,,ACC034,"[-2, -2, 2]","[-2, -2, 0]",[],non-match,0.7113248654051871,4,-0.020577113849444533,-1.2710111162119098,1.6126810415145698,2nd,1st,4th,-0.3530837876737248,-1.2223869205815945,1.2603760964981874
perc,resp,1101,1,3.3.1left.bmp,1.3.1right.bmp,,ACC034,"[2, 2, -2]","[-2, 2, -2]",[],non-match,0.42264973081037416,2,1.6994783284764983,0.5173574748316002,1.631097743007443,4th,3rd,4th,1.2694817657098552,0.2753207058755099,1.2603760964981874
perc,resp,1784,0,3.2.1left.bmp,3.2.1right.bmp,,ACC034,"[2, 0, -2]","[2, 0, -2]",[],match,1.0,,-1.2421229562547642,-0.7431022667486042,1.8653989458457483,1st,1st,4th,-1.258295533518817,-1.2223869205815945,1.2603760964981874
perc,resp,982,1,2.2.1left.bmp,1.2.3right.bmp,,ACC034,"[0, 0, -2]","[-2, 0, 2]",[],non-match,0.3545027756320971,2,1.2924791722476636,-0.8166574207630992,1.8366504796506848,4th,1st,4th,1.2694817657098552,-1.2223869205815945,1.2603760964981874
perc,resp,1080,1,1.1.1left.bmp,1.1.1right.bmp,,ACC034,"[-2, -2, -2]","[-2, -2, -2]",[],match,1.0,,0.8821012144593094,0.17340379365504408,1.361547157268052,4th,3rd,4th,1.2694817657098552,0.2753207058755099,1.2603760964981874
perc,resp,1171,1,2.3.3left.bmp,1.2.2right.bmp,,ACC034,"[0, 2, 2]","[-2, 0, 0]",[],non-match,0.5,3,-0.6330602407852983,-0.7908541216051025,1.3439027871644633,2nd,1st,4th,-0.3530837876737248,-1.2223869205815945,1.2603760964981874
perc,resp,1422,1,3.3.3left.bmp,2.2.3right.bmp,,ACC034,"[2, 2, 2]","[0, 0, 2]",[],non-match,0.5917517095361369,3,-0.5891272355475365,1.3133890079730013,1.5713877371540517,2nd,4th,4th,-0.3530837876737248,1.265881300776143,1.2603760964981874
perc,resp,1373,1,1.1.2left.bmp,1.1.2right.bmp,,ACC034,"[-2, -2, 0]","[-2, -2, 0]",[],match,1.0,,-0.26826076344316274,-1.2680763984397518,1.6976230991934733,2nd,1st,4th,-0.3530837876737248,-1.2223869205815945,1.2603760964981874
perc,resp,1063,1,3.2.2left.bmp,3.2.2right.bmp,,ACC034,"[2, 0, 0]","[2, 0, 0]",[],match,1.0,,0.8964137380384207,-0.807624658231439,1.8057634771992088,4th,1st,4th,1.2694817657098552,-1.2223869205815945,1.2603760964981874
perc,resp,929,1,1.2.2left.bmp,1.2.2right.bmp,,ACC034,"[-2, 0, 0]","[-2, 0, 0]",[],match,1.0,,-0.24337105566826045,0.6471829122546617,1.9565941735018038,2nd,4th,4th,-0.3530837876737248,1.265881300776143,1.2603760964981874
perc,resp,906,1,2.1.2left.bmp,2.1.2right.bmp,,ACC034,"[0, -2, 0]","[0, -2, 0]",[],match,1.0,,0.1008228957913161,-1.4032821286958508,1.7171917693758467,3rd,1st,4th,0.3417305967932681,-1.2223869205815945,1.2603760964981874
perc,resp,983,1,2.3.2left.bmp,1.1.1right.bmp,,ACC034,"[0, 2, 0]","[-2, -2, -2]",[],non-match,0.29289321881345254,1,0.25611416598622294,2.6575495052387397,1.6937689664576352,3rd,4th,4th,0.3417305967932681,1.265881300776143,1.2603760964981874
perc,resp,1042,1,3.2.3left.bmp,3.2.3right.bmp,,ACC034,"[2, 0, 2]","[2, 0, 2]",[],match,1.0,,0.4457857377962909,0.3400730941681771,1.659798751709345,3rd,3rd,4th,0.3417305967932681,0.2753207058755099,1.2603760964981874
perc,resp,1051,1,3.3.3left.bmp,3.3.3right.bmp,,ACC034,"[2, 2, 2]","[2, 2, 2]",[],match,1.0,,-0.7862352452389516,0.012837057116510007,1.523361349515422,1st,3rd,4th,-1.258295533518817,0.2753207058755099,1.2603760964981874
perc,resp,805,1,3.1.2left.bmp,1.3.2right.bmp,,ACC034,"[2, -2, 0]","[-2, 2, 0]",[],non-match,0.18350341907227385,1,2.0975716416351866,-0.14801962510349967,1.7064244858149358,4th,2nd,4th,1.2694817657098552,-0.3194642559237085,1.2603760964981874
perc,resp,1014,1,3.1.1left.bmp,2.3.2right.bmp,,ACC034,"[2, -2, -2]","[0, 2, 0]",[],non-match,0.29289321881345254,1,1.7200728484698662,0.6724425504756901,1.6027560052191905,4th,4th,4th,1.2694817657098552,1.265881300776143,1.2603760964981874
perc,resp,779,1,1.2.3left.bmp,2.2.1right.bmp,,ACC034,"[-2, 0, 2]","[0, 0, -2]",[],non-match,0.3545027756320971,2,0.9186168618224814,0.12514592307248484,1.7475111330463808,4th,3rd,4th,1.2694817657098552,0.2753207058755099,1.2603760964981874
perc,resp,1541,1,2.2.3left.bmp,1.1.3right.bmp,,ACC034,"[0, 0, 2]","[-2, -2, 2]",[],non-match,0.5917517095361369,3,0.5924096600176908,0.6453360213323854,1.7084367517294248,3rd,4th,4th,0.3417305967932681,1.265881300776143,1.2603760964981874
perc,resp,1231,1,2.1.3left.bmp,2.1.3right.bmp,,ACC034,"[0, -2, 2]","[0, -2, 2]",[],match,1.0,,-1.096793416367625,0.34379346715106646,1.5542435711611462,1st,3rd,4th,-1.258295533518817,0.2753207058755099,1.2603760964981874
perc,resp,818,1,2.2.2left.bmp,3.3.2right.bmp,,ACC034,"[0, 0, 0]","[2, 2, 0]",[],non-match,0.5917517095361369,3,1.5937471964558771,-0.6041428926261929,1.467492665642386,4th,2nd,4th,1.2694817657098552,-0.3194642559237085,1.2603760964981874
perc,resp,924,1,3.2.2left.bmp,3.2.2right.bmp,,ACC034,"[2, 0, 0]","[2, 0, 0]",[],match,1.0,,0.10397102794857765,-0.861755929591362,1.8620847342669467,3rd,1st,4th,0.3417305967932681,-1.2223869205815945,1.2603760964981874
perc,resp,1263,1,1.1.1left.bmp,2.1.2right.bmp,,ACC034,"[-2, -2, -2]","[0, -2, 0]",[],non-match,0.5917517095361369,3,-0.6710151977658356,2.187532862257711,1.3021368256999883,2nd,4th,4th,-0.3530837876737248,1.265881300776143,1.2603760964981874
perc,resp,1870,1,1.2.2left.bmp,1.2.2right.bmp,,ACC034,"[-2, 0, 0]","[-2, 0, 0]",[],match,1.0,,-0.9007668030300684,-0.3152339416789204,1.1447124464619698,1st,2nd,4th,-1.258295533518817,-0.3194642559237085,1.2603760964981874
perc,resp,1290,1,3.2.3left.bmp,3.3.3right.bmp,,ACC034,"[2, 0, 2]","[2, 2, 2]",[],non-match,0.7113248654051871,4,-0.8706403539547735,-0.43501657093077467,1.0678502681468995,1st,2nd,4th,-1.258295533518817,-0.3194642559237085,1.2603760964981874
perc,resp,969,1,2.3.2left.bmp,2.3.2right.bmp,,ACC034,"[0, 2, 0]","[0, 2, 0]",[],match,1.0,,-0.04138098246547064,-0.5594094047005024,0.9150821200451874,2nd,2nd,4th,-0.3530837876737248,-0.3194642559237085,1.2603760964981874
perc,resp,813,1,3.3.1left.bmp,2.2.2right.bmp,,ACC034,"[2, 2, -2]","[0, 0, 0]",[],non-match,0.5,3,0.6763540698269414,-0.771242296279117,1.119214183108709,4th,1st,4th,1.2694817657098552,-1.2223869205815945,1.2603760964981874
perc,resp,1052,1,2.1.1left.bmp,2.1.1right.bmp,,ACC034,"[0, -2, -2]","[0, -2, -2]",[],match,1.0,,0.793324747101557,-0.5268456921465046,0.7820554393570656,4th,2nd,3rd,1.2694817657098552,-0.3194642559237085,0.4183163168454361
perc,resp,709,1,3.1.3left.bmp,1.3.3right.bmp,,ACC034,"[2, -2, 2]","[-2, 2, 2]",[],non-match,0.18350341907227385,1,1.3186241335361681,-0.9005662435833154,1.3404383302832685,4th,1st,4th,1.2694817657098552,-1.2223869205815945,1.2603760964981874
