mode,type,rt,acc,item_1,item_2,item_cue,subj_idx,item_1_number,item_2_number,item_cue_number,trial_type,similarity,similarity_bin,ams,pams,slps,ams_quantile,pams_quantile,slps_quantile,ams_bin,pam_bin,slp_bin
perc,resp,2122,1,1.1.2left.bmp,1.1.2right.bmp,,ACC023,"[-2, -2, 0]","[-2, -2, 0]",[],match,1.0,,2.0808928354528393,0.6321845867341513,-0.9953971031604221,4th,3rd,1st,1.3292176044341308,0.3241798519266453,-1.2264507735098988
perc,resp,1888,1,2.1.3left.bmp,2.3.3right.bmp,,ACC023,"[0, -2, 2]","[0, 2, 2]",[],non-match,0.42264973081037416,2,0.5780773206030069,-1.4416423358350985,-0.849935599280154,3rd,1st,1st,0.24956604421478282,-1.2197961505327855,-1.2264507735098988
perc,resp,1218,1,2.2.3left.bmp,3.1.3right.bmp,,ACC023,"[0, 0, 2]","[2, -2, 2]",[],non-match,0.5917517095361369,3,-0.028463597501985863,-0.0005229574153167903,-0.9076506087891785,3rd,2nd,1st,0.24956604421478282,-0.32002527274998077,-1.2264507735098988
perc,resp,1591,1,2.2.2left.bmp,2.2.2right.bmp,,ACC023,"[0, 0, 0]","[0, 0, 0]",[],match,1.0,,-0.09732628269914956,1.1333758697692424,-0.7328092162714711,2nd,4th,1st,-0.32112137634538424,1.234407665979702,-1.2264507735098988
perc,resp,1070,1,3.3.1left.bmp,1.1.2right.bmp,,ACC023,"[2, 2, -2]","[-2, -2, 0]",[],non-match,0.1339745962155613,1,0.7970794124594791,1.1915493571283926,-0.3652532939839148,4th,4th,2nd,1.3292176044341308,1.234407665979702,-0.37159670311919124
perc,resp,1439,1,3.2.1left.bmp,3.2.1right.bmp,,ACC023,"[2, 0, -2]","[2, 0, -2]",[],match,1.0,,-0.9989000698300835,-0.6526764733986256,0.07464390653268947,1st,2nd,3rd,-1.2386067833292336,-0.32002527274998077,0.26312126230420596
perc,resp,1541,1,2.3.2left.bmp,2.1.1right.bmp,,ACC023,"[0, 2, 0]","[0, -2, -2]",[],non-match,0.3545027756320971,2,-1.263472606547707,0.35852480417109633,-0.04394405935340778,1st,3rd,3rd,-1.2386067833292336,0.3241798519266453,0.26312126230420596
perc,resp,1999,1,2.2.1left.bmp,2.2.1right.bmp,,ACC023,"[0, 0, -2]","[0, 0, -2]",[],match,1.0,,-0.15334415052012454,0.7800966213854208,0.08542158078563403,2nd,4th,3rd,-0.32112137634538424,1.234407665979702,0.26312126230420596
perc,resp,2136,0,1.3.1left.bmp,1.2.3right.bmp,,ACC023,"[-2, 2, -2]","[-2, 0, 2]",[],non-match,0.3545027756320971,2,-0.5151603053923084,-0.8622644899717208,-0.005287138593079159,2nd,1st,3rd,-0.32112137634538424,-1.2197961505327855,0.26312126230420596
perc,resp,1216,1,1.3.2left.bmp,2.1.2right.bmp,,ACC023,"[-2, 2, 0]","[0, -2, 0]",[],non-match,0.3545027756320971,2,0.9749157327070034,-0.29534143799052814,0.02541266821555531,4th,2nd,3rd,1.3292176044341308,-0.32002527274998077,0.26312126230420596
perc,resp,1335,1,1.1.3left.bmp,3.2.3right.bmp,,ACC023,"[-2, -2, 2]","[2, 0, 2]",[],non-match,0.3545027756320971,2,0.3611726338972472,0.8075576748975238,-0.0230881133388504,3rd,4th,3rd,0.24956604421478282,1.234407665979702,0.26312126230420596
perc,resp,2204,1,1.1.1left.bmp,1.1.1right.bmp,,ACC023,"[-2, -2, -2]","[-2, -2, -2]",[],match,1.0,,0.20597703303531895,0.7473463286842742,-0.08923276295801368,3rd,4th,2nd,0.24956604421478282,1.234407665979702,-0.37159670311919124
perc,resp,1820,1,3.3.2left.bmp,3.3.2right.bmp,,ACC023,"[2, 2, 0]","[2, 2, 0]",[],match,1.0,,-0.850863118970855,0.4349917929970373,-0.13962946687403502,1st,3rd,2nd,-1.2386067833292336,0.3241798519266453,-0.37159670311919124
perc,resp,1352,1,3.1.2left.bmp,1.3.3right.bmp,,ACC023,"[2, -2, 0]","[-2, 2, 2]",[],non-match,0.1339745962155613,1,-0.022847425505583233,0.3423756996363149,-0.039795733717853284,3rd,3rd,3rd,0.24956604421478282,0.3241798519266453,0.26312126230420596
perc,resp,2169,0,3.2.2left.bmp,3.3.3right.bmp,,ACC023,"[2, 0, 0]","[2, 2, 2]",[],non-match,0.5917517095361369,3,0.24410498659420346,0.2591373681014835,-0.21973891453894587,3rd,3rd,2nd,0.24956604421478282,0.3241798519266453,-0.37159670311919124
perc,resp,1571,1,3.2.3left.bmp,3.2.3right.bmp,,ACC023,"[2, 0, 2]","[2, 0, 2]",[],match,1.0,,0.0797639495139488,-1.278610535940622,-0.021278971623158005,3rd,1st,3rd,0.24956604421478282,-1.2197961505327855,0.26312126230420596
perc,resp,2552,0,1.2.2left.bmp,1.2.2right.bmp,,ACC023,"[-2, 0, 0]","[-2, 0, 0]",[],match,1.0,,-0.20022754124984105,-0.4797578998587186,-0.052586016396121774,2nd,2nd,3rd,-0.32112137634538424,-0.32002527274998077,0.26312126230420596
perc,resp,1696,1,2.1.2left.bmp,2.1.2right.bmp,,ACC023,"[0, -2, 0]","[0, -2, 0]",[],match,1.0,,0.10905718055051358,0.17223830034321597,0.007980030377096018,3rd,3rd,3rd,0.24956604421478282,0.3241798519266453,0.26312126230420596
perc,resp,1296,1,2.3.1left.bmp,1.2.3right.bmp,,ACC023,"[0, 2, -2]","[-2, 0, 2]",[],non-match,0.29289321881345254,1,-0.642644954373146,0.39107978152750006,0.11098602434955471,1st,3rd,3rd,-1.2386067833292336,0.3241798519266453,0.26312126230420596
perc,resp,1509,1,1.3.3left.bmp,3.3.2right.bmp,,ACC023,"[-2, 2, 2]","[2, 2, 0]",[],non-match,0.3545027756320971,2,-0.3246622034573698,-0.3209107480937641,0.06538570254287747,2nd,2nd,3rd,-0.32112137634538424,-0.32002527274998077,0.26312126230420596
perc,resp,1742,1,3.1.1left.bmp,3.2.1right.bmp,,ACC023,"[2, -2, -2]","[2, 0, -2]",[],non-match,0.7113248654051871,4,-1.1231113505119716,-0.5636448358547899,0.11663372274129077,1st,2nd,3rd,-1.2386067833292336,-0.32002527274998077,0.26312126230420596
perc,resp,2472,1,1.2.1left.bmp,1.2.1right.bmp,,ACC023,"[-2, 0, -2]","[-2, 0, -2]",[],match,1.0,,0.48393228230484386,0.03572289328739179,0.07913793661882082,3rd,3rd,3rd,0.24956604421478282,0.3241798519266453,0.26312126230420596
perc,resp,1897,1,3.1.3left.bmp,2.3.1right.bmp,,ACC023,"[2, -2, 2]","[0, 2, -2]",[],non-match,0.1339745962155613,1,0.1677027382687057,-0.9836077928104804,0.14876498224525006,3rd,1st,3rd,0.24956604421478282,-1.2197961505327855,0.26312126230420596
perc,resp,1934,1,2.1.1left.bmp,2.1.1right.bmp,,ACC023,"[0, -2, -2]","[0, -2, -2]",[],match,1.0,,-0.23677629311617024,1.3561703235088507,-0.09287761359359764,2nd,4th,2nd,-0.32112137634538424,1.234407665979702,-0.37159670311919124
perc,resp,2042,1,1.2.3left.bmp,1.2.3right.bmp,,ACC023,"[-2, 0, 2]","[-2, 0, 2]",[],match,1.0,,-2.348113620989253,0.5804090632229648,-0.30406864101038444,1st,3rd,2nd,-1.2386067833292336,0.3241798519266453,-0.37159670311919124
perc,resp,2027,0,2.3.3left.bmp,2.3.3right.bmp,,ACC023,"[0, 2, 2]","[0, 2, 2]",[],match,1.0,,-0.36678900854340946,0.7763962648911192,-0.3515471124040814,2nd,4th,2nd,-0.32112137634538424,1.234407665979702,-0.37159670311919124
perc,resp,1559,0,1.2.1left.bmp,1.1.3right.bmp,,ACC023,"[-2, 0, -2]","[-2, -2, 2]",[],non-match,0.3545027756320971,2,-1.7885056889394442,-0.9099091933941128,-0.34883510335264895,1st,1st,2nd,-1.2386067833292336,-1.2197961505327855,-0.37159670311919124
perc,resp,1340,1,1.2.3left.bmp,1.2.3right.bmp,,ACC023,"[-2, 0, 2]","[-2, 0, 2]",[],match,1.0,,-0.02533968727546597,-0.8455456481519621,-0.3645223438561384,3rd,1st,2nd,0.24956604421478282,-1.2197961505327855,-0.37159670311919124
perc,resp,2348,0,2.3.1left.bmp,2.3.1right.bmp,,ACC023,"[0, 2, -2]","[0, 2, -2]",[],match,1.0,,-0.10335439799712581,-0.8065679007469048,-0.3764840576324473,2nd,1st,2nd,-0.32112137634538424,-1.2197961505327855,-0.37159670311919124
perc,resp,2148,1,2.1.3left.bmp,2.1.3right.bmp,,ACC023,"[0, -2, 2]","[0, -2, 2]",[],match,1.0,,-0.7539490114626721,-1.1962949872023243,-0.06266287055383625,1st,1st,3rd,-1.2386067833292336,-1.2197961505327855,0.26312126230420596
perc,resp,2385,1,3.1.1left.bmp,3.1.1right.bmp,,ACC023,"[2, -2, -2]","[2, -2, -2]",[],match,1.0,,1.6332277693537152,0.15542366098128052,-0.23841377271892455,4th,3rd,2nd,1.3292176044341308,0.3241798519266453,-0.37159670311919124
perc,resp,1781,1,2.1.1left.bmp,2.1.1right.bmp,,ACC023,"[0, -2, -2]","[0, -2, -2]",[],match,1.0,,-1.2838732893635767,1.0570775148885976,-0.5045189593067351,1st,4th,2nd,-1.2386067833292336,1.234407665979702,-0.37159670311919124
perc,resp,1231,1,1.3.1left.bmp,3.2.3right.bmp,,ACC023,"[-2, 2, -2]","[2, 0, 2]",[],non-match,0.1339745962155613,1,1.0026644288208981,-0.2722477759588844,-0.771415881716815,4th,2nd,1st,1.3292176044341308,-0.32002527274998077,-1.2264507735098988
perc,resp,1532,0,2.2.3left.bmp,2.2.3right.bmp,,ACC023,"[0, 0, 2]","[0, 0, 2]",[],match,1.0,,0.24817580584802537,-0.45530398204355327,-0.5380420111703698,3rd,2nd,2nd,0.24956604421478282,-0.32002527274998077,-0.37159670311919124
perc,resp,1325,0,1.3.2left.bmp,2.2.1right.bmp,,ACC023,"[-2, 2, 0]","[0, 0, -2]",[],non-match,0.5,3,2.311053937383212,4.787876682301263,-0.469492366672873,4th,4th,2nd,1.3292176044341308,1.234407665979702,-0.37159670311919124
perc,resp,1725,1,3.1.2left.bmp,2.3.1right.bmp,,ACC023,"[2, -2, 0]","[0, 2, -2]",[],non-match,0.29289321881345254,1,-0.437885405934046,1.0197988314994895,-0.4433474240576967,2nd,4th,2nd,-0.32112137634538424,1.234407665979702,-0.37159670311919124
perc,resp,2195,1,1.3.3left.bmp,1.3.3right.bmp,,ACC023,"[-2, 2, 2]","[-2, 2, 2]",[],match,1.0,,-0.31866860121909824,-0.8693232755356787,-0.8723696173565182,2nd,1st,1st,-0.32112137634538424,-1.2197961505327855,-1.2264507735098988
perc,resp,1669,1,3.1.3left.bmp,3.1.3right.bmp,,ACC023,"[2, -2, 2]","[2, -2, 2]",[],match,1.0,,-0.19019290976443973,-0.24448210980310126,-0.8695063112235027,2nd,2nd,1st,-0.32112137634538424,-0.32002527274998077,-1.2264507735098988
perc,resp,1106,1,3.3.2left.bmp,3.3.2right.bmp,,ACC023,"[2, 2, 0]","[2, 2, 0]",[],match,1.0,,-0.11131915055083134,0.8829003213377592,-0.7554418579891519,2nd,4th,1st,-0.32112137634538424,1.234407665979702,-1.2264507735098988
perc,resp,2245,0,2.2.2left.bmp,3.2.2right.bmp,,ACC023,"[0, 0, 0]","[2, 0, 0]",[],non-match,0.7113248654051871,4,-0.20589461532396866,0.03345079532008038,-0.8264570294137306,2nd,2nd,1st,-0.32112137634538424,-0.32002527274998077,-1.2264507735098988
perc,resp,2395,0,1.1.3left.bmp,1.1.2right.bmp,,ACC023,"[-2, -2, 2]","[-2, -2, 0]",[],non-match,0.7113248654051871,4,-1.2319514928491757,-0.5215691931329909,-0.9579717563839788,1st,2nd,1st,-1.2386067833292336,-0.32002527274998077,-1.2264507735098988
perc,resp,1145,1,3.3.1left.bmp,1.3.1right.bmp,,ACC023,"[2, 2, -2]","[-2, 2, -2]",[],non-match,0.42264973081037416,2,1.164871059829385,1.0497263607242684,-0.8031895099027342,4th,4th,1st,1.3292176044341308,1.234407665979702,-1.2264507735098988
perc,resp,1462,1,2.2.1left.bmp,1.2.3right.bmp,,ACC023,"[0, 0, -2]","[-2, 0, 2]",[],non-match,0.3545027756320971,2,0.3274716069956237,0.031119199975088416,-0.6857609989809036,3rd,2nd,1st,0.24956604421478282,-0.32002527274998077,-1.2264507735098988
perc,resp,1634,0,1.1.1left.bmp,1.1.1right.bmp,,ACC023,"[-2, -2, -2]","[-2, -2, -2]",[],match,1.0,,-2.2758586846149926,-0.14954385066827547,-0.6302730941593214,1st,2nd,1st,-1.2386067833292336,-0.32002527274998077,-1.2264507735098988
perc,resp,1951,1,2.3.3left.bmp,1.2.2right.bmp,,ACC023,"[0, 2, 2]","[-2, 0, 0]",[],non-match,0.5,3,-0.31378133504544653,0.3341484526130566,-0.32305310966725265,2nd,3rd,2nd,-0.32112137634538424,0.3241798519266453,-0.37159670311919124
perc,resp,1535,1,3.3.3left.bmp,2.2.3right.bmp,,ACC023,"[2, 2, 2]","[0, 0, 2]",[],non-match,0.5917517095361369,3,-1.5803562371683424,0.8137985506668196,-0.17894225611911138,1st,4th,2nd,-1.2386067833292336,1.234407665979702,-0.37159670311919124
perc,resp,1536,1,1.1.2left.bmp,1.1.2right.bmp,,ACC023,"[-2, -2, 0]","[-2, -2, 0]",[],match,1.0,,-0.7482286617991424,-0.5509209559739341,-0.29626447532866,1st,2nd,2nd,-1.2386067833292336,-0.32002527274998077,-0.37159670311919124
perc,resp,2193,1,3.2.2left.bmp,3.2.2right.bmp,,ACC023,"[2, 0, 0]","[2, 0, 0]",[],match,1.0,,-1.5117079883383526,-0.8241920098348147,-0.3978679490067837,1st,1st,2nd,-1.2386067833292336,-1.2197961505327855,-0.37159670311919124
perc,resp,1736,1,1.2.2left.bmp,1.2.2right.bmp,,ACC023,"[-2, 0, 0]","[-2, 0, 0]",[],match,1.0,,-0.791515688499533,-0.7611472918779485,-0.4714351992189359,1st,1st,2nd,-1.2386067833292336,-1.2197961505327855,-0.37159670311919124
perc,resp,1822,0,2.1.2left.bmp,2.1.2right.bmp,,ACC023,"[0, -2, 0]","[0, -2, 0]",[],match,1.0,,1.0155520589563873,1.9718024149379405,-0.30885305544966657,4th,4th,2nd,1.3292176044341308,1.234407665979702,-0.37159670311919124
perc,resp,1291,1,2.3.2left.bmp,1.1.1right.bmp,,ACC023,"[0, 2, 0]","[-2, -2, -2]",[],non-match,0.29289321881345254,1,0.12601151901599572,0.22206865339597034,-0.31959759918649655,3rd,3rd,2nd,0.24956604421478282,0.3241798519266453,-0.37159670311919124
perc,resp,1352,1,3.2.3left.bmp,3.2.3right.bmp,,ACC023,"[2, 0, 2]","[2, 0, 2]",[],match,1.0,,-0.39517600999812064,-0.13249481146180636,0.15731244031790004,2nd,2nd,3rd,-0.32112137634538424,-0.32002527274998077,0.26312126230420596
perc,resp,1837,1,3.3.3left.bmp,3.3.3right.bmp,,ACC023,"[2, 2, 2]","[2, 2, 2]",[],match,1.0,,-0.32993941711434155,0.9183108781487642,0.03268562296080753,2nd,4th,3rd,-0.32112137634538424,1.234407665979702,0.26312126230420596
perc,resp,1147,1,3.1.2left.bmp,1.3.2right.bmp,,ACC023,"[2, -2, 0]","[-2, 2, 0]",[],non-match,0.18350341907227385,1,1.50262610707823,-0.5080020497657175,0.01659528078692058,4th,2nd,3rd,1.3292176044341308,-0.32002527274998077,0.26312126230420596
perc,resp,984,1,3.1.1left.bmp,2.3.2right.bmp,,ACC023,"[2, -2, -2]","[0, 2, 0]",[],non-match,0.29289321881345254,1,-0.5331843046547818,0.21340022568246883,-0.14362021408902703,2nd,3rd,2nd,-0.32112137634538424,0.3241798519266453,-0.37159670311919124
perc,resp,901,1,1.2.3left.bmp,2.2.1right.bmp,,ACC023,"[-2, 0, 2]","[0, 0, -2]",[],non-match,0.3545027756320971,2,0.47945004265324753,-0.14826105398766504,-0.21574458768693996,3rd,2nd,2nd,0.24956604421478282,-0.32002527274998077,-0.37159670311919124
perc,resp,827,1,2.2.3left.bmp,1.1.3right.bmp,,ACC023,"[0, 0, 2]","[-2, -2, 2]",[],non-match,0.5917517095361369,3,-0.5582312644069877,-0.7039084303674771,-0.5549566702982212,2nd,1st,2nd,-0.32112137634538424,-1.2197961505327855,-0.37159670311919124
perc,resp,1972,1,2.1.3left.bmp,2.1.3right.bmp,,ACC023,"[0, -2, 2]","[0, -2, 2]",[],match,1.0,,-2.0397057209368885,-1.97401657859373,-0.4672098528284012,1st,1st,2nd,-1.2386067833292336,-1.2197961505327855,-0.37159670311919124
perc,resp,1341,1,2.2.2left.bmp,3.3.2right.bmp,,ACC023,"[0, 0, 0]","[2, 2, 0]",[],non-match,0.5917517095361369,3,-1.476903367353909,0.24900149020698634,-0.4938279430701136,1st,3rd,2nd,-1.2386067833292336,0.3241798519266453,-0.37159670311919124
perc,resp,1001,1,1.3.3left.bmp,1.3.3right.bmp,,ACC023,"[-2, 2, 2]","[-2, 2, 2]",[],match,1.0,,-0.8728914066836188,-0.6285075857944133,-0.45306307065093787,1st,2nd,2nd,-1.2386067833292336,-0.32002527274998077,-0.37159670311919124
perc,resp,1150,1,3.2.2left.bmp,3.2.2right.bmp,,ACC023,"[2, 0, 0]","[2, 0, 0]",[],match,1.0,,0.43927862817427893,-1.4093616180167918,-0.3189774753951482,3rd,1st,2nd,0.24956604421478282,-1.2197961505327855,-0.37159670311919124
perc,resp,1621,1,2.3.1left.bmp,3.3.1right.bmp,,ACC023,"[0, 2, -2]","[2, 2, -2]",[],non-match,0.7113248654051871,4,1.167064607517805,0.2236227645480593,-0.4674110331936453,4th,3rd,2nd,1.3292176044341308,0.3241798519266453,-0.37159670311919124
perc,resp,1212,1,3.1.3left.bmp,1.3.2right.bmp,,ACC023,"[2, -2, 2]","[-2, 2, 0]",[],non-match,0.1339745962155613,1,0.34916286839363964,-0.14256393228058048,-0.32746788324188864,3rd,2nd,2nd,0.24956604421478282,-0.32002527274998077,-0.37159670311919124
perc,resp,919,1,3.2.1left.bmp,2.3.3right.bmp,,ACC023,"[2, 0, -2]","[0, 2, 2]",[],non-match,0.29289321881345254,1,1.497958774240158,1.117036191463717,-0.2572489762585618,4th,4th,2nd,1.3292176044341308,1.234407665979702,-0.37159670311919124
perc,resp,1832,1,1.3.1left.bmp,1.3.1right.bmp,,ACC023,"[-2, 2, -2]","[-2, 2, -2]",[],match,1.0,,-0.9004607504200625,-0.06747224101104168,-0.38533207298200284,1st,2nd,2nd,-1.2386067833292336,-0.32002527274998077,-0.37159670311919124
perc,resp,1826,0,2.1.2left.bmp,3.1.2right.bmp,,ACC023,"[0, -2, 0]","[2, -2, 0]",[],non-match,0.7113248654051871,4,-1.2023002160371583,0.6817337671276801,-0.260307911825025,1st,3rd,2nd,-1.2386067833292336,0.3241798519266453,-0.37159670311919124
perc,resp,2021,1,2.2.3left.bmp,2.2.3right.bmp,,ACC023,"[0, 0, 2]","[0, 0, 2]",[],match,1.0,,-2.50117154052717,-0.2607237955793352,-0.44231562346781367,1st,2nd,2nd,-1.2386067833292336,-0.32002527274998077,-0.37159670311919124
perc,resp,1393,0,1.2.1left.bmp,1.2.1right.bmp,,ACC023,"[-2, 0, -2]","[-2, 0, -2]",[],match,1.0,,-0.521838551402398,-0.5372973423355435,-0.4321397798082329,2nd,2nd,2nd,-0.32112137634538424,-0.32002527274998077,-0.37159670311919124
perc,resp,1311,1,3.1.1left.bmp,3.1.1right.bmp,,ACC023,"[2, -2, -2]","[2, -2, -2]",[],match,1.0,,-1.4698824096783252,-0.0030183379773924264,-0.484199164354975,1st,2nd,2nd,-1.2386067833292336,-0.32002527274998077,-0.37159670311919124
perc,resp,1190,1,2.2.1left.bmp,1.1.2right.bmp,,ACC023,"[0, 0, -2]","[-2, -2, 0]",[],non-match,0.5,3,2.1903748369804945,0.7818239473254814,-0.4245794536896346,4th,4th,2nd,1.3292176044341308,1.234407665979702,-0.37159670311919124
perc,resp,1705,1,2.1.1left.bmp,1.1.1right.bmp,,ACC023,"[0, -2, -2]","[-2, -2, -2]",[],non-match,0.7113248654051871,4,-0.5896016619439098,0.7201726091987386,-0.2662146027792442,1st,4th,2nd,-1.2386067833292336,1.234407665979702,-0.37159670311919124
perc,resp,1527,1,2.3.3left.bmp,2.3.3right.bmp,,ACC023,"[0, 2, 2]","[0, 2, 2]",[],match,1.0,,1.1336570121467182,0.714709887336188,-0.3394561322680822,4th,4th,2nd,1.3292176044341308,1.234407665979702,-0.37159670311919124
perc,resp,1186,1,1.1.3left.bmp,1.3.1right.bmp,,ACC023,"[-2, -2, 2]","[-2, 2, -2]",[],non-match,0.18350341907227385,1,0.7123904912699827,1.081205107937341,-0.3867391490650418,4th,4th,2nd,1.3292176044341308,1.234407665979702,-0.37159670311919124
perc,resp,1467,1,1.1.2left.bmp,1.1.2right.bmp,,ACC023,"[-2, -2, 0]","[-2, -2, 0]",[],match,1.0,,-1.5894717387349933,0.8531659911619831,-0.5232545831719095,1st,4th,2nd,-1.2386067833292336,1.234407665979702,-0.37159670311919124
perc,resp,1196,1,3.1.2left.bmp,3.1.2right.bmp,,ACC023,"[2, -2, 0]","[2, -2, 0]",[],match,1.0,,-0.054095101730558655,0.6844072647830477,-0.0549110911423931,3rd,4th,3rd,0.24956604421478282,1.234407665979702,0.26312126230420596
perc,resp,1107,1,1.2.2left.bmp,2.3.1right.bmp,,ACC023,"[-2, 0, 0]","[0, 2, -2]",[],non-match,0.5,3,0.40951301886267,-1.0859471466707977,0.13257753777445125,3rd,1st,3rd,0.24956604421478282,-1.2197961505327855,0.26312126230420596
perc,resp,1306,1,3.2.3left.bmp,3.2.3right.bmp,,ACC023,"[2, 0, 2]","[2, 0, 2]",[],match,1.0,,-0.2911962575177168,-0.5163924926578786,0.3265986061446957,2nd,2nd,3rd,-0.32112137634538424,-0.32002527274998077,0.26312126230420596
perc,resp,1447,1,3.3.3left.bmp,1.3.3right.bmp,,ACC023,"[2, 2, 2]","[-2, 2, 2]",[],non-match,0.42264973081037416,2,-0.25922570259685546,-0.5520855883443461,0.020032718902164487,2nd,2nd,3rd,-0.32112137634538424,-0.32002527274998077,0.26312126230420596
perc,resp,1558,0,1.2.3left.bmp,1.2.1right.bmp,,ACC023,"[-2, 0, 2]","[-2, 0, -2]",[],non-match,0.42264973081037416,2,-0.923200730040527,-0.5934009317304156,-0.05638678159490702,1st,2nd,3rd,-1.2386067833292336,-0.32002527274998077,0.26312126230420596
perc,resp,1382,1,1.1.1left.bmp,3.1.2right.bmp,,ACC023,"[-2, -2, -2]","[2, -2, 0]",[],non-match,0.3545027756320971,2,0.4225672251532612,0.19929500742636053,0.10493741947356659,3rd,3rd,3rd,0.24956604421478282,0.3241798519266453,0.26312126230420596
perc,resp,1583,1,1.3.2left.bmp,1.3.2right.bmp,,ACC023,"[-2, 2, 0]","[-2, 2, 0]",[],match,1.0,,-0.9576100273206244,-0.9928992419164755,-0.03634275067062246,1st,1st,3rd,-1.2386067833292336,-1.2197961505327855,0.26312126230420596
perc,resp,1906,1,3.3.1left.bmp,3.3.1right.bmp,,ACC023,"[2, 2, -2]","[2, 2, -2]",[],match,1.0,,-0.009930708514854496,0.11245535668011267,-0.013313394461147748,3rd,3rd,3rd,0.24956604421478282,0.3241798519266453,0.26312126230420596
perc,resp,1460,1,3.3.2left.bmp,3.3.2right.bmp,,ACC023,"[2, 2, 0]","[2, 2, 0]",[],match,1.0,,-1.439967482706721,-1.316070302418198,0.3120446335775564,1st,1st,3rd,-1.2386067833292336,-1.2197961505327855,0.26312126230420596
perc,resp,1137,1,2.3.2left.bmp,1.1.2right.bmp,,ACC023,"[0, 2, 0]","[-2, -2, 0]",[],non-match,0.3545027756320971,2,-0.7636066553588418,0.9070910817960358,0.3845022131254628,1st,4th,3rd,-1.2386067833292336,1.234407665979702,0.26312126230420596
perc,resp,1539,1,2.1.3left.bmp,3.2.1right.bmp,,ACC023,"[0, -2, 2]","[2, 0, -2]",[],non-match,0.29289321881345254,1,0.49313218830230127,-0.09487837798814036,0.4109415518002379,3rd,2nd,3rd,0.24956604421478282,-0.32002527274998077,0.26312126230420596
perc,resp,1430,1,2.2.2left.bmp,2.2.2right.bmp,,ACC023,"[0, 0, 0]","[0, 0, 0]",[],match,1.0,,-1.1326830213244892,-1.0599553616127695,0.3123250566000791,1st,1st,3rd,-1.2386067833292336,-1.2197961505327855,0.26312126230420596
perc,resp,1735,1,3.3.3left.bmp,3.2.2right.bmp,,ACC023,"[2, 2, 2]","[2, 0, 0]",[],non-match,0.5917517095361369,3,0.2705808698599899,0.9577839191224597,0.4413857175405111,3rd,4th,3rd,0.24956604421478282,1.234407665979702,0.26312126230420596
perc,resp,2241,0,2.3.3left.bmp,2.3.3right.bmp,,ACC023,"[0, 2, 2]","[0, 2, 2]",[],match,1.0,,-1.382740228251415,-2.9100046788030602,0.8064596097450962,1st,1st,3rd,-1.2386067833292336,-1.2197961505327855,0.26312126230420596
perc,resp,2209,1,1.3.1left.bmp,1.3.1right.bmp,,ACC023,"[-2, 2, -2]","[-2, 2, -2]",[],match,1.0,,0.07558179762179457,-0.614559160942883,1.1394856217330402,3rd,2nd,4th,0.24956604421478282,-0.32002527274998077,1.3537946877634977
perc,resp,1111,1,2.1.1left.bmp,1.1.3right.bmp,,ACC023,"[0, -2, -2]","[-2, -2, 2]",[],non-match,0.3545027756320971,2,0.8213361247808528,0.38755596160182487,1.3725254406635574,4th,3rd,4th,1.3292176044341308,0.3241798519266453,1.3537946877634977
perc,resp,1300,1,1.2.2left.bmp,2.2.1right.bmp,,ACC023,"[-2, 0, 0]","[0, 0, -2]",[],non-match,0.5917517095361369,3,-0.331577986498883,-1.6329388978066528,1.3746294193602724,2nd,1st,4th,-0.32112137634538424,-1.2197961505327855,1.3537946877634977
perc,resp,1311,1,1.3.2left.bmp,2.1.2right.bmp,,ACC023,"[-2, 2, 0]","[0, -2, 0]",[],non-match,0.3545027756320971,2,0.7794816179068195,-0.6659924740753271,1.5008656807055964,4th,1st,4th,1.3292176044341308,-1.2197961505327855,1.3537946877634977
perc,resp,1402,1,1.3.3left.bmp,1.3.3right.bmp,,ACC023,"[-2, 2, 2]","[-2, 2, 2]",[],match,1.0,,-0.6541095170509509,-0.513570747146551,1.2126907203765713,1st,2nd,4th,-1.2386067833292336,-0.32002527274998077,1.3537946877634977
perc,resp,1171,1,3.1.1left.bmp,3.1.1right.bmp,,ACC023,"[2, -2, -2]","[2, -2, -2]",[],match,1.0,,-0.2474292499624292,-0.252238923035519,1.1404589067320563,2nd,2nd,4th,-0.32112137634538424,-0.32002527274998077,1.3537946877634977
perc,resp,1492,0,2.2.1left.bmp,2.2.2right.bmp,,ACC023,"[0, 0, -2]","[0, 0, 0]",[],non-match,0.7113248654051871,4,-0.16652408663189341,-0.27798025855680136,1.1823171636011407,2nd,2nd,4th,-0.32112137634538424,-0.32002527274998077,1.3537946877634977
perc,resp,1635,1,2.1.3left.bmp,3.1.2right.bmp,,ACC023,"[0, -2, 2]","[2, -2, 0]",[],non-match,0.5917517095361369,3,-0.6135250696168801,0.742544158977897,1.0884993398822314,1st,4th,4th,-1.2386067833292336,1.234407665979702,1.3537946877634977
perc,resp,1477,1,2.2.3left.bmp,2.3.2right.bmp,,ACC023,"[0, 0, 2]","[0, 2, 0]",[],non-match,0.5917517095361369,3,-0.9424652909078521,-0.8871212021540176,0.7502010999650003,1st,1st,3rd,-1.2386067833292336,-1.2197961505327855,0.26312126230420596
perc,resp,1690,1,3.3.1left.bmp,3.3.1right.bmp,,ACC023,"[2, 2, -2]","[2, 2, -2]",[],match,1.0,,-2.0460439482109942,-2.085376522493976,0.8212542065236296,1st,1st,4th,-1.2386067833292336,-1.2197961505327855,1.3537946877634977
perc,resp,1603,1,2.3.1left.bmp,2.3.1right.bmp,,ACC023,"[0, 2, -2]","[0, 2, -2]",[],match,1.0,,0.3630412185764084,1.2673313894257758,0.9072419562526398,3rd,4th,4th,0.24956604421478282,1.234407665979702,1.3537946877634977
perc,resp,1450,1,3.1.3left.bmp,3.1.3right.bmp,,ACC023,"[2, -2, 2]","[2, -2, 2]",[],match,1.0,,-1.0918878520419366,0.21484801306507748,0.7650938271268116,1st,3rd,3rd,-1.2386067833292336,0.3241798519266453,0.26312126230420596
perc,resp,1169,1,2.3.2left.bmp,2.3.3right.bmp,,ACC023,"[0, 2, 0]","[0, 2, 2]",[],non-match,0.7113248654051871,4,1.8889379809743305,-0.052465882598331175,0.7659626185277436,4th,2nd,3rd,1.3292176044341308,-0.32002527274998077,0.26312126230420596
perc,resp,1340,1,1.1.3left.bmp,1.2.1right.bmp,,ACC023,"[-2, -2, 2]","[-2, 0, -2]",[],non-match,0.3545027756320971,2,0.8400776813348415,-0.7530378475194144,0.8351956784901567,4th,1st,4th,1.3292176044341308,-1.2197961505327855,1.3537946877634977
perc,resp,1943,0,3.2.3left.bmp,3.2.3right.bmp,,ACC023,"[2, 0, 2]","[2, 0, 2]",[],match,1.0,,-1.2162110807716937,0.6640798959566532,0.7170274336545764,1st,3rd,3rd,-1.2386067833292336,0.3241798519266453,0.26312126230420596
perc,resp,1043,1,1.2.3left.bmp,2.2.3right.bmp,,ACC023,"[-2, 0, 2]","[0, 0, 2]",[],non-match,0.7113248654051871,4,-0.4840700091742739,0.8882544959808758,0.6131486745203405,2nd,4th,3rd,-0.32112137634538424,1.234407665979702,0.26312126230420596
perc,resp,2139,1,2.2.2left.bmp,3.3.1right.bmp,,ACC023,"[0, 0, 0]","[2, 2, -2]",[],non-match,0.5,3,0.26029000400355845,1.353767015205708,0.6427481598782511,3rd,4th,3rd,0.24956604421478282,1.234407665979702,0.26312126230420596
perc,resp,1299,1,1.2.1left.bmp,2.2.1right.bmp,,ACC023,"[-2, 0, -2]","[0, 0, -2]",[],non-match,0.7113248654051871,4,-0.36139383262834374,0.6584403696399396,0.8487187374245221,2nd,3rd,4th,-0.32112137634538424,0.3241798519266453,1.3537946877634977
perc,resp,1110,1,3.3.2left.bmp,2.1.1right.bmp,,ACC023,"[2, 2, 0]","[0, -2, -2]",[],non-match,0.29289321881345254,1,0.6040600863651377,-1.088721650567744,0.6586422947708352,3rd,1st,3rd,0.24956604421478282,-1.2197961505327855,0.26312126230420596
perc,resp,1110,0,3.2.1left.bmp,3.2.1right.bmp,,ACC023,"[2, 0, -2]","[2, 0, -2]",[],match,1.0,,-1.116415035042502,0.44234584032516167,0.5799647270477378,1st,3rd,3rd,-1.2386067833292336,0.3241798519266453,0.26312126230420596
perc,resp,1036,1,3.2.2left.bmp,3.2.2right.bmp,,ACC023,"[2, 0, 0]","[2, 0, 0]",[],match,1.0,,-0.5386047112596326,-0.8549288882370767,0.4426021025502651,2nd,1st,3rd,-0.32112137634538424,-1.2197961505327855,0.26312126230420596
perc,resp,1255,1,3.1.2left.bmp,3.1.3right.bmp,,ACC023,"[2, -2, 0]","[2, -2, 2]",[],non-match,0.7113248654051871,4,0.8756039940767254,0.2447994376797223,0.29631000515100026,4th,3rd,3rd,1.3292176044341308,0.3241798519266453,0.26312126230420596
perc,resp,974,0,1.1.2left.bmp,1.1.2right.bmp,,ACC023,"[-2, -2, 0]","[-2, -2, 0]",[],match,1.0,,-0.20525515657632265,1.3713663448814812,0.37458376127376375,2nd,4th,3rd,-0.32112137634538424,1.234407665979702,0.26312126230420596
perc,resp,2009,1,2.1.2left.bmp,2.1.2right.bmp,,ACC023,"[0, -2, 0]","[0, -2, 0]",[],match,1.0,,-2.0986957794072154,-0.7991786264707164,0.09383952184299604,1st,1st,3rd,-1.2386067833292336,-1.2197961505327855,0.26312126230420596
perc,resp,1249,1,1.1.1left.bmp,3.2.1right.bmp,,ACC023,"[-2, -2, -2]","[2, 0, -2]",[],non-match,0.3545027756320971,2,1.6626118840610766,0.23229293351754865,0.36790497633706776,4th,3rd,3rd,1.3292176044341308,0.3241798519266453,0.26312126230420596
perc,resp,1572,1,1.2.3left.bmp,1.2.3right.bmp,,ACC023,"[-2, 0, 2]","[-2, 0, 2]",[],match,1.0,,-1.1461321867596557,-0.011201410675663914,0.33739684286086286,1st,2nd,3rd,-1.2386067833292336,-0.32002527274998077,0.26312126230420596
perc,resp,1251,1,1.1.3left.bmp,1.1.3right.bmp,,ACC023,"[-2, -2, 2]","[-2, -2, 2]",[],match,1.0,,0.017748723189574236,-0.7596295729760079,0.2484081572203167,3rd,1st,3rd,0.24956604421478282,-1.2197961505327855,0.26312126230420596
perc,resp,1320,1,2.1.2left.bmp,2.1.2right.bmp,,ACC023,"[0, -2, 0]","[0, -2, 0]",[],match,1.0,,-0.27435738701198886,-0.6488297710356744,0.11162397889454796,2nd,2nd,3rd,-0.32112137634538424,-0.32002527274998077,0.26312126230420596
perc,resp,1106,1,1.1.2left.bmp,3.2.2right.bmp,,ACC023,"[-2, -2, 0]","[2, 0, 0]",[],non-match,0.3545027756320971,2,-0.14218692680383505,-0.4416721443191883,0.048993708726189175,2nd,2nd,3rd,-0.32112137634538424,-0.32002527274998077,0.26312126230420596
perc,resp,1302,1,1.3.3left.bmp,1.3.3right.bmp,,ACC023,"[-2, 2, 2]","[-2, 2, 2]",[],match,1.0,,-0.6066258262365198,-0.7965128841016335,0.11125446560285308,1st,1st,3rd,-1.2386067833292336,-1.2197961505327855,0.26312126230420596
perc,resp,1286,0,1.2.1left.bmp,1.3.2right.bmp,,ACC023,"[-2, 0, -2]","[-2, 2, 0]",[],non-match,0.5917517095361369,3,-0.71310063129792,-0.0833828738411328,-0.015777992398153716,1st,2nd,3rd,-1.2386067833292336,-0.32002527274998077,0.26312126230420596
perc,resp,1669,1,2.1.3left.bmp,2.1.3right.bmp,,ACC023,"[0, -2, 2]","[0, -2, 2]",[],match,1.0,,-1.1100315894662993,-0.3931767452610226,0.037776488379016045,1st,2nd,3rd,-1.2386067833292336,-0.32002527274998077,0.26312126230420596
perc,resp,1237,1,2.1.1left.bmp,1.1.1right.bmp,,ACC023,"[0, -2, -2]","[-2, -2, -2]",[],non-match,0.7113248654051871,4,1.0366610448029598,0.9705649523825509,-0.2866304541789349,4th,4th,2nd,1.3292176044341308,1.234407665979702,-0.37159670311919124
perc,resp,1428,1,2.3.2left.bmp,2.3.2right.bmp,,ACC023,"[0, 2, 0]","[0, 2, 0]",[],match,1.0,,-0.20770939108835765,0.06900416191065208,-0.5474689570786092,2nd,3rd,2nd,-0.32112137634538424,0.3241798519266453,-0.37159670311919124
perc,resp,1067,1,2.2.3left.bmp,3.1.1right.bmp,,ACC023,"[0, 0, 2]","[2, -2, -2]",[],non-match,0.29289321881345254,1,1.7420321663178648,1.1783464041481406,-0.4707642587784388,4th,4th,2nd,1.3292176044341308,1.234407665979702,-0.37159670311919124
perc,resp,1568,1,3.3.3left.bmp,3.3.3right.bmp,,ACC023,"[2, 2, 2]","[2, 2, 2]",[],match,1.0,,-1.3292752485125832,-1.8609296720731814,-0.2607329440165789,1st,1st,2nd,-1.2386067833292336,-1.2197961505327855,-0.37159670311919124
perc,resp,1055,1,3.1.3left.bmp,1.1.3right.bmp,,ACC023,"[2, -2, 2]","[-2, -2, 2]",[],non-match,0.42264973081037416,2,-1.0847651955345914,-1.5690844093281189,-0.0805736200651658,1st,1st,3rd,-1.2386067833292336,-1.2197961505327855,0.26312126230420596
perc,resp,970,0,1.2.2left.bmp,1.3.3right.bmp,,ACC023,"[-2, 0, 0]","[-2, 2, 2]",[],non-match,0.5917517095361369,3,0.011853508925022217,-1.291447648526376,-0.5232696832633208,3rd,1st,2nd,0.24956604421478282,-1.2197961505327855,-0.37159670311919124
perc,resp,1228,1,2.3.1left.bmp,2.3.1right.bmp,,ACC023,"[0, 2, -2]","[0, 2, -2]",[],match,1.0,,-0.854153460589464,-1.1068306056883643,-0.7217074335468873,1st,1st,1st,-1.2386067833292336,-1.2197961505327855,-1.2264507735098988
perc,resp,995,0,1.1.2left.bmp,1.1.2right.bmp,,ACC023,"[-2, -2, 0]","[-2, -2, 0]",[],match,1.0,,0.3561413842509398,-0.46641941019121874,-1.2205943348466715,3rd,2nd,1st,0.24956604421478282,-0.32002527274998077,-1.2264507735098988
perc,resp,2210,0,1.2.1left.bmp,1.2.1right.bmp,,ACC023,"[-2, 0, -2]","[-2, 0, -2]",[],match,1.0,,-0.08177998473156783,-0.5098697410298239,-0.8540301741959415,3rd,2nd,1st,0.24956604421478282,-0.32002527274998077,-1.2264507735098988
perc,resp,1272,1,3.3.2left.bmp,3.3.2right.bmp,,ACC023,"[2, 2, 0]","[2, 2, 0]",[],match,1.0,,-1.1528281656979746,-1.1343741679457437,-0.6990495329233225,1st,1st,1st,-1.2386067833292336,-1.2197961505327855,-1.2264507735098988
perc,resp,1220,1,1.2.3left.bmp,1.2.3right.bmp,,ACC023,"[-2, 0, 2]","[-2, 0, 2]",[],match,1.0,,0.37626505716613595,0.06185895814686884,-0.7486526640205934,3rd,3rd,1st,0.24956604421478282,0.3241798519266453,-1.2264507735098988
perc,resp,2015,1,2.1.1left.bmp,2.1.1right.bmp,,ACC023,"[0, -2, -2]","[0, -2, -2]",[],match,1.0,,1.9537212723248056,0.9881978213275076,-0.8889400856265975,4th,4th,1st,1.3292176044341308,1.234407665979702,-1.2264507735098988
perc,resp,1751,1,2.1.2left.bmp,2.1.2right.bmp,,ACC023,"[0, -2, 0]","[0, -2, 0]",[],match,1.0,,1.1544083535028355,-0.06280634467713721,-0.8419765083088573,4th,2nd,1st,1.3292176044341308,-0.32002527274998077,-1.2264507735098988
perc,resp,1432,1,2.2.2left.bmp,1.2.2right.bmp,,ACC023,"[0, 0, 0]","[-2, 0, 0]",[],non-match,0.7113248654051871,4,1.9029502655481942,1.6642112055542728,-1.0634502866209927,4th,4th,1st,1.3292176044341308,1.234407665979702,-1.2264507735098988
perc,resp,1374,1,2.2.1left.bmp,3.2.3right.bmp,,ACC023,"[0, 0, -2]","[2, 0, 2]",[],non-match,0.3545027756320971,2,-0.4586960337497464,-0.9055563606554251,-0.8126862313688862,2nd,1st,1st,-0.32112137634538424,-1.2197961505327855,-1.2264507735098988
perc,resp,1111,1,3.1.1left.bmp,1.1.1right.bmp,,ACC023,"[2, -2, -2]","[-2, -2, -2]",[],non-match,0.42264973081037416,2,1.364231351609751,0.09605170730844477,-0.5962675217682984,4th,3rd,2nd,1.3292176044341308,0.3241798519266453,-0.37159670311919124
perc,resp,1442,0,2.3.3left.bmp,2.3.3right.bmp,,ACC023,"[0, 2, 2]","[0, 2, 2]",[],match,1.0,,1.1166550537634383,-0.29202517577861864,-0.6229198658645029,4th,2nd,1st,1.3292176044341308,-0.32002527274998077,-1.2264507735098988
perc,resp,1193,1,3.3.1left.bmp,1.2.3right.bmp,,ACC023,"[2, 2, -2]","[-2, 0, 2]",[],non-match,0.1339745962155613,1,0.8692563572361025,-0.7758350272334152,-0.7761256698923384,4th,1st,1st,1.3292176044341308,-1.2197961505327855,-1.2264507735098988
perc,resp,870,1,1.3.3left.bmp,2.2.2right.bmp,,ACC023,"[-2, 2, 2]","[0, 0, 0]",[],non-match,0.5,3,1.5948424335970413,0.23131849987812964,-0.9291664267449301,4th,3rd,1st,1.3292176044341308,0.3241798519266453,-1.2264507735098988
perc,resp,1207,1,1.3.1left.bmp,1.1.2right.bmp,,ACC023,"[-2, 2, -2]","[-2, -2, 0]",[],non-match,0.3545027756320971,2,-0.9566037938551302,-1.523825779332444,-1.2901270572916066,1st,1st,1st,-1.2386067833292336,-1.2197961505327855,-1.2264507735098988
perc,resp,1146,1,3.1.3left.bmp,1.2.2right.bmp,,ACC023,"[2, -2, 2]","[-2, 0, 0]",[],non-match,0.29289321881345254,1,-0.44190006281579214,0.6836105731971697,-1.356214209336808,2nd,4th,1st,-0.32112137634538424,1.234407665979702,-1.2264507735098988
perc,resp,1196,1,1.1.1left.bmp,1.1.1right.bmp,,ACC023,"[-2, -2, -2]","[-2, -2, -2]",[],match,1.0,,1.3374296520796407,0.22890316351439358,-1.1428766997598647,4th,3rd,1st,1.3292176044341308,0.3241798519266453,-1.2264507735098988
perc,resp,912,1,3.2.3left.bmp,1.3.2right.bmp,,ACC023,"[2, 0, 2]","[-2, 2, 0]",[],non-match,0.29289321881345254,1,1.5204341666689767,-0.6410911472311928,-1.1830075031420024,4th,2nd,1st,1.3292176044341308,-0.32002527274998077,-1.2264507735098988
perc,resp,1062,1,3.3.3left.bmp,2.1.3right.bmp,,ACC023,"[2, 2, 2]","[0, -2, 2]",[],non-match,0.3545027756320971,2,0.39094628782471547,1.731531162367004,-1.279625579198565,3rd,4th,1st,0.24956604421478282,1.234407665979702,-1.2264507735098988
perc,resp,969,1,1.1.3left.bmp,3.3.2right.bmp,,ACC023,"[-2, -2, 2]","[2, 2, 0]",[],non-match,0.1339745962155613,1,1.2674931749545206,0.5994695477696236,-1.3116860388224876,4th,3rd,1st,1.3292176044341308,0.3241798519266453,-1.2264507735098988
perc,resp,1580,1,3.2.1left.bmp,3.3.1right.bmp,,ACC023,"[2, 0, -2]","[2, 2, -2]",[],non-match,0.7113248654051871,4,-0.28261044335500474,-0.5495841535691431,-1.5362925436484887,2nd,2nd,1st,-0.32112137634538424,-0.32002527274998077,-1.2264507735098988
perc,resp,1311,0,2.3.2left.bmp,2.3.2right.bmp,,ACC023,"[0, 2, 0]","[0, 2, 0]",[],match,1.0,,1.2181210085189291,0.6831630971968163,-1.7619995688163472,4th,4th,1st,1.3292176044341308,1.234407665979702,-1.2264507735098988
perc,resp,1069,1,1.3.2left.bmp,1.3.2right.bmp,,ACC023,"[-2, 2, 0]","[-2, 2, 0]",[],match,1.0,,0.03314954617033474,-0.25294946263282314,-1.4128709517929883,3rd,2nd,1st,0.24956604421478282,-0.32002527274998077,-1.2264507735098988
perc,resp,1830,0,3.1.2left.bmp,3.1.2right.bmp,,ACC023,"[2, -2, 0]","[2, -2, 0]",[],match,1.0,,-0.5144136788554826,0.8621667308836489,-1.8361380639106872,2nd,4th,1st,-0.32112137634538424,1.234407665979702,-1.2264507735098988
perc,resp,1210,1,3.2.2left.bmp,1.3.1right.bmp,,ACC023,"[2, 0, 0]","[-2, 2, -2]",[],non-match,0.29289321881345254,1,1.441335917418291,0.09973845521748621,-2.3180481854223984,4th,3rd,1st,1.3292176044341308,0.3241798519266453,-1.2264507735098988
perc,resp,1745,0,2.1.3left.bmp,2.1.3right.bmp,,ACC023,"[0, -2, 2]","[0, -2, 2]",[],match,1.0,,-0.6824719690941361,1.0349158266388199,-2.017252521876596,1st,4th,1st,-1.2386067833292336,1.234407665979702,-1.2264507735098988
perc,resp,1416,1,2.2.3left.bmp,2.2.3right.bmp,,ACC023,"[0, 0, 2]","[0, 0, 2]",[],match,1.0,,0.9720985114348875,-1.1428300092316723,-1.9982593520432126,4th,1st,1st,1.3292176044341308,-1.2197961505327855,-1.2264507735098988
perc,resp,1228,1,3.2.2left.bmp,3.2.2right.bmp,,ACC023,"[2, 0, 0]","[2, 0, 0]",[],match,1.0,,-0.285781820819265,-0.9541640983505109,-1.7947780133179343,2nd,1st,1st,-0.32112137634538424,-1.2197961505327855,-1.2264507735098988
perc,resp,931,1,2.2.1left.bmp,2.2.1right.bmp,,ACC023,"[0, 0, -2]","[0, 0, -2]",[],match,1.0,,-0.1815586613178608,0.08898043995276587,-2.0048394664307385,2nd,3rd,1st,-0.32112137634538424,0.3241798519266453,-1.2264507735098988
perc,resp,975,0,3.1.1left.bmp,3.1.1right.bmp,,ACC023,"[2, -2, -2]","[2, -2, -2]",[],match,1.0,,-0.7335290790611348,-1.0496164834071984,-1.764815595916325,1st,1st,1st,-1.2386067833292336,-1.2197961505327855,-1.2264507735098988
perc,resp,1384,1,1.1.3left.bmp,1.3.1right.bmp,,ACC023,"[-2, -2, 2]","[-2, 2, -2]",[],non-match,0.18350341907227385,1,-0.057473331428795654,-1.450088281261876,-1.6404911968498004,3rd,1st,1st,0.24956604421478282,-1.2197961505327855,-1.2264507735098988
perc,resp,1011,1,3.1.3left.bmp,3.1.3right.bmp,,ACC023,"[2, -2, 2]","[2, -2, 2]",[],match,1.0,,0.06371009682286063,0.09850468159007479,-1.7734067369365007,3rd,3rd,1st,0.24956604421478282,0.3241798519266453,-1.2264507735098988
perc,resp,778,1,1.1.1left.bmp,2.1.2right.bmp,,ACC023,"[-2, -2, -2]","[0, -2, 0]",[],non-match,0.5917517095361369,3,-0.41205497417158404,-0.2728142735031534,-1.6147381186722911,2nd,2nd,1st,-0.32112137634538424,-0.32002527274998077,-1.2264507735098988
perc,resp,1237,0,1.3.2left.bmp,1.3.2right.bmp,,ACC023,"[-2, 2, 0]","[-2, 2, 0]",[],match,1.0,,-1.5136066281699874,-1.6830986855571588,-1.6598747405197571,1st,1st,1st,-1.2386067833292336,-1.2197961505327855,-1.2264507735098988
perc,resp,1106,1,2.1.3left.bmp,2.2.1right.bmp,,ACC023,"[0, -2, 2]","[0, 0, -2]",[],non-match,0.3545027756320971,2,0.5977251944988249,0.4194748447515478,-1.5806188078069257,3rd,3rd,1st,0.24956604421478282,0.3241798519266453,-1.2264507735098988
perc,resp,1719,1,2.3.2left.bmp,3.1.2right.bmp,,ACC023,"[0, 2, 0]","[2, -2, 0]",[],non-match,0.3545027756320971,2,0.15150329846806762,-1.3663422731494768,-1.754917067555855,3rd,1st,1st,0.24956604421478282,-1.2197961505327855,-1.2264507735098988
perc,resp,1036,1,1.2.3left.bmp,3.3.1right.bmp,,ACC023,"[-2, 0, 2]","[2, 2, -2]",[],non-match,0.1339745962155613,1,-0.4696926782948955,-0.03122478299511358,-1.755352528231633,2nd,2nd,1st,-0.32112137634538424,-0.32002527274998077,-1.2264507735098988
perc,resp,1297,1,2.2.2left.bmp,2.2.2right.bmp,,ACC023,"[0, 0, 0]","[0, 0, 0]",[],match,1.0,,-0.10338420111726801,0.32199665568990793,-1.541599883685571,2nd,3rd,1st,-0.32112137634538424,0.3241798519266453,-1.2264507735098988
perc,resp,1610,1,2.3.3left.bmp,2.2.3right.bmp,,ACC023,"[0, 2, 2]","[0, 0, 2]",[],non-match,0.7113248654051871,4,0.7621027108013684,2.185844994619393,-1.7289401123330779,4th,4th,1st,1.3292176044341308,1.234407665979702,-1.2264507735098988
perc,resp,1408,0,3.3.2left.bmp,3.2.1right.bmp,,ACC023,"[2, 2, 0]","[2, 0, -2]",[],non-match,0.5917517095361369,3,-0.904218008389973,1.1749982635573744,-2.0213726973911275,1st,4th,1st,-1.2386067833292336,1.234407665979702,-1.2264507735098988
perc,resp,1176,0,3.2.3left.bmp,2.2.1right.bmp,,ACC023,"[2, 0, 2]","[0, 0, -2]",[],non-match,0.3545027756320971,2,-0.31338779240034575,-0.5351978965965772,-1.9360992268561108,2nd,2nd,1st,-0.32112137634538424,-0.32002527274998077,-1.2264507735098988
perc,resp,1557,1,1.3.1left.bmp,1.3.1right.bmp,,ACC023,"[-2, 2, -2]","[-2, 2, -2]",[],match,1.0,,0.3849495268501679,0.1335106240865844,-1.7652181841850831,3rd,3rd,1st,0.24956604421478282,0.3241798519266453,-1.2264507735098988
perc,resp,1116,1,2.1.1left.bmp,1.2.1right.bmp,,ACC023,"[0, -2, -2]","[-2, 0, -2]",[],non-match,0.5917517095361369,3,1.5571222276551422,0.4627835779926396,-1.518442921060545,4th,3rd,1st,1.3292176044341308,0.3241798519266453,-1.2264507735098988
perc,resp,983,1,3.2.1left.bmp,1.2.2right.bmp,,ACC023,"[2, 0, -2]","[-2, 0, 0]",[],non-match,0.3545027756320971,2,0.9799494745754779,0.08726739231180591,-1.6033282833013913,4th,3rd,1st,1.3292176044341308,0.3241798519266453,-1.2264507735098988
perc,resp,850,1,2.3.1left.bmp,1.2.3right.bmp,,ACC023,"[0, 2, -2]","[-2, 0, 2]",[],non-match,0.29289321881345254,1,1.2753094565997551,-1.7154550726681348,-1.4131949871298621,4th,1st,1st,1.3292176044341308,-1.2197961505327855,-1.2264507735098988
perc,resp,1330,1,3.3.3left.bmp,3.1.3right.bmp,,ACC023,"[2, 2, 2]","[2, -2, 2]",[],non-match,0.42264973081037416,2,-0.16285821482808213,0.3913673834396045,-1.317929097172354,2nd,3rd,1st,-0.32112137634538424,0.3241798519266453,-1.2264507735098988
perc,resp,925,0,3.1.2left.bmp,3.1.2right.bmp,,ACC023,"[2, -2, 0]","[2, -2, 0]",[],match,1.0,,-0.49509800901950646,0.6530370112123016,-0.9495973747118925,2nd,3rd,1st,-0.32112137634538424,0.3241798519266453,-1.2264507735098988
perc,resp,1216,0,2.1.2left.bmp,3.2.2right.bmp,,ACC023,"[0, -2, 0]","[2, 0, 0]",[],non-match,0.5917517095361369,3,-0.5252590192708047,0.22293542383822512,-0.8309362040385798,2nd,3rd,1st,-0.32112137634538424,0.3241798519266453,-1.2264507735098988
perc,resp,1001,0,3.3.1left.bmp,1.1.3right.bmp,,ACC023,"[2, 2, -2]","[-2, -2, 2]",[],non-match,0.0,1,-0.12082281603393767,2.1945697050841364,-1.0329254285954,2nd,4th,1st,-0.32112137634538424,1.234407665979702,-1.2264507735098988
perc,resp,1542,1,1.2.1left.bmp,3.3.3right.bmp,,ACC023,"[-2, 0, -2]","[2, 2, 2]",[],non-match,0.1339745962155613,1,-2.461487840482643,-1.9945440713102491,-0.8950711879592093,1st,1st,1st,-1.2386067833292336,-1.2197961505327855,-1.2264507735098988
perc,resp,1343,1,2.2.3left.bmp,1.1.1right.bmp,,ACC023,"[0, 0, 2]","[-2, -2, -2]",[],non-match,0.29289321881345254,1,-0.7506474965589301,0.7121822801440579,-0.9934233119769137,1st,4th,1st,-1.2386067833292336,1.234407665979702,-1.2264507735098988
perc,resp,1202,1,1.2.2left.bmp,2.3.1right.bmp,,ACC023,"[-2, 0, 0]","[0, 2, -2]",[],non-match,0.5,3,-0.21703673925116884,-0.27123289160343744,-0.8374038943567698,2nd,2nd,1st,-0.32112137634538424,-0.32002527274998077,-1.2264507735098988
perc,resp,1725,1,1.3.3left.bmp,1.3.3right.bmp,,ACC023,"[-2, 2, 2]","[-2, 2, 2]",[],match,1.0,,1.6100389964941897,0.9966534139821723,-0.6627044819182555,4th,4th,1st,1.3292176044341308,1.234407665979702,-1.2264507735098988
perc,resp,1517,1,1.1.2left.bmp,1.1.2right.bmp,,ACC023,"[-2, -2, 0]","[-2, -2, 0]",[],match,1.0,,0.5611961318481203,1.2704238600604014,-0.22849574043820478,3rd,4th,2nd,0.24956604421478282,1.234407665979702,-0.37159670311919124
perc,resp,1710,0,2.3.3left.bmp,2.3.3right.bmp,,ACC023,"[0, 2, 2]","[0, 2, 2]",[],match,1.0,,-1.9781071123596237,-1.3225875975527288,-0.35134485240218194,1st,1st,2nd,-1.2386067833292336,-1.2197961505327855,-0.37159670311919124
perc,resp,1845,1,3.3.2left.bmp,3.2.2right.bmp,,ACC023,"[2, 2, 0]","[2, 0, 0]",[],non-match,0.7113248654051871,4,0.1163656569080206,-0.9082140137184448,-0.5498261415915411,3rd,1st,2nd,0.24956604421478282,-1.2197961505327855,-0.37159670311919124
perc,resp,1548,1,1.3.2left.bmp,1.2.1right.bmp,,ACC023,"[-2, 2, 0]","[-2, 0, -2]",[],non-match,0.5917517095361369,3,-0.3984258544888508,-1.2020914827234987,-0.5384255001884168,2nd,1st,2nd,-0.32112137634538424,-1.2197961505327855,-0.37159670311919124
perc,resp,1126,1,2.2.1left.bmp,2.2.1right.bmp,,ACC023,"[0, 0, -2]","[0, 0, -2]",[],match,1.0,,0.2191539750905807,-1.3831273998967006,-0.5039509520337134,3rd,1st,2nd,0.24956604421478282,-1.2197961505327855,-0.37159670311919124
perc,resp,1236,1,2.1.2left.bmp,2.1.2right.bmp,,ACC023,"[0, -2, 0]","[0, -2, 0]",[],match,1.0,,0.46716901731765237,0.43764268111311516,-0.29574913058117763,3rd,3rd,2nd,0.24956604421478282,0.3241798519266453,-0.37159670311919124
perc,resp,1043,1,1.1.2left.bmp,2.1.1right.bmp,,ACC023,"[-2, -2, 0]","[0, -2, -2]",[],non-match,0.5917517095361369,3,0.4752710187904859,-0.28550293983022174,-0.3364141754328615,3rd,2nd,2nd,0.24956604421478282,-0.32002527274998077,-0.37159670311919124
perc,resp,1122,0,2.2.3left.bmp,2.2.3right.bmp,,ACC023,"[0, 0, 2]","[0, 0, 2]",[],match,1.0,,1.0420207244117878,-0.4371752703646081,-0.31845342291648154,4th,2nd,2nd,1.3292176044341308,-0.32002527274998077,-0.37159670311919124
perc,resp,1121,1,3.2.1left.bmp,2.3.2right.bmp,,ACC023,"[2, 0, -2]","[0, 2, 0]",[],non-match,0.5,3,0.48597109443804615,0.317441315716963,-0.6547909753916769,3rd,3rd,1st,0.24956604421478282,0.3241798519266453,-1.2264507735098988
perc,resp,988,0,2.3.1left.bmp,3.3.3right.bmp,,ACC023,"[0, 2, -2]","[2, 2, 2]",[],non-match,0.3545027756320971,2,0.0746351821778716,0.2545728664431858,-0.537200451946758,3rd,3rd,2nd,0.24956604421478282,0.3241798519266453,-0.37159670311919124
perc,resp,1237,1,3.1.2left.bmp,3.1.2right.bmp,,ACC023,"[2, -2, 0]","[2, -2, 0]",[],match,1.0,,-0.25975481043567367,0.9552360597837622,-0.50600729456531,2nd,4th,2nd,-0.32112137634538424,1.234407665979702,-0.37159670311919124
perc,resp,1520,1,1.1.1left.bmp,1.1.1right.bmp,,ACC023,"[-2, -2, -2]","[-2, -2, -2]",[],match,1.0,,-0.7060661960456323,0.37854498865266034,-0.5277568461368953,1st,3rd,2nd,-1.2386067833292336,0.3241798519266453,-0.37159670311919124
perc,resp,1115,1,2.2.2left.bmp,2.2.2right.bmp,,ACC023,"[0, 0, 0]","[0, 0, 0]",[],match,1.0,,-0.4746673790323536,-0.4598914414923382,-0.31789013355457474,2nd,2nd,2nd,-0.32112137634538424,-0.32002527274998077,-0.37159670311919124
perc,resp,1124,1,1.3.3left.bmp,1.3.3right.bmp,,ACC023,"[-2, 2, 2]","[-2, 2, 2]",[],match,1.0,,-0.17913499368119554,-1.0079935672422702,-0.38576237749877634,2nd,1st,2nd,-0.32112137634538424,-1.2197961505327855,-0.37159670311919124
perc,resp,1817,1,3.3.3left.bmp,3.3.3right.bmp,,ACC023,"[2, 2, 2]","[2, 2, 2]",[],match,1.0,,0.5702997327864685,-1.5207452630898897,-0.6170644537012758,3rd,1st,1st,0.24956604421478282,-1.2197961505327855,-1.2264507735098988
perc,resp,1145,1,1.2.3left.bmp,3.2.3right.bmp,,ACC023,"[-2, 0, 2]","[2, 0, 2]",[],non-match,0.42264973081037416,2,1.6007761474288948,1.949155800289791,-0.5026740249299256,4th,4th,2nd,1.3292176044341308,1.234407665979702,-0.37159670311919124
perc,resp,1144,0,2.3.1left.bmp,3.3.2right.bmp,,ACC023,"[0, 2, -2]","[2, 2, 0]",[],non-match,0.5917517095361369,3,-0.2634982978393442,0.9572861342183309,-0.36555689020723403,2nd,4th,2nd,-0.32112137634538424,1.234407665979702,-0.37159670311919124
perc,resp,1415,1,1.1.1left.bmp,1.3.1right.bmp,,ACC023,"[-2, -2, -2]","[-2, 2, -2]",[],non-match,0.42264973081037416,2,-0.3670353539510394,1.1578745914404056,-0.2816412476570524,2nd,4th,2nd,-0.32112137634538424,1.234407665979702,-0.37159670311919124
perc,resp,922,1,2.3.3left.bmp,2.3.3right.bmp,,ACC023,"[0, 2, 2]","[0, 2, 2]",[],match,1.0,,0.8011113145178239,-0.21892261498407,-0.1354190333495834,4th,2nd,2nd,1.3292176044341308,-0.32002527274998077,-0.37159670311919124
perc,resp,959,1,3.1.2left.bmp,3.1.2right.bmp,,ACC023,"[2, -2, 0]","[2, -2, 0]",[],match,1.0,,0.9776244526173655,0.27068302042094444,0.10549859919310837,4th,3rd,3rd,1.3292176044341308,0.3241798519266453,0.26312126230420596
perc,resp,1152,1,2.2.3left.bmp,1.1.3right.bmp,,ACC023,"[0, 0, 2]","[-2, -2, 2]",[],non-match,0.5917517095361369,3,-0.3677280389070589,-0.6946861292156192,-0.06560388478543284,2nd,1st,3rd,-0.32112137634538424,-1.2197961505327855,0.26312126230420596
perc,resp,1237,1,3.1.1left.bmp,3.1.1right.bmp,,ACC023,"[2, -2, -2]","[2, -2, -2]",[],match,1.0,,-0.9342692511199978,0.394846359326451,0.37015852794381593,1st,3rd,3rd,-1.2386067833292336,0.3241798519266453,0.26312126230420596
perc,resp,1103,1,1.2.1left.bmp,1.2.1right.bmp,,ACC023,"[-2, 0, -2]","[-2, 0, -2]",[],match,1.0,,-0.5864043826763211,3.559397330327465,0.8443672236086397,1st,4th,4th,-1.2386067833292336,1.234407665979702,1.3537946877634977
perc,resp,1073,1,1.3.2left.bmp,1.1.1right.bmp,,ACC023,"[-2, 2, 0]","[-2, -2, -2]",[],non-match,0.3545027756320971,2,1.021925888959653,0.5221884815864787,0.7943012796338836,4th,3rd,3rd,1.3292176044341308,0.3241798519266453,0.26312126230420596
perc,resp,1816,1,3.2.1left.bmp,3.2.1right.bmp,,ACC023,"[2, 0, -2]","[2, 0, -2]",[],match,1.0,,-1.4599261924880118,-0.646620452043868,0.7491533314053533,1st,2nd,3rd,-1.2386067833292336,-0.32002527274998077,0.26312126230420596
perc,resp,1150,1,3.1.3left.bmp,3.1.3right.bmp,,ACC023,"[2, -2, 2]","[2, -2, 2]",[],match,1.0,,-0.040332629830150235,0.04173078900549738,0.636859005763527,3rd,3rd,3rd,0.24956604421478282,0.3241798519266453,0.26312126230420596
perc,resp,1251,1,2.1.3left.bmp,2.1.3right.bmp,,ACC023,"[0, -2, 2]","[0, -2, 2]",[],match,1.0,,-1.0571581426109307,0.37591740657826794,1.0311920418163458,1st,3rd,4th,-1.2386067833292336,0.3241798519266453,1.3537946877634977
perc,resp,1056,1,1.1.3left.bmp,1.1.3right.bmp,,ACC023,"[-2, -2, 2]","[-2, -2, 2]",[],match,1.0,,0.5802633365188866,-1.268339825814124,0.9211795947178019,3rd,1st,4th,0.24956604421478282,-1.2197961505327855,1.3537946877634977
perc,resp,953,0,3.2.3left.bmp,3.2.2right.bmp,,ACC023,"[2, 0, 2]","[2, 0, 0]",[],non-match,0.7113248654051871,4,-0.0762697710978168,-0.3249772934430465,1.0674388597385072,3rd,2nd,4th,0.24956604421478282,-0.32002527274998077,1.3537946877634977
perc,resp,1252,1,2.3.2left.bmp,3.2.1right.bmp,,ACC023,"[0, 2, 0]","[2, 0, -2]",[],non-match,0.5,3,0.3185284534568428,-0.21666254507735255,1.0992374635237194,3rd,2nd,4th,0.24956604421478282,-0.32002527274998077,1.3537946877634977
perc,resp,1271,1,1.3.3left.bmp,1.3.3right.bmp,,ACC023,"[-2, 2, 2]","[-2, 2, 2]",[],match,1.0,,-0.04612954375738347,0.30663615259779914,1.0109540679080022,3rd,3rd,4th,0.24956604421478282,0.3241798519266453,1.3537946877634977
perc,resp,1706,0,1.1.2left.bmp,1.1.2right.bmp,,ACC023,"[-2, -2, 0]","[-2, -2, 0]",[],match,1.0,,0.1317976205705932,0.8564037629116659,1.3079897032748782,3rd,4th,4th,0.24956604421478282,1.234407665979702,1.3537946877634977
perc,resp,1165,1,1.2.2left.bmp,2.2.2right.bmp,,ACC023,"[-2, 0, 0]","[0, 0, 0]",[],non-match,0.7113248654051871,4,1.090312949062292,-0.2199331060167165,1.2902654713017303,4th,2nd,4th,1.3292176044341308,-0.32002527274998077,1.3537946877634977
perc,resp,1022,0,2.1.2left.bmp,3.1.2right.bmp,,ACC023,"[0, -2, 0]","[2, -2, 0]",[],non-match,0.7113248654051871,4,0.8586757734457781,1.1091254244134099,1.4538453316590023,4th,4th,4th,1.3292176044341308,1.234407665979702,1.3537946877634977
perc,resp,1263,1,3.2.2left.bmp,2.1.3right.bmp,,ACC023,"[2, 0, 0]","[0, -2, 2]",[],non-match,0.5,3,0.023461686920519656,-1.2135571745588507,1.5388006317397804,3rd,1st,4th,0.24956604421478282,-1.2197961505327855,1.3537946877634977
perc,resp,1312,1,3.3.1left.bmp,3.1.3right.bmp,,ACC023,"[2, 2, -2]","[2, -2, 2]",[],non-match,0.18350341907227385,1,1.5780763720309572,-0.9607652466808547,1.3906958424315674,4th,1st,4th,1.3292176044341308,-1.2197961505327855,1.3537946877634977
perc,resp,1251,1,2.1.1left.bmp,2.1.1right.bmp,,ACC023,"[0, -2, -2]","[0, -2, -2]",[],match,1.0,,-0.442732930140259,-1.7542163451196267,1.6951550837613778,2nd,1st,4th,-0.32112137634538424,-1.2197961505327855,1.3537946877634977
perc,resp,1504,1,3.3.3left.bmp,3.1.1right.bmp,,ACC023,"[2, 2, 2]","[2, -2, -2]",[],non-match,0.18350341907227385,1,1.7020151867392326,0.7258145464852813,2.1223942858156337,4th,4th,4th,1.3292176044341308,1.234407665979702,1.3537946877634977
perc,resp,1144,1,2.2.1left.bmp,2.2.1right.bmp,,ACC023,"[0, 0, -2]","[0, 0, -2]",[],match,1.0,,-1.173127675378477,-0.8875240886068021,2.258174625538865,1st,1st,4th,-1.2386067833292336,-1.2197961505327855,1.3537946877634977
perc,resp,1041,0,1.3.1left.bmp,1.3.1right.bmp,,ACC023,"[-2, 2, -2]","[-2, 2, -2]",[],match,1.0,,-1.0637692558775513,0.15717841840029056,2.1528594846311955,1st,3rd,4th,-1.2386067833292336,0.3241798519266453,1.3537946877634977
perc,resp,1451,1,2.2.2left.bmp,2.3.1right.bmp,,ACC023,"[0, 0, 0]","[0, 2, -2]",[],non-match,0.5917517095361369,3,-1.028796865531508,-1.1908835516071863,1.995138283162098,1st,1st,4th,-1.2386067833292336,-1.2197961505327855,1.3537946877634977
perc,resp,1240,1,3.3.2left.bmp,2.1.3right.bmp,,ACC023,"[2, 2, 0]","[0, -2, 2]",[],non-match,0.29289321881345254,1,-0.38001547893470944,-0.31044726230298214,2.2344743823436515,2nd,2nd,4th,-0.32112137634538424,-0.32002527274998077,1.3537946877634977
perc,resp,1279,1,2.2.3left.bmp,1.1.2right.bmp,,ACC023,"[0, 0, 2]","[-2, -2, 0]",[],non-match,0.5,3,0.25095752445000674,0.42915038813993467,2.112667465528691,3rd,3rd,4th,0.24956604421478282,0.3241798519266453,1.3537946877634977
perc,resp,1230,1,1.1.1left.bmp,2.3.3right.bmp,,ACC023,"[-2, -2, -2]","[0, 2, 2]",[],non-match,0.1339745962155613,1,-0.13823422471905517,0.7958443798092526,1.9112397001146573,2nd,4th,4th,-0.32112137634538424,1.234407665979702,1.3537946877634977
perc,resp,1087,1,3.1.3left.bmp,2.2.1right.bmp,,ACC023,"[2, -2, 2]","[0, 0, -2]",[],non-match,0.29289321881345254,1,0.49310732916899075,-0.8847536431757353,1.5808558409338016,3rd,1st,4th,0.24956604421478282,-1.2197961505327855,1.3537946877634977
perc,resp,1440,1,2.2.2left.bmp,1.2.1right.bmp,,ACC023,"[0, 0, 0]","[-2, 0, -2]",[],non-match,0.5917517095361369,3,-1.81341635673698,-0.7114691513870961,1.6686855655398405,1st,1st,4th,-1.2386067833292336,-1.2197961505327855,1.3537946877634977
perc,resp,1309,1,2.1.1left.bmp,2.1.1right.bmp,,ACC023,"[0, -2, -2]","[0, -2, -2]",[],match,1.0,,0.5353923511075902,1.7243492582847058,1.7981726063401113,3rd,4th,4th,0.24956604421478282,1.234407665979702,1.3537946877634977
perc,resp,1258,1,1.2.3left.bmp,2.1.3right.bmp,,ACC023,"[-2, 0, 2]","[0, -2, 2]",[],non-match,0.5917517095361369,3,1.6013056961330996,0.34464096652244236,1.5040288158071178,4th,3rd,4th,1.3292176044341308,0.3241798519266453,1.3537946877634977
perc,resp,1439,1,2.2.1left.bmp,3.1.3right.bmp,,ACC023,"[0, 0, -2]","[2, -2, 2]",[],non-match,0.29289321881345254,1,1.2266875841457285,0.6427460811692145,1.385295961828547,4th,3rd,4th,1.3292176044341308,0.3241798519266453,1.3537946877634977
perc,resp,2026,1,1.1.3left.bmp,2.2.3right.bmp,,ACC023,"[-2, -2, 2]","[0, 0, 2]",[],non-match,0.5917517095361369,3,-0.2826599315998575,0.6880302559343756,1.1823238642937082,2nd,4th,4th,-0.32112137634538424,1.234407665979702,1.3537946877634977
perc,resp,1396,0,3.3.1left.bmp,3.1.1right.bmp,,ACC023,"[2, 2, -2]","[2, -2, -2]",[],non-match,0.42264973081037416,2,1.070981139144285,0.6190527305753154,1.017181062043919,4th,3rd,4th,1.3292176044341308,0.3241798519266453,1.3537946877634977
perc,resp,2173,1,3.1.2left.bmp,3.2.2right.bmp,,ACC023,"[2, -2, 0]","[2, 0, 0]",[],non-match,0.7113248654051871,4,1.420503467825086,0.771840228415779,0.8293368214391381,4th,4th,4th,1.3292176044341308,1.234407665979702,1.3537946877634977
perc,resp,1567,1,2.1.2left.bmp,2.1.2right.bmp,,ACC023,"[0, -2, 0]","[0, -2, 0]",[],match,1.0,,1.770220556124145,0.53072336835998,0.7862934505652636,4th,3rd,3rd,1.3292176044341308,0.3241798519266453,0.26312126230420596
perc,resp,1376,1,2.3.2left.bmp,2.3.2right.bmp,,ACC023,"[0, 2, 0]","[0, 2, 0]",[],match,1.0,,-0.3852197406042853,0.6275027512108188,0.9938621545768485,2nd,3rd,4th,-0.32112137634538424,0.3241798519266453,1.3537946877634977
perc,resp,1318,1,1.3.3left.bmp,1.3.3right.bmp,,ACC023,"[-2, 2, 2]","[-2, 2, 2]",[],match,1.0,,-0.9839189123662377,-0.8294412671075178,1.0330256813171457,1st,1st,4th,-1.2386067833292336,-1.2197961505327855,1.3537946877634977
perc,resp,1045,1,3.2.3left.bmp,3.2.3right.bmp,,ACC023,"[2, 0, 2]","[2, 0, 2]",[],match,1.0,,-0.5757320664708345,-1.5853479782134101,1.2427266777764627,2nd,1st,4th,-0.32112137634538424,-1.2197961505327855,1.3537946877634977
perc,resp,1362,1,3.2.2left.bmp,3.3.3right.bmp,,ACC023,"[2, 0, 0]","[2, 2, 2]",[],non-match,0.5917517095361369,3,-0.26667701146836637,-0.24951570582455665,1.2411843664856104,2nd,2nd,4th,-0.32112137634538424,-0.32002527274998077,1.3537946877634977
perc,resp,1102,1,3.1.1left.bmp,1.2.3right.bmp,,ACC023,"[2, -2, -2]","[-2, 0, 2]",[],non-match,0.1339745962155613,1,1.8167832482775375,-0.5040717939038977,1.3947903644986577,4th,2nd,4th,1.3292176044341308,-0.32002527274998077,1.3537946877634977
perc,resp,1028,0,2.3.3left.bmp,2.3.3right.bmp,,ACC023,"[0, 2, 2]","[0, 2, 2]",[],match,1.0,,0.5381933587880673,2.1409076244699268,1.2731876971920315,3rd,4th,4th,0.24956604421478282,1.234407665979702,1.3537946877634977
perc,resp,1581,1,1.2.2left.bmp,1.1.3right.bmp,,ACC023,"[-2, 0, 0]","[-2, -2, 2]",[],non-match,0.5917517095361369,3,1.5264944406771688,0.7446469532860702,1.4522816193984844,4th,4th,4th,1.3292176044341308,1.234407665979702,1.3537946877634977
perc,resp,1723,1,3.3.3left.bmp,2.1.1right.bmp,,ACC023,"[2, 2, 2]","[0, -2, -2]",[],non-match,0.1339745962155613,1,-2.4886980863363437,-1.5559797688748036,1.4410514512200248,1st,1st,4th,-1.2386067833292336,-1.2197961505327855,1.3537946877634977
perc,resp,1688,1,1.2.1left.bmp,3.2.3right.bmp,,ACC023,"[-2, 0, -2]","[2, 0, 2]",[],non-match,0.18350341907227385,1,0.3460700895567778,0.893448742958636,1.5153259741779779,3rd,4th,4th,0.24956604421478282,1.234407665979702,1.3537946877634977
perc,resp,1579,0,1.3.2left.bmp,1.3.2right.bmp,,ACC023,"[-2, 2, 0]","[-2, 2, 0]",[],match,1.0,,-2.260309155867931,-1.874665055928869,1.5862609631831674,1st,1st,4th,-1.2386067833292336,-1.2197961505327855,1.3537946877634977
perc,resp,1075,1,3.2.1left.bmp,3.2.1right.bmp,,ACC023,"[2, 0, -2]","[2, 0, -2]",[],match,1.0,,0.0808768840295695,-1.6653553096426388,1.4126360194621794,3rd,1st,4th,0.24956604421478282,-1.2197961505327855,1.3537946877634977
perc,resp,1396,0,1.1.2left.bmp,2.1.2right.bmp,,ACC023,"[-2, -2, 0]","[0, -2, 0]",[],non-match,0.7113248654051871,4,0.03508621029060522,0.9589492747838204,1.3398281638289726,3rd,4th,4th,0.24956604421478282,1.234407665979702,1.3537946877634977
perc,resp,953,1,3.3.2left.bmp,1.3.3right.bmp,,ACC023,"[2, 2, 0]","[-2, 2, 2]",[],non-match,0.3545027756320971,2,1.633901723802553,2.509502049713064,1.378021424354279,4th,4th,4th,1.3292176044341308,1.234407665979702,1.3537946877634977
perc,resp,1616,1,2.3.1left.bmp,2.3.1right.bmp,,ACC023,"[0, 2, -2]","[0, 2, -2]",[],match,1.0,,-0.26188418708353045,-0.27100891250627773,1.317023379982261,2nd,2nd,4th,-0.32112137634538424,-0.32002527274998077,1.3537946877634977
perc,resp,1607,1,1.3.1left.bmp,1.3.1right.bmp,,ACC023,"[-2, 2, -2]","[-2, 2, -2]",[],match,1.0,,0.6289439334753135,1.129289061599828,1.4403397037042105,3rd,4th,4th,0.24956604421478282,1.234407665979702,1.3537946877634977
perc,resp,1436,1,2.1.3left.bmp,2.1.3right.bmp,,ACC023,"[0, -2, 2]","[0, -2, 2]",[],match,1.0,,-0.33889697123491896,0.032161381866715695,1.268749480673803,2nd,2nd,4th,-0.32112137634538424,-0.32002527274998077,1.3537946877634977
perc,resp,1108,1,3.1.2left.bmp,1.2.3right.bmp,,ACC023,"[2, -2, 0]","[-2, 0, 2]",[],non-match,0.29289321881345254,1,0.6758467684896886,0.09648991446923146,1.2514438422961915,4th,3rd,4th,1.3292176044341308,0.3241798519266453,1.3537946877634977
perc,resp,1206,0,3.3.1left.bmp,3.2.2right.bmp,,ACC023,"[2, 2, -2]","[2, 0, 0]",[],non-match,0.5917517095361369,3,1.573969644555895,0.17073706979605363,1.3470182530036614,4th,3rd,4th,1.3292176044341308,0.3241798519266453,1.3537946877634977
perc,resp,1255,1,2.3.3left.bmp,2.3.3right.bmp,,ACC023,"[0, 2, 2]","[0, 2, 2]",[],match,1.0,,0.7836175238788288,-2.0060720431842936,1.4723499412594936,4th,1st,4th,1.3292176044341308,-1.2197961505327855,1.3537946877634977
perc,resp,1336,1,2.2.3left.bmp,2.2.3right.bmp,,ACC023,"[0, 0, 2]","[0, 0, 2]",[],match,1.0,,0.18939296250737922,0.2874932664600793,1.541597253921578,3rd,3rd,4th,0.24956604421478282,0.3241798519266453,1.3537946877634977
perc,resp,1205,1,2.2.2left.bmp,1.2.2right.bmp,,ACC023,"[0, 0, 0]","[-2, 0, 0]",[],non-match,0.7113248654051871,4,-0.07085973091700433,2.311902069960303,1.5319404544545636,3rd,4th,4th,0.24956604421478282,1.234407665979702,1.3537946877634977
perc,resp,1044,1,1.2.3left.bmp,1.2.3right.bmp,,ACC023,"[-2, 0, 2]","[-2, 0, 2]",[],match,1.0,,0.8562618508556123,0.5031647509354428,1.3339193798290965,4th,3rd,4th,1.3292176044341308,0.3241798519266453,1.3537946877634977
perc,resp,1121,1,3.1.3left.bmp,3.3.1right.bmp,,ACC023,"[2, -2, 2]","[2, 2, -2]",[],non-match,0.18350341907227385,1,1.7246023114509195,1.9084188753543703,1.3070688253236713,4th,4th,4th,1.3292176044341308,1.234407665979702,1.3537946877634977
perc,resp,1122,1,3.1.1left.bmp,3.1.1right.bmp,,ACC023,"[2, -2, -2]","[2, -2, -2]",[],match,1.0,,1.5123010865765463,0.5586341481109445,1.2208305792286243,4th,3rd,4th,1.3292176044341308,0.3241798519266453,1.3537946877634977
perc,resp,976,1,3.2.1left.bmp,2.3.2right.bmp,,ACC023,"[2, 0, -2]","[0, 2, 0]",[],non-match,0.5,3,1.4961771334907052,-0.11060885779486143,0.8668787659258482,4th,2nd,4th,1.3292176044341308,-0.32002527274998077,1.3537946877634977
perc,resp,1145,1,1.3.2left.bmp,1.3.2right.bmp,,ACC023,"[-2, 2, 0]","[-2, 2, 0]",[],match,1.0,,0.1310832072932962,0.09559381056071735,0.9654793349647638,3rd,3rd,4th,0.24956604421478282,0.3241798519266453,1.3537946877634977
perc,resp,1184,1,1.3.1left.bmp,1.3.1right.bmp,,ACC023,"[-2, 2, -2]","[-2, 2, -2]",[],match,1.0,,-0.21895618004414408,-0.013886802448857016,0.5841931980566095,2nd,2nd,3rd,-0.32112137634538424,-0.32002527274998077,0.26312126230420596
perc,resp,1253,1,1.2.2left.bmp,1.2.2right.bmp,,ACC023,"[-2, 0, 0]","[-2, 0, 0]",[],match,1.0,,-0.45935295422850714,-0.5126086362418164,0.5572252680216707,2nd,2nd,3rd,-0.32112137634538424,-0.32002527274998077,0.26312126230420596
perc,resp,1072,0,3.2.3left.bmp,3.2.3right.bmp,,ACC023,"[2, 0, 2]","[2, 0, 2]",[],match,1.0,,2.3083793603418035,1.3232521737304652,0.5589271972596358,4th,4th,3rd,1.3292176044341308,1.234407665979702,0.26312126230420596
perc,resp,1423,1,1.1.2left.bmp,2.3.2right.bmp,,ACC023,"[-2, -2, 0]","[0, 2, 0]",[],non-match,0.3545027756320971,2,-0.40444546614475524,-0.2502265133073975,0.3955768031362556,2nd,2nd,3rd,-0.32112137634538424,-0.32002527274998077,0.26312126230420596
