mode,type,rt,acc,item_1,item_2,item_cue,subj_idx,item_1_number,item_2_number,item_cue_number,trial_type,similarity,similarity_bin,ams,pams,slps,ams_quantile,pams_quantile,slps_quantile,ams_bin,pam_bin,slp_bin
perc,resp,1938,1,3.3.3left.bmp,3.3.3right.bmp,,ACC028,"[2, 2, 2]","[2, 2, 2]",[],match,1.0,,0.2100711413433806,-0.254692792247343,2.1215425181947873,3rd,2nd,4th,0.3264613569180576,-0.3163553752801602,1.4335288504227357
perc,resp,1259,1,1.1.2left.bmp,1.1.2right.bmp,,ACC028,"[-2, -2, 0]","[-2, -2, 0]",[],match,1.0,,0.12205304149184325,-0.5148621105117571,1.9124935873033668,3rd,2nd,4th,0.3264613569180576,-0.3163553752801602,1.4335288504227357
perc,resp,1083,0,2.1.3left.bmp,2.3.3right.bmp,,ACC028,"[0, -2, 2]","[0, 2, 2]",[],non-match,0.42264973081037416,2,0.7878277822516423,0.47122526813962595,2.3094795691211853,4th,3rd,4th,1.2655098211303253,0.2522037501836961,1.4335288504227357
perc,resp,1318,0,2.2.3left.bmp,3.1.3right.bmp,,ACC028,"[0, 0, 2]","[2, -2, 2]",[],non-match,0.5917517095361369,3,-1.1354523003089485,0.39570699803067017,2.5178056715926207,1st,3rd,4th,-1.2724344649878885,0.2522037501836961,1.4335288504227357
perc,resp,1847,1,2.2.2left.bmp,2.2.2right.bmp,,ACC028,"[0, 0, 0]","[0, 0, 0]",[],match,1.0,,1.328583923822915,1.1031616486227125,2.5308453703014284,4th,4th,4th,1.2655098211303253,1.3033768632354497,1.4335288504227357
perc,resp,1389,1,3.3.1left.bmp,1.1.2right.bmp,,ACC028,"[2, 2, -2]","[-2, -2, 0]",[],non-match,0.1339745962155613,1,0.08700548171440996,1.5174836022927698,2.591239859122247,3rd,4th,4th,0.3264613569180576,1.3033768632354497,1.4335288504227357
perc,resp,1417,1,3.2.1left.bmp,3.2.1right.bmp,,ACC028,"[2, 0, -2]","[2, 0, -2]",[],match,1.0,,-0.5666165775697795,-0.06406660441616427,2.5352680059570325,2nd,2nd,4th,-0.3195367130604944,-0.3163553752801602,1.4335288504227357
perc,resp,1269,0,2.3.2left.bmp,2.1.1right.bmp,,ACC028,"[0, 2, 0]","[0, -2, -2]",[],non-match,0.3545027756320971,2,-0.8151053097230051,0.42430089877782895,2.3735683682628745,1st,3rd,4th,-1.2724344649878885,0.2522037501836961,1.4335288504227357
perc,resp,1948,0,2.2.1left.bmp,2.2.1right.bmp,,ACC028,"[0, 0, -2]","[0, 0, -2]",[],match,1.0,,-0.06792567568939727,1.387287971422282,2.327602248402959,2nd,4th,4th,-0.3195367130604944,1.3033768632354497,1.4335288504227357
perc,resp,1678,1,1.3.1left.bmp,1.2.3right.bmp,,ACC028,"[-2, 2, -2]","[-2, 0, 2]",[],non-match,0.3545027756320971,2,-0.9037396222186624,-0.6483656920591705,2.574570574854819,1st,1st,4th,-1.2724344649878885,-1.2392252381389854,1.4335288504227357
perc,resp,2198,1,1.3.2left.bmp,2.1.2right.bmp,,ACC028,"[-2, 2, 0]","[0, -2, 0]",[],non-match,0.3545027756320971,2,1.2813341290765294,1.2609180404881188,2.5945058420878486,4th,4th,4th,1.2655098211303253,1.3033768632354497,1.4335288504227357
perc,resp,2150,1,1.1.3left.bmp,3.2.3right.bmp,,ACC028,"[-2, -2, 2]","[2, 0, 2]",[],non-match,0.3545027756320971,2,-1.516004901421846,-0.6586631480279092,2.576980692743542,1st,1st,4th,-1.2724344649878885,-1.2392252381389854,1.4335288504227357
perc,resp,1436,1,1.1.1left.bmp,1.1.1right.bmp,,ACC028,"[-2, -2, -2]","[-2, -2, -2]",[],match,1.0,,-0.37365814620863697,0.4923229539116124,2.4554414387027945,2nd,3rd,4th,-0.3195367130604944,0.2522037501836961,1.4335288504227357
perc,resp,1252,1,3.3.2left.bmp,3.3.2right.bmp,,ACC028,"[2, 2, 0]","[2, 2, 0]",[],match,1.0,,-1.1668633868027942,-0.4325397177059073,2.4747980507837974,1st,2nd,4th,-1.2724344649878885,-0.3163553752801602,1.4335288504227357
perc,resp,1225,1,3.1.2left.bmp,1.3.3right.bmp,,ACC028,"[2, -2, 0]","[-2, 2, 2]",[],non-match,0.1339745962155613,1,0.6663088140895831,0.8735432393777796,2.4832535107407416,3rd,4th,4th,0.3264613569180576,1.3033768632354497,1.4335288504227357
perc,resp,1700,0,3.2.2left.bmp,3.3.3right.bmp,,ACC028,"[2, 0, 0]","[2, 2, 2]",[],non-match,0.5917517095361369,3,-1.636707809768142,-0.8891776245748779,2.6454836028716993,1st,1st,4th,-1.2724344649878885,-1.2392252381389854,1.4335288504227357
perc,resp,2190,1,3.2.3left.bmp,3.2.3right.bmp,,ACC028,"[2, 0, 2]","[2, 0, 2]",[],match,1.0,,0.20496447242134433,0.7281135421223818,2.4495712331980712,3rd,4th,4th,0.3264613569180576,1.3033768632354497,1.4335288504227357
perc,resp,3201,0,1.2.2left.bmp,1.2.2right.bmp,,ACC028,"[-2, 0, 0]","[-2, 0, 0]",[],match,1.0,,-3.0353273696516827,-1.2256522884359666,2.2628830011505965,1st,1st,4th,-1.2724344649878885,-1.2392252381389854,1.4335288504227357
perc,resp,1429,1,2.3.1left.bmp,1.2.3right.bmp,,ACC028,"[0, 2, -2]","[-2, 0, 2]",[],non-match,0.29289321881345254,1,-0.4859750066430607,0.18897882743144753,2.2095996110922416,2nd,3rd,4th,-0.3195367130604944,0.2522037501836961,1.4335288504227357
perc,resp,1463,1,1.3.3left.bmp,3.3.2right.bmp,,ACC028,"[-2, 2, 2]","[2, 2, 0]",[],non-match,0.3545027756320971,2,0.28035598465315736,1.6400214701064069,2.02082736005428,3rd,4th,4th,0.3264613569180576,1.3033768632354497,1.4335288504227357
perc,resp,3267,0,1.2.1left.bmp,1.2.1right.bmp,,ACC028,"[-2, 0, -2]","[-2, 0, -2]",[],match,1.0,,-0.6781920082147167,-0.22165516729824364,2.0578588136898364,2nd,2nd,4th,-0.3195367130604944,-0.3163553752801602,1.4335288504227357
perc,resp,1664,1,3.1.3left.bmp,2.3.1right.bmp,,ACC028,"[2, -2, 2]","[0, 2, -2]",[],non-match,0.1339745962155613,1,-0.5671840967606924,-0.24748371595928506,1.9445886959668006,2nd,2nd,4th,-0.3195367130604944,-0.3163553752801602,1.4335288504227357
perc,resp,2324,1,2.1.1left.bmp,2.1.1right.bmp,,ACC028,"[0, -2, -2]","[0, -2, -2]",[],match,1.0,,0.0761959579871326,0.1639038498305317,1.8761976839652605,3rd,3rd,4th,0.3264613569180576,0.2522037501836961,1.4335288504227357
perc,resp,3100,1,1.2.3left.bmp,1.2.3right.bmp,,ACC028,"[-2, 0, 2]","[-2, 0, 2]",[],match,1.0,,-1.3917420439923887,-1.0509550071624454,1.7753662896818478,1st,1st,4th,-1.2724344649878885,-1.2392252381389854,1.4335288504227357
perc,resp,2163,1,2.3.3left.bmp,2.3.3right.bmp,,ACC028,"[0, 2, 2]","[0, 2, 2]",[],match,1.0,,-0.7102965232503639,0.47972966382555604,1.7772550837651149,1st,3rd,4th,-1.2724344649878885,0.2522037501836961,1.4335288504227357
perc,resp,1516,1,1.2.1left.bmp,1.1.3right.bmp,,ACC028,"[-2, 0, -2]","[-2, -2, 2]",[],non-match,0.3545027756320971,2,-0.12452738479793346,-0.004136791653642317,1.4620216950983997,2nd,3rd,4th,-0.3195367130604944,0.2522037501836961,1.4335288504227357
perc,resp,2171,1,1.2.3left.bmp,1.2.3right.bmp,,ACC028,"[-2, 0, 2]","[-2, 0, 2]",[],match,1.0,,-0.621128097800362,-0.7326248859133739,1.2015365591231895,2nd,1st,4th,-0.3195367130604944,-1.2392252381389854,1.4335288504227357
perc,resp,1637,0,2.3.1left.bmp,2.3.1right.bmp,,ACC028,"[0, 2, -2]","[0, 2, -2]",[],match,1.0,,-1.3901005085174167,-0.22454679567774818,1.0713716210804125,1st,2nd,4th,-1.2724344649878885,-0.3163553752801602,1.4335288504227357
perc,resp,1955,1,2.1.3left.bmp,2.1.3right.bmp,,ACC028,"[0, -2, 2]","[0, -2, 2]",[],match,1.0,,-2.1426603361462977,-0.9230209200118663,0.9497216685101163,1st,1st,4th,-1.2724344649878885,-1.2392252381389854,1.4335288504227357
perc,resp,1832,1,3.1.1left.bmp,3.1.1right.bmp,,ACC028,"[2, -2, -2]","[2, -2, -2]",[],match,1.0,,-0.1633209641348175,0.04652515302878523,0.953083414470151,2nd,3rd,4th,-0.3195367130604944,0.2522037501836961,1.4335288504227357
perc,resp,2050,0,2.1.1left.bmp,2.1.1right.bmp,,ACC028,"[0, -2, -2]","[0, -2, -2]",[],match,1.0,,-1.0900362599405231,-0.06781639869611375,0.830342218741366,1st,2nd,4th,-1.2724344649878885,-0.3163553752801602,1.4335288504227357
perc,resp,1294,1,1.3.1left.bmp,3.2.3right.bmp,,ACC028,"[-2, 2, -2]","[2, 0, 2]",[],non-match,0.1339745962155613,1,0.3007921835583452,0.18300675963775592,0.8240892268931074,3rd,3rd,4th,0.3264613569180576,0.2522037501836961,1.4335288504227357
perc,resp,1295,1,2.2.3left.bmp,2.2.3right.bmp,,ACC028,"[0, 0, 2]","[0, 0, 2]",[],match,1.0,,0.6599017747100815,0.25818761641889837,0.8615101320176687,3rd,3rd,4th,0.3264613569180576,0.2522037501836961,1.4335288504227357
perc,resp,1728,1,1.3.2left.bmp,2.2.1right.bmp,,ACC028,"[-2, 2, 0]","[0, 0, -2]",[],non-match,0.5,3,-0.5644917616746197,0.6581080385888161,1.0622466286812366,2nd,3rd,4th,-0.3195367130604944,0.2522037501836961,1.4335288504227357
perc,resp,1128,1,3.1.2left.bmp,2.3.1right.bmp,,ACC028,"[2, -2, 0]","[0, 2, -2]",[],non-match,0.29289321881345254,1,-0.14474202285758028,1.1200361000108603,1.1975962780307334,2nd,4th,4th,-0.3195367130604944,1.3033768632354497,1.4335288504227357
perc,resp,1109,1,1.3.3left.bmp,1.3.3right.bmp,,ACC028,"[-2, 2, 2]","[-2, 2, 2]",[],match,1.0,,-0.36806202554506856,-0.2544187639138867,1.3493084772116009,2nd,2nd,4th,-0.3195367130604944,-0.3163553752801602,1.4335288504227357
perc,resp,1069,1,3.1.3left.bmp,3.1.3right.bmp,,ACC028,"[2, -2, 2]","[2, -2, 2]",[],match,1.0,,0.8898457962654078,0.7872190756830858,1.2509079305515929,4th,4th,4th,1.2655098211303253,1.3033768632354497,1.4335288504227357
perc,resp,1409,1,3.3.2left.bmp,3.3.2right.bmp,,ACC028,"[2, 2, 0]","[2, 2, 0]",[],match,1.0,,-0.9118755079352543,0.02525692294917815,1.09970518388824,1st,3rd,4th,-1.2724344649878885,0.2522037501836961,1.4335288504227357
perc,resp,1495,0,2.2.2left.bmp,3.2.2right.bmp,,ACC028,"[0, 0, 0]","[2, 0, 0]",[],non-match,0.7113248654051871,4,-0.15622481148658487,-0.10348247127467469,1.2487208322630436,2nd,2nd,4th,-0.3195367130604944,-0.3163553752801602,1.4335288504227357
perc,resp,1146,0,1.1.3left.bmp,1.1.2right.bmp,,ACC028,"[-2, -2, 2]","[-2, -2, 0]",[],non-match,0.7113248654051871,4,0.005008902789483062,-0.26425556100217623,1.1010356594290114,3rd,2nd,4th,0.3264613569180576,-0.3163553752801602,1.4335288504227357
perc,resp,1057,1,3.3.1left.bmp,1.3.1right.bmp,,ACC028,"[2, 2, -2]","[-2, 2, -2]",[],non-match,0.42264973081037416,2,-0.005229973575914632,0.056405834146053775,1.2986031555701592,2nd,3rd,4th,-0.3195367130604944,0.2522037501836961,1.4335288504227357
perc,resp,1014,1,3.2.1left.bmp,3.2.1right.bmp,,ACC028,"[2, 0, -2]","[2, 0, -2]",[],match,1.0,,0.40047714384231825,0.20259889408554269,1.0557507508602464,3rd,3rd,4th,0.3264613569180576,0.2522037501836961,1.4335288504227357
perc,resp,973,1,2.2.1left.bmp,1.2.3right.bmp,,ACC028,"[0, 0, -2]","[-2, 0, 2]",[],non-match,0.3545027756320971,2,-0.12317993659642378,-0.0602511897991314,1.0303025373587327,2nd,2nd,4th,-0.3195367130604944,-0.3163553752801602,1.4335288504227357
perc,resp,1738,1,1.1.1left.bmp,1.1.1right.bmp,,ACC028,"[-2, -2, -2]","[-2, -2, -2]",[],match,1.0,,-0.2677854748604448,1.0419665770221695,0.7345821092825766,2nd,4th,4th,-0.3195367130604944,1.3033768632354497,1.4335288504227357
perc,resp,1953,1,2.3.3left.bmp,1.2.2right.bmp,,ACC028,"[0, 2, 2]","[-2, 0, 0]",[],non-match,0.5,3,-2.631400238925803,-1.020047333094042,0.7984602185278427,1st,1st,4th,-1.2724344649878885,-1.2392252381389854,1.4335288504227357
perc,resp,1913,1,3.3.3left.bmp,2.2.3right.bmp,,ACC028,"[2, 2, 2]","[0, 0, 2]",[],non-match,0.5917517095361369,3,0.2551457428764186,0.3416456044708954,0.561478332020693,3rd,3rd,4th,0.3264613569180576,0.2522037501836961,1.4335288504227357
perc,resp,1596,1,1.1.2left.bmp,1.1.2right.bmp,,ACC028,"[-2, -2, 0]","[-2, -2, 0]",[],match,1.0,,0.740051155272032,1.0388090662820877,0.8736572059957193,3rd,4th,4th,0.3264613569180576,1.3033768632354497,1.4335288504227357
perc,resp,2610,1,3.2.2left.bmp,3.2.2right.bmp,,ACC028,"[2, 0, 0]","[2, 0, 0]",[],match,1.0,,-1.570052069162539,-1.082380175178624,0.9235515692553738,1st,1st,4th,-1.2724344649878885,-1.2392252381389854,1.4335288504227357
perc,resp,1806,1,1.2.2left.bmp,1.2.2right.bmp,,ACC028,"[-2, 0, 0]","[-2, 0, 0]",[],match,1.0,,-0.10464740778397974,0.7003488849578192,0.9462041486209376,2nd,4th,4th,-0.3195367130604944,1.3033768632354497,1.4335288504227357
perc,resp,1195,1,2.1.2left.bmp,2.1.2right.bmp,,ACC028,"[0, -2, 0]","[0, -2, 0]",[],match,1.0,,0.8553906085074795,-0.3492506694517204,0.7406206687249729,4th,2nd,4th,1.2655098211303253,-0.3163553752801602,1.4335288504227357
perc,resp,1578,1,2.3.2left.bmp,1.1.1right.bmp,,ACC028,"[0, 2, 0]","[-2, -2, -2]",[],non-match,0.29289321881345254,1,0.23387570998496354,-0.402141730813659,0.6553024985129802,3rd,2nd,4th,0.3264613569180576,-0.3163553752801602,1.4335288504227357
perc,resp,1581,1,3.2.3left.bmp,3.2.3right.bmp,,ACC028,"[2, 0, 2]","[2, 0, 2]",[],match,1.0,,1.1484975804223054,-0.8369427700122072,0.4822066081979623,4th,1st,4th,1.2655098211303253,-1.2392252381389854,1.4335288504227357
perc,resp,1596,0,3.3.3left.bmp,3.3.3right.bmp,,ACC028,"[2, 2, 2]","[2, 2, 2]",[],match,1.0,,-0.552613387088179,-0.23650914313715818,0.3260575837130552,2nd,2nd,4th,-0.3195367130604944,-0.3163553752801602,1.4335288504227357
perc,resp,1188,1,3.1.2left.bmp,1.3.2right.bmp,,ACC028,"[2, -2, 0]","[-2, 2, 0]",[],non-match,0.18350341907227385,1,-0.7374168285190923,-0.38829267181084737,0.11065311602881787,1st,2nd,3rd,-1.2724344649878885,-0.3163553752801602,0.01401885272543439
perc,resp,1189,1,3.1.1left.bmp,2.3.2right.bmp,,ACC028,"[2, -2, -2]","[0, 2, 0]",[],non-match,0.29289321881345254,1,0.6905035538655804,0.1565542897947042,-0.16271420024517125,3rd,3rd,3rd,0.3264613569180576,0.2522037501836961,0.01401885272543439
perc,resp,1512,1,1.2.3left.bmp,2.2.1right.bmp,,ACC028,"[-2, 0, 2]","[0, 0, -2]",[],non-match,0.3545027756320971,2,0.9057228459861053,1.0741081175270342,-0.12660687432562176,4th,4th,3rd,1.2655098211303253,1.3033768632354497,0.01401885272543439
perc,resp,1213,1,2.2.3left.bmp,1.1.3right.bmp,,ACC028,"[0, 0, 2]","[-2, -2, 2]",[],non-match,0.5917517095361369,3,-0.7148423240732585,-0.5288327008473225,-0.20121709478868127,1st,2nd,2nd,-1.2724344649878885,-0.3163553752801602,-0.42146208262692153
perc,resp,1387,1,1.2.3left.bmp,3.2.3right.bmp,,ACC028,"[-2, 0, 2]","[2, 0, 2]",[],non-match,0.42264973081037416,2,-0.17954467588053602,1.1959679222379078,-0.24295208634204854,2nd,4th,2nd,-0.3195367130604944,1.3033768632354497,-0.42146208262692153
perc,resp,1722,0,2.3.1left.bmp,3.3.2right.bmp,,ACC028,"[0, 2, -2]","[2, 2, 0]",[],non-match,0.5917517095361369,3,-0.4345927265532051,0.06797085286433538,-0.08892416019875256,2nd,3rd,3rd,-0.3195367130604944,0.2522037501836961,0.01401885272543439
perc,resp,1919,1,1.1.1left.bmp,1.3.1right.bmp,,ACC028,"[-2, -2, -2]","[-2, 2, -2]",[],non-match,0.42264973081037416,2,-0.24592642467769044,-1.5861065913915324,-0.1178270942522236,2nd,1st,3rd,-0.3195367130604944,-1.2392252381389854,0.01401885272543439
perc,resp,1583,1,2.3.3left.bmp,2.3.3right.bmp,,ACC028,"[0, 2, 2]","[0, 2, 2]",[],match,1.0,,-1.3732780134747709,-0.8360347743111222,-0.34307906106690456,1st,1st,2nd,-1.2724344649878885,-1.2392252381389854,-0.42146208262692153
perc,resp,1681,1,3.1.2left.bmp,3.1.2right.bmp,,ACC028,"[2, -2, 0]","[2, -2, 0]",[],match,1.0,,-0.2554171641919129,0.43674377635455974,-0.13696228568407603,2nd,3rd,3rd,-0.3195367130604944,0.2522037501836961,0.01401885272543439
perc,resp,1464,1,2.2.3left.bmp,1.1.3right.bmp,,ACC028,"[0, 0, 2]","[-2, -2, 2]",[],non-match,0.5917517095361369,3,0.09106551000764948,-0.7641245264981059,-0.125328172534647,3rd,1st,3rd,0.3264613569180576,-1.2392252381389854,0.01401885272543439
perc,resp,1565,1,3.1.1left.bmp,3.1.1right.bmp,,ACC028,"[2, -2, -2]","[2, -2, -2]",[],match,1.0,,0.2850190988326127,0.06683682098672021,-0.10612928634093527,3rd,3rd,3rd,0.3264613569180576,0.2522037501836961,0.01401885272543439
perc,resp,1991,1,1.2.1left.bmp,1.2.1right.bmp,,ACC028,"[-2, 0, -2]","[-2, 0, -2]",[],match,1.0,,-0.5253998690963286,-0.020441436353015395,-0.2618182265306683,2nd,3rd,2nd,-0.3195367130604944,0.2522037501836961,-0.42146208262692153
perc,resp,1536,1,1.3.2left.bmp,1.1.1right.bmp,,ACC028,"[-2, 2, 0]","[-2, -2, -2]",[],non-match,0.3545027756320971,2,0.7968261784027673,-0.5906944394168531,-0.34735697450763414,4th,2nd,2nd,1.2655098211303253,-0.3163553752801602,-0.42146208262692153
perc,resp,1228,1,3.2.1left.bmp,3.2.1right.bmp,,ACC028,"[2, 0, -2]","[2, 0, -2]",[],match,1.0,,-0.9977201959195121,-1.1615791873622427,-0.5241738618505387,1st,1st,2nd,-1.2724344649878885,-1.2392252381389854,-0.42146208262692153
perc,resp,1468,1,3.1.3left.bmp,3.1.3right.bmp,,ACC028,"[2, -2, 2]","[2, -2, 2]",[],match,1.0,,0.8741064279687834,0.5393972695149273,-0.3118168085694919,4th,3rd,2nd,1.2655098211303253,0.2522037501836961,-0.42146208262692153
perc,resp,1371,1,2.1.3left.bmp,2.1.3right.bmp,,ACC028,"[0, -2, 2]","[0, -2, 2]",[],match,1.0,,0.04283546447802152,-1.066370777426407,-0.16683953594286963,3rd,1st,3rd,0.3264613569180576,-1.2392252381389854,0.01401885272543439
perc,resp,1200,1,1.1.3left.bmp,1.1.3right.bmp,,ACC028,"[-2, -2, 2]","[-2, -2, 2]",[],match,1.0,,-0.9142026772697106,-0.5662647078932792,-0.13712124106903614,1st,2nd,3rd,-1.2724344649878885,-0.3163553752801602,0.01401885272543439
perc,resp,1987,1,3.2.3left.bmp,3.2.2right.bmp,,ACC028,"[2, 0, 2]","[2, 0, 0]",[],non-match,0.7113248654051871,4,-0.7346453740510945,-1.0790676612483725,0.028990479152701473,1st,1st,3rd,-1.2724344649878885,-1.2392252381389854,0.01401885272543439
perc,resp,1239,1,2.3.2left.bmp,3.2.1right.bmp,,ACC028,"[0, 2, 0]","[2, 0, -2]",[],non-match,0.5,3,0.07814170468088019,0.050076330936327434,-0.235101212074333,3rd,3rd,2nd,0.3264613569180576,0.2522037501836961,-0.42146208262692153
perc,resp,1180,1,1.3.3left.bmp,1.3.3right.bmp,,ACC028,"[-2, 2, 2]","[-2, 2, 2]",[],match,1.0,,-0.5141245588387142,-0.5686124897299013,-0.13687875242858083,2nd,2nd,3rd,-0.3195367130604944,-0.3163553752801602,0.01401885272543439
perc,resp,1097,1,1.1.2left.bmp,1.1.2right.bmp,,ACC028,"[-2, -2, 0]","[-2, -2, 0]",[],match,1.0,,-0.5375071244829407,-0.09138943169146152,0.016247862664346722,2nd,2nd,3rd,-0.3195367130604944,-0.3163553752801602,0.01401885272543439
perc,resp,1470,0,1.2.2left.bmp,2.2.2right.bmp,,ACC028,"[-2, 0, 0]","[0, 0, 0]",[],non-match,0.7113248654051871,4,-0.4969490102354241,1.0717847873228086,0.038431062376993494,2nd,4th,3rd,-0.3195367130604944,1.3033768632354497,0.01401885272543439
perc,resp,1745,1,2.1.2left.bmp,3.1.2right.bmp,,ACC028,"[0, -2, 0]","[2, -2, 0]",[],non-match,0.7113248654051871,4,-2.220172924125482,-2.0828518642772123,-0.11734527981430118,1st,1st,3rd,-1.2724344649878885,-1.2392252381389854,0.01401885272543439
perc,resp,1339,1,3.2.2left.bmp,2.1.3right.bmp,,ACC028,"[2, 0, 0]","[0, -2, 2]",[],non-match,0.5,3,0.9414766458881406,0.061798399623317686,0.07818417141771644,4th,3rd,3rd,1.2655098211303253,0.2522037501836961,0.01401885272543439
perc,resp,1452,1,3.3.1left.bmp,3.1.3right.bmp,,ACC028,"[2, 2, -2]","[2, -2, 2]",[],non-match,0.18350341907227385,1,-0.14348257151850924,-1.3928727922735575,0.3180155387929356,2nd,1st,4th,-0.3195367130604944,-1.2392252381389854,1.4335288504227357
perc,resp,2108,0,2.1.1left.bmp,2.1.1right.bmp,,ACC028,"[0, -2, -2]","[0, -2, -2]",[],match,1.0,,-0.7819744988832142,-2.262734038431953,0.17295819607900184,1st,1st,3rd,-1.2724344649878885,-1.2392252381389854,0.01401885272543439
perc,resp,1431,1,3.3.3left.bmp,3.1.1right.bmp,,ACC028,"[2, 2, 2]","[2, -2, -2]",[],non-match,0.18350341907227385,1,0.6980420798072402,0.012500932825681578,0.25704079654515627,3rd,3rd,3rd,0.3264613569180576,0.2522037501836961,0.01401885272543439
perc,resp,2403,1,2.2.1left.bmp,2.2.1right.bmp,,ACC028,"[0, 0, -2]","[0, 0, -2]",[],match,1.0,,-2.0243534702198436,-2.014978819420891,0.21666843539738004,1st,1st,3rd,-1.2724344649878885,-1.2392252381389854,0.01401885272543439
perc,resp,1697,1,1.3.1left.bmp,1.3.1right.bmp,,ACC028,"[-2, 2, -2]","[-2, 2, -2]",[],match,1.0,,-1.5563813085863205,-0.8595808589128149,0.1320818097607289,1st,1st,3rd,-1.2724344649878885,-1.2392252381389854,0.01401885272543439
perc,resp,1624,1,3.3.2left.bmp,2.1.3right.bmp,,ACC028,"[2, 2, 0]","[0, -2, 2]",[],non-match,0.29289321881345254,1,-0.8745475445335458,-0.3693791353024269,0.06278731974367231,1st,2nd,3rd,-1.2724344649878885,-0.3163553752801602,0.01401885272543439
perc,resp,1467,1,2.2.3left.bmp,1.1.2right.bmp,,ACC028,"[0, 0, 2]","[-2, -2, 0]",[],non-match,0.5,3,1.6476988819968297,0.8780030635328518,-0.264720114354251,4th,4th,2nd,1.2655098211303253,1.3033768632354497,-0.42146208262692153
perc,resp,1398,1,1.1.1left.bmp,2.3.3right.bmp,,ACC028,"[-2, -2, -2]","[0, 2, 2]",[],non-match,0.1339745962155613,1,-0.7342662708907567,-0.02815326590494451,-0.23976008981793018,1st,2nd,2nd,-1.2724344649878885,-0.3163553752801602,-0.42146208262692153
perc,resp,1360,1,3.1.3left.bmp,2.2.1right.bmp,,ACC028,"[2, -2, 2]","[0, 0, -2]",[],non-match,0.29289321881345254,1,-1.149793576695606,-1.3229371723419208,-0.4362574014501004,1st,1st,2nd,-1.2724344649878885,-1.2392252381389854,-0.42146208262692153
perc,resp,1433,1,2.2.2left.bmp,1.2.1right.bmp,,ACC028,"[0, 0, 0]","[-2, 0, -2]",[],non-match,0.5917517095361369,3,-1.9342884391972621,-0.03387742321930205,-0.7457543697464848,1st,2nd,2nd,-1.2724344649878885,-0.3163553752801602,-0.42146208262692153
perc,resp,2152,1,2.1.1left.bmp,2.1.1right.bmp,,ACC028,"[0, -2, -2]","[0, -2, -2]",[],match,1.0,,-0.3096198130635833,-0.4260473636073911,-0.8662145741858115,2nd,2nd,1st,-0.3195367130604944,-0.3163553752801602,-1.026085620521249
perc,resp,1486,0,1.2.3left.bmp,2.1.3right.bmp,,ACC028,"[-2, 0, 2]","[0, -2, 2]",[],non-match,0.5917517095361369,3,0.16422121870576276,-0.82476799985346,-0.963347598551836,3rd,1st,1st,0.3264613569180576,-1.2392252381389854,-1.026085620521249
perc,resp,2063,0,2.2.1left.bmp,3.1.3right.bmp,,ACC028,"[0, 0, -2]","[2, -2, 2]",[],non-match,0.29289321881345254,1,-1.3389770199636795,-0.456600658820948,-1.4115983703720334,1st,2nd,1st,-1.2724344649878885,-0.3163553752801602,-1.026085620521249
perc,resp,2574,0,1.1.3left.bmp,2.2.3right.bmp,,ACC028,"[-2, -2, 2]","[0, 0, 2]",[],non-match,0.5917517095361369,3,-1.4661762547132215,-1.3040564556445284,-1.1334631224091194,1st,1st,1st,-1.2724344649878885,-1.2392252381389854,-1.026085620521249
perc,resp,2170,0,3.3.1left.bmp,3.1.1right.bmp,,ACC028,"[2, 2, -2]","[2, -2, -2]",[],non-match,0.42264973081037416,2,-2.3735148056048083,-1.7835065602276945,-1.1778345220122783,1st,1st,1st,-1.2724344649878885,-1.2392252381389854,-1.026085620521249
perc,resp,1342,0,3.1.2left.bmp,3.2.2right.bmp,,ACC028,"[2, -2, 0]","[2, 0, 0]",[],non-match,0.7113248654051871,4,-1.9211583209498913,-1.1518257802143326,-1.2059206251382588,1st,1st,1st,-1.2724344649878885,-1.2392252381389854,-1.026085620521249
perc,resp,2453,1,2.1.2left.bmp,2.1.2right.bmp,,ACC028,"[0, -2, 0]","[0, -2, 0]",[],match,1.0,,-0.7084770941607977,0.41759096217813085,-0.9541209065471171,1st,3rd,1st,-1.2724344649878885,0.2522037501836961,-1.026085620521249
perc,resp,1476,1,1.3.3left.bmp,1.3.3right.bmp,,ACC028,"[-2, 2, 2]","[-2, 2, 2]",[],match,1.0,,-1.3833644993551015,-1.8073757692773738,-0.98490643853245,1st,1st,1st,-1.2724344649878885,-1.2392252381389854,-1.026085620521249
perc,resp,1509,1,3.2.3left.bmp,3.2.3right.bmp,,ACC028,"[2, 0, 2]","[2, 0, 2]",[],match,1.0,,-0.8015577141982749,-0.5374949898981436,-1.002208796172838,1st,2nd,1st,-1.2724344649878885,-0.3163553752801602,-1.026085620521249
perc,resp,3095,1,3.2.2left.bmp,3.3.3right.bmp,,ACC028,"[2, 0, 0]","[2, 2, 2]",[],non-match,0.5917517095361369,3,-1.0173032646555658,-1.0801105686255004,-0.6442322782753582,1st,1st,2nd,-1.2724344649878885,-1.2392252381389854,-0.42146208262692153
perc,resp,1177,1,3.1.1left.bmp,1.2.3right.bmp,,ACC028,"[2, -2, -2]","[-2, 0, 2]",[],non-match,0.1339745962155613,1,-0.3632463350610791,-1.5055027862999375,-0.7890814614340322,2nd,1st,1st,-0.3195367130604944,-1.2392252381389854,-1.026085620521249
perc,resp,1760,1,2.3.3left.bmp,2.3.3right.bmp,,ACC028,"[0, 2, 2]","[0, 2, 2]",[],match,1.0,,-1.0500447426249857,-0.47686650910987727,-0.7483071249463805,1st,2nd,1st,-1.2724344649878885,-0.3163553752801602,-1.026085620521249
perc,resp,1464,1,1.2.2left.bmp,1.1.3right.bmp,,ACC028,"[-2, 0, 0]","[-2, -2, 2]",[],non-match,0.5917517095361369,3,0.9318143083163655,-0.5188311535146141,-0.5615328323612715,4th,2nd,2nd,1.2655098211303253,-0.3163553752801602,-0.42146208262692153
perc,resp,1262,1,3.3.3left.bmp,2.1.1right.bmp,,ACC028,"[2, 2, 2]","[0, -2, -2]",[],non-match,0.1339745962155613,1,-0.9728534849148444,-1.4679161017655886,-0.7642624194331991,1st,1st,1st,-1.2724344649878885,-1.2392252381389854,-1.026085620521249
perc,resp,1455,1,1.2.1left.bmp,3.2.3right.bmp,,ACC028,"[-2, 0, -2]","[2, 0, 2]",[],non-match,0.18350341907227385,1,-0.8031544945524937,-1.1553146325154051,-0.6345672274745414,1st,1st,2nd,-1.2724344649878885,-1.2392252381389854,-0.42146208262692153
perc,resp,1538,0,1.3.2left.bmp,1.3.2right.bmp,,ACC028,"[-2, 2, 0]","[-2, 2, 0]",[],match,1.0,,1.0266427922000392,0.9214028322521569,-0.36598124808179633,4th,4th,2nd,1.2655098211303253,1.3033768632354497,-0.42146208262692153
perc,resp,1266,1,3.2.1left.bmp,3.2.1right.bmp,,ACC028,"[2, 0, -2]","[2, 0, -2]",[],match,1.0,,0.8918606951175237,-0.6453569207498099,-0.24655645361654036,4th,1st,2nd,1.2655098211303253,-1.2392252381389854,-0.42146208262692153
perc,resp,1389,0,1.1.2left.bmp,2.1.2right.bmp,,ACC028,"[-2, -2, 0]","[0, -2, 0]",[],non-match,0.7113248654051871,4,0.6466215744073169,0.02349094734050511,-0.17791004889722695,3rd,3rd,3rd,0.3264613569180576,0.2522037501836961,0.01401885272543439
perc,resp,1410,1,3.3.2left.bmp,1.3.3right.bmp,,ACC028,"[2, 2, 0]","[-2, 2, 2]",[],non-match,0.3545027756320971,2,-0.9617900541839522,-1.2912251090578517,-0.2539685205233232,1st,1st,2nd,-1.2724344649878885,-1.2392252381389854,-0.42146208262692153
perc,resp,1463,1,2.3.1left.bmp,2.3.1right.bmp,,ACC028,"[0, 2, -2]","[0, 2, -2]",[],match,1.0,,-0.14495412571049884,-1.3525368367498043,-0.13744206799899336,2nd,1st,3rd,-0.3195367130604944,-1.2392252381389854,0.01401885272543439
perc,resp,2180,0,1.3.1left.bmp,1.3.1right.bmp,,ACC028,"[-2, 2, -2]","[-2, 2, -2]",[],match,1.0,,-1.9572911465194733,-2.4295663160359893,-0.12062180744954458,1st,1st,3rd,-1.2724344649878885,-1.2392252381389854,0.01401885272543439
perc,resp,1566,1,2.1.3left.bmp,2.1.3right.bmp,,ACC028,"[0, -2, 2]","[0, -2, 2]",[],match,1.0,,0.5401607940469565,-2.444519812624373,-0.18820977310645123,3rd,1st,2nd,0.3264613569180576,-1.2392252381389854,-0.42146208262692153
perc,resp,1436,1,3.1.2left.bmp,1.2.3right.bmp,,ACC028,"[2, -2, 0]","[-2, 0, 2]",[],non-match,0.29289321881345254,1,-0.4457812545357282,-0.16056223577514947,-0.2656424182364241,2nd,2nd,2nd,-0.3195367130604944,-0.3163553752801602,-0.42146208262692153
perc,resp,1167,0,3.3.1left.bmp,3.2.2right.bmp,,ACC028,"[2, 2, -2]","[2, 0, 0]",[],non-match,0.5917517095361369,3,0.3458667275304566,-0.35115759507597033,-0.3328000462050108,3rd,2nd,2nd,0.3264613569180576,-0.3163553752801602,-0.42146208262692153
perc,resp,1176,1,2.3.3left.bmp,2.3.3right.bmp,,ACC028,"[0, 2, 2]","[0, 2, 2]",[],match,1.0,,0.00676044040261759,-1.0807725767734035,-0.24470671481452347,3rd,1st,2nd,0.3264613569180576,-1.2392252381389854,-0.42146208262692153
perc,resp,1688,1,2.2.3left.bmp,2.2.3right.bmp,,ACC028,"[0, 0, 2]","[0, 0, 2]",[],match,1.0,,-1.146933830545512,-0.32047890124960593,-0.575241665553439,1st,2nd,2nd,-1.2724344649878885,-0.3163553752801602,-0.42146208262692153
perc,resp,1693,1,2.2.2left.bmp,1.2.2right.bmp,,ACC028,"[0, 0, 0]","[-2, 0, 0]",[],non-match,0.7113248654051871,4,-0.9241605843213884,-0.1445001737597176,-0.7889806016666466,1st,2nd,1st,-1.2724344649878885,-0.3163553752801602,-1.026085620521249
perc,resp,1739,1,1.2.3left.bmp,1.2.3right.bmp,,ACC028,"[-2, 0, 2]","[-2, 0, 2]",[],match,1.0,,-1.2232499925860203,-0.20174981059361832,-0.7870866755637331,1st,2nd,1st,-1.2724344649878885,-0.3163553752801602,-1.026085620521249
perc,resp,1402,1,3.1.3left.bmp,3.3.1right.bmp,,ACC028,"[2, -2, 2]","[2, 2, -2]",[],non-match,0.18350341907227385,1,-0.08353949713685596,-1.652691341723058,-0.6949507975141707,2nd,1st,2nd,-0.3195367130604944,-1.2392252381389854,-0.42146208262692153
perc,resp,1476,1,3.1.1left.bmp,3.1.1right.bmp,,ACC028,"[2, -2, -2]","[2, -2, -2]",[],match,1.0,,0.603225467422939,-0.2729872622444591,-0.6519394579400479,3rd,2nd,2nd,0.3264613569180576,-0.3163553752801602,-0.42146208262692153
perc,resp,1484,0,1.2.2left.bmp,1.3.3right.bmp,,ACC028,"[-2, 0, 0]","[-2, 2, 2]",[],non-match,0.5917517095361369,3,1.7915687659884603,0.10429702352129594,-0.764045736045654,4th,3rd,1st,1.2655098211303253,0.2522037501836961,-1.026085620521249
perc,resp,1246,1,2.3.1left.bmp,2.3.1right.bmp,,ACC028,"[0, 2, -2]","[0, 2, -2]",[],match,1.0,,0.09612693665090923,0.4576276920503823,-0.8164554680473118,3rd,3rd,1st,0.3264613569180576,0.2522037501836961,-1.026085620521249
perc,resp,1265,1,1.1.2left.bmp,1.1.2right.bmp,,ACC028,"[-2, -2, 0]","[-2, -2, 0]",[],match,1.0,,-0.19416453344394086,1.261397199229534,-1.0796243799923995,2nd,4th,1st,-0.3195367130604944,1.3033768632354497,-1.026085620521249
perc,resp,1257,1,1.2.1left.bmp,1.2.1right.bmp,,ACC028,"[-2, 0, -2]","[-2, 0, -2]",[],match,1.0,,0.042009695196516324,1.0014619474046875,-1.0867482771810948,3rd,4th,1st,0.3264613569180576,1.3033768632354497,-1.026085620521249
perc,resp,1006,1,3.3.2left.bmp,3.3.2right.bmp,,ACC028,"[2, 2, 0]","[2, 2, 0]",[],match,1.0,,0.4470275276990932,0.6650133551137842,-0.9695084633313966,3rd,4th,1st,0.3264613569180576,1.3033768632354497,-1.026085620521249
perc,resp,1034,1,1.2.3left.bmp,1.2.3right.bmp,,ACC028,"[-2, 0, 2]","[-2, 0, 2]",[],match,1.0,,1.1839676650804274,1.2774330268238918,-0.8141875210921591,4th,4th,1st,1.2655098211303253,1.3033768632354497,-1.026085620521249
perc,resp,1193,1,2.1.1left.bmp,2.1.1right.bmp,,ACC028,"[0, -2, -2]","[0, -2, -2]",[],match,1.0,,1.689550974616074,1.2255430150180027,-1.0230785388882884,4th,4th,1st,1.2655098211303253,1.3033768632354497,-1.026085620521249
perc,resp,1474,1,2.1.2left.bmp,2.1.2right.bmp,,ACC028,"[0, -2, 0]","[0, -2, 0]",[],match,1.0,,0.9169561453918215,1.4478612063321912,-1.2886497798850152,4th,4th,1st,1.2655098211303253,1.3033768632354497,-1.026085620521249
perc,resp,1386,1,2.2.2left.bmp,1.2.2right.bmp,,ACC028,"[0, 0, 0]","[-2, 0, 0]",[],non-match,0.7113248654051871,4,0.19471042326366786,0.6282597128732896,-1.1584491231780623,3rd,3rd,1st,0.3264613569180576,0.2522037501836961,-1.026085620521249
perc,resp,1481,1,2.2.1left.bmp,3.2.3right.bmp,,ACC028,"[0, 0, -2]","[2, 0, 2]",[],non-match,0.3545027756320971,2,-1.6272738771563264,0.4403564193301908,-1.0037240089346684,1st,3rd,1st,-1.2724344649878885,0.2522037501836961,-1.026085620521249
perc,resp,1220,0,3.1.1left.bmp,1.1.1right.bmp,,ACC028,"[2, -2, -2]","[-2, -2, -2]",[],non-match,0.42264973081037416,2,0.06971691141391759,1.6528131160034492,-0.8305911024939342,3rd,4th,1st,0.3264613569180576,1.3033768632354497,-1.026085620521249
perc,resp,1051,1,3.3.1left.bmp,1.2.3right.bmp,,ACC028,"[2, 2, -2]","[-2, 0, 2]",[],non-match,0.1339745962155613,1,-0.2341365740259925,2.7497720950670774,-1.0029439444848016,2nd,4th,1st,-0.3195367130604944,1.3033768632354497,-1.026085620521249
perc,resp,1320,1,1.3.3left.bmp,2.2.2right.bmp,,ACC028,"[-2, 2, 2]","[0, 0, 0]",[],non-match,0.5,3,0.8363730088441076,0.051927468988737874,-0.7110999296753905,4th,3rd,2nd,1.2655098211303253,0.2522037501836961,-0.42146208262692153
perc,resp,1189,1,1.3.1left.bmp,1.1.2right.bmp,,ACC028,"[-2, 2, -2]","[-2, -2, 0]",[],non-match,0.3545027756320971,2,-0.5772584278850807,-0.3450230466649837,-0.8156467039303942,2nd,2nd,1st,-0.3195367130604944,-0.3163553752801602,-1.026085620521249
perc,resp,1331,1,3.1.3left.bmp,1.2.2right.bmp,,ACC028,"[2, -2, 2]","[-2, 0, 0]",[],non-match,0.29289321881345254,1,-1.4529764288123583,1.3279751406796885,-0.6439800718802229,1st,4th,2nd,-1.2724344649878885,1.3033768632354497,-0.42146208262692153
perc,resp,2543,1,1.1.1left.bmp,1.1.1right.bmp,,ACC028,"[-2, -2, -2]","[-2, -2, -2]",[],match,1.0,,-0.5610138164459078,0.36130123362311156,-0.5640013379521802,2nd,3rd,2nd,-0.3195367130604944,0.2522037501836961,-0.42146208262692153
perc,resp,1182,1,3.2.3left.bmp,1.3.2right.bmp,,ACC028,"[2, 0, 2]","[-2, 2, 0]",[],non-match,0.29289321881345254,1,-0.3431020688580785,1.6098303004144816,-0.5045803206688549,2nd,4th,2nd,-0.3195367130604944,1.3033768632354497,-0.42146208262692153
perc,resp,3039,1,3.3.3left.bmp,2.1.3right.bmp,,ACC028,"[2, 2, 2]","[0, -2, 2]",[],non-match,0.3545027756320971,2,-0.47281755394736985,-0.7979917995856936,-0.453763133720533,2nd,1st,2nd,-0.3195367130604944,-1.2392252381389854,-0.42146208262692153
perc,resp,1199,1,1.1.3left.bmp,3.3.2right.bmp,,ACC028,"[-2, -2, 2]","[2, 2, 0]",[],non-match,0.1339745962155613,1,-1.3834998034807646,2.585503423011246,-0.7325249965444055,1st,4th,2nd,-1.2724344649878885,1.3033768632354497,-0.42146208262692153
perc,resp,2399,0,3.2.1left.bmp,3.3.1right.bmp,,ACC028,"[2, 0, -2]","[2, 2, -2]",[],non-match,0.7113248654051871,4,-0.44846722210548806,-1.1026042739281072,-0.7590292571100506,2nd,1st,1st,-0.3195367130604944,-1.2392252381389854,-1.026085620521249
perc,resp,0,0,2.3.2left.bmp,2.3.2right.bmp,,ACC028,"[0, 2, 0]","[0, 2, 0]",[],match,1.0,,0.7634307529485584,1.069998817053432,-0.696780909254046,4th,4th,2nd,1.2655098211303253,1.3033768632354497,-0.42146208262692153
perc,resp,1999,1,1.3.2left.bmp,1.3.2right.bmp,,ACC028,"[-2, 2, 0]","[-2, 2, 0]",[],match,1.0,,-0.5449660800296884,-0.18321883310782325,-0.5423434184911281,2nd,2nd,2nd,-0.3195367130604944,-0.3163553752801602,-0.42146208262692153
perc,resp,1463,1,3.1.2left.bmp,3.1.2right.bmp,,ACC028,"[2, -2, 0]","[2, -2, 0]",[],match,1.0,,-0.270668001063893,0.5652189887239588,-0.3919157070001067,2nd,3rd,2nd,-0.3195367130604944,0.2522037501836961,-0.42146208262692153
perc,resp,1323,1,3.2.2left.bmp,1.3.1right.bmp,,ACC028,"[2, 0, 0]","[-2, 2, -2]",[],non-match,0.29289321881345254,1,0.14408743581879016,0.7633448473975918,-0.18029291321197763,3rd,4th,2nd,0.3264613569180576,1.3033768632354497,-0.42146208262692153
perc,resp,1796,1,2.1.3left.bmp,2.1.3right.bmp,,ACC028,"[0, -2, 2]","[0, -2, 2]",[],match,1.0,,0.3331377793276591,0.2976966545564356,-0.2543721459115231,3rd,3rd,2nd,0.3264613569180576,0.2522037501836961,-0.42146208262692153
perc,resp,2218,0,2.2.3left.bmp,2.2.3right.bmp,,ACC028,"[0, 0, 2]","[0, 0, 2]",[],match,1.0,,-1.047738093589082,-0.13247152027527226,-0.39183968304455924,1st,2nd,2nd,-1.2724344649878885,-0.3163553752801602,-0.42146208262692153
perc,resp,1337,1,3.2.2left.bmp,3.2.2right.bmp,,ACC028,"[2, 0, 0]","[2, 0, 0]",[],match,1.0,,0.5514172988411129,1.2138913664837647,-0.29610419963394274,3rd,4th,2nd,0.3264613569180576,1.3033768632354497,-0.42146208262692153
perc,resp,1249,1,2.2.1left.bmp,2.2.1right.bmp,,ACC028,"[0, 0, -2]","[0, 0, -2]",[],match,1.0,,0.3638518512707902,-0.5313488190763567,-0.5560613643553178,3rd,2nd,2nd,0.3264613569180576,-0.3163553752801602,-0.42146208262692153
perc,resp,1230,1,3.1.1left.bmp,3.1.1right.bmp,,ACC028,"[2, -2, -2]","[2, -2, -2]",[],match,1.0,,-1.1342280382141585,-0.4851451351804691,-0.44257369581424755,1st,2nd,2nd,-1.2724344649878885,-0.3163553752801602,-0.42146208262692153
perc,resp,1201,1,1.1.3left.bmp,1.3.1right.bmp,,ACC028,"[-2, -2, 2]","[-2, 2, -2]",[],non-match,0.18350341907227385,1,1.0742161728436481,0.8863725158296709,-0.5279419503981226,4th,4th,2nd,1.2655098211303253,1.3033768632354497,-0.42146208262692153
perc,resp,1512,1,3.1.3left.bmp,3.1.3right.bmp,,ACC028,"[2, -2, 2]","[2, -2, 2]",[],match,1.0,,1.285961635044014,0.9987003803160696,-0.5256341560594958,4th,4th,2nd,1.2655098211303253,1.3033768632354497,-0.42146208262692153
perc,resp,1363,0,1.1.1left.bmp,2.1.2right.bmp,,ACC028,"[-2, -2, -2]","[0, -2, 0]",[],non-match,0.5917517095361369,3,0.9693742663550874,-0.5024105932668208,-0.42684448950674364,4th,2nd,2nd,1.2655098211303253,-0.3163553752801602,-0.42146208262692153
perc,resp,1576,1,1.3.2left.bmp,1.3.2right.bmp,,ACC028,"[-2, 2, 0]","[-2, 2, 0]",[],match,1.0,,-0.997082743794035,-0.13928741623431598,-0.4685011783080665,1st,2nd,2nd,-1.2724344649878885,-0.3163553752801602,-0.42146208262692153
perc,resp,1991,1,2.1.3left.bmp,2.2.1right.bmp,,ACC028,"[0, -2, 2]","[0, 0, -2]",[],non-match,0.3545027756320971,2,-0.03488362410370711,0.18736573280873067,-0.5101056851792378,2nd,3rd,2nd,-0.3195367130604944,0.2522037501836961,-0.42146208262692153
perc,resp,1273,1,2.3.2left.bmp,3.1.2right.bmp,,ACC028,"[0, 2, 0]","[2, -2, 0]",[],non-match,0.3545027756320971,2,0.8143226258838704,0.4937454547109699,-0.5518955519888286,4th,3rd,2nd,1.2655098211303253,0.2522037501836961,-0.42146208262692153
perc,resp,1144,1,1.2.3left.bmp,3.3.1right.bmp,,ACC028,"[-2, 0, 2]","[2, 2, -2]",[],non-match,0.1339745962155613,1,-1.190838766052736,-0.3919896544046726,-0.771247172672222,1st,2nd,1st,-1.2724344649878885,-0.3163553752801602,-1.026085620521249
perc,resp,2118,1,2.2.2left.bmp,2.2.2right.bmp,,ACC028,"[0, 0, 0]","[0, 0, 0]",[],match,1.0,,1.7185414143047768,0.08503174280684922,-1.1704971427147377,4th,3rd,1st,1.2655098211303253,0.2522037501836961,-1.026085620521249
perc,resp,1444,0,2.3.3left.bmp,2.2.3right.bmp,,ACC028,"[0, 2, 2]","[0, 0, 2]",[],non-match,0.7113248654051871,4,1.119880825277467,0.4781043913847973,-1.1900717132531557,4th,3rd,1st,1.2655098211303253,0.2522037501836961,-1.026085620521249
perc,resp,1639,1,3.2.3left.bmp,2.2.1right.bmp,,ACC028,"[2, 0, 2]","[0, 0, -2]",[],non-match,0.3545027756320971,2,0.8630961352691024,2.2854154366262938,-1.463351286264805,4th,4th,1st,1.2655098211303253,1.3033768632354497,-1.026085620521249
perc,resp,1430,1,1.3.1left.bmp,1.3.1right.bmp,,ACC028,"[-2, 2, -2]","[-2, 2, -2]",[],match,1.0,,0.4627514191066753,-0.8057398471752896,-1.3252866871900633,3rd,1st,1st,0.3264613569180576,-1.2392252381389854,-1.026085620521249
perc,resp,1301,1,2.1.1left.bmp,1.2.1right.bmp,,ACC028,"[0, -2, -2]","[-2, 0, -2]",[],non-match,0.5917517095361369,3,0.511479294540857,-0.5920243723425826,-1.4588203118443357,3rd,2nd,1st,0.3264613569180576,-0.3163553752801602,-1.026085620521249
perc,resp,1210,1,3.2.1left.bmp,1.2.2right.bmp,,ACC028,"[2, 0, -2]","[-2, 0, 0]",[],non-match,0.3545027756320971,2,0.9176680097386811,-0.4330634735917726,-1.519792220525893,4th,2nd,1st,1.2655098211303253,-0.3163553752801602,-1.026085620521249
perc,resp,1271,1,2.3.1left.bmp,1.2.3right.bmp,,ACC028,"[0, 2, -2]","[-2, 0, 2]",[],non-match,0.29289321881345254,1,-0.16220624014695398,-1.50664949311936,-1.4138515768876847,2nd,1st,1st,-0.3195367130604944,-1.2392252381389854,-1.026085620521249
perc,resp,1876,1,3.3.3left.bmp,3.1.3right.bmp,,ACC028,"[2, 2, 2]","[2, -2, 2]",[],non-match,0.42264973081037416,2,0.06176521173447816,-0.28239106110431555,-1.305149973876398,3rd,2nd,1st,0.3264613569180576,-0.3163553752801602,-1.026085620521249
perc,resp,2518,1,3.1.2left.bmp,3.1.2right.bmp,,ACC028,"[2, -2, 0]","[2, -2, 0]",[],match,1.0,,0.17562410818355945,-0.27659673734174817,-1.1133825520687708,3rd,2nd,1st,0.3264613569180576,-0.3163553752801602,-1.026085620521249
perc,resp,3074,1,2.1.2left.bmp,3.2.2right.bmp,,ACC028,"[0, -2, 0]","[2, 0, 0]",[],non-match,0.5917517095361369,3,-1.1548441515428614,-0.10601858416441261,-1.273495528806146,1st,2nd,1st,-1.2724344649878885,-0.3163553752801602,-1.026085620521249
perc,resp,1113,1,3.3.1left.bmp,1.1.3right.bmp,,ACC028,"[2, 2, -2]","[-2, -2, 2]",[],non-match,0.0,1,2.2629849310930954,0.484261238368009,-1.1809324427410133,4th,3rd,1st,1.2655098211303253,0.2522037501836961,-1.026085620521249
perc,resp,1081,1,1.2.1left.bmp,3.3.3right.bmp,,ACC028,"[-2, 0, -2]","[2, 2, 2]",[],non-match,0.1339745962155613,1,-0.08638551766577258,0.17584321302976377,-0.9975978265573606,2nd,3rd,1st,-0.3195367130604944,0.2522037501836961,-1.026085620521249
perc,resp,1427,1,2.2.3left.bmp,1.1.1right.bmp,,ACC028,"[0, 0, 2]","[-2, -2, -2]",[],non-match,0.29289321881345254,1,0.3325043796553789,-1.0953752749765808,-0.9042557005593812,3rd,1st,1st,0.3264613569180576,-1.2392252381389854,-1.026085620521249
perc,resp,1820,1,1.2.2left.bmp,2.3.1right.bmp,,ACC028,"[-2, 0, 0]","[0, 2, -2]",[],non-match,0.5,3,1.2937240755713122,2.195677260042135,-0.8099772827458793,4th,4th,1st,1.2655098211303253,1.3033768632354497,-1.026085620521249
perc,resp,1712,1,1.3.3left.bmp,1.3.3right.bmp,,ACC028,"[-2, 2, 2]","[-2, 2, 2]",[],match,1.0,,-0.5166513778535187,-1.206488965234551,-0.9064924890232658,2nd,1st,1st,-0.3195367130604944,-1.2392252381389854,-1.026085620521249
perc,resp,1506,1,1.1.2left.bmp,1.1.2right.bmp,,ACC028,"[-2, -2, 0]","[-2, -2, 0]",[],match,1.0,,1.2295604089425878,0.2835416690166032,-0.9321903734857524,4th,3rd,1st,1.2655098211303253,0.2522037501836961,-1.026085620521249
perc,resp,1429,1,2.3.3left.bmp,2.3.3right.bmp,,ACC028,"[0, 2, 2]","[0, 2, 2]",[],match,1.0,,2.2563847199166354,0.9685803027510906,-1.0630173873797946,4th,4th,1st,1.2655098211303253,1.3033768632354497,-1.026085620521249
perc,resp,1260,0,3.3.2left.bmp,3.2.2right.bmp,,ACC028,"[2, 2, 0]","[2, 0, 0]",[],non-match,0.7113248654051871,4,0.23611657773415756,-1.3525947019561408,-1.033356420555876,3rd,1st,1st,0.3264613569180576,-1.2392252381389854,-1.026085620521249
perc,resp,1270,1,1.3.2left.bmp,1.2.1right.bmp,,ACC028,"[-2, 2, 0]","[-2, 0, -2]",[],non-match,0.5917517095361369,3,-0.0012129950491742544,-1.3436058128765225,-1.1240478598041568,3rd,1st,1st,0.3264613569180576,-1.2392252381389854,-1.026085620521249
perc,resp,1615,1,2.2.1left.bmp,2.2.1right.bmp,,ACC028,"[0, 0, -2]","[0, 0, -2]",[],match,1.0,,0.49210541100713306,-0.44313534508091995,-1.180951612695545,3rd,2nd,1st,0.3264613569180576,-0.3163553752801602,-1.026085620521249
perc,resp,1234,1,2.1.2left.bmp,2.1.2right.bmp,,ACC028,"[0, -2, 0]","[0, -2, 0]",[],match,1.0,,0.7576000620824314,-0.5847247029622009,-1.2276543136116582,3rd,2nd,1st,0.3264613569180576,-0.3163553752801602,-1.026085620521249
perc,resp,1879,1,1.1.2left.bmp,2.1.1right.bmp,,ACC028,"[-2, -2, 0]","[0, -2, -2]",[],non-match,0.5917517095361369,3,-1.1464245377263005,-1.556888646038532,-0.9839557430808928,1st,1st,1st,-1.2724344649878885,-1.2392252381389854,-1.026085620521249
perc,resp,1460,1,2.2.3left.bmp,2.2.3right.bmp,,ACC028,"[0, 0, 2]","[0, 0, 2]",[],match,1.0,,1.4654576441121743,0.4629491242594229,-0.8501181262442423,4th,3rd,1st,1.2655098211303253,0.2522037501836961,-1.026085620521249
perc,resp,1303,1,3.2.1left.bmp,2.3.2right.bmp,,ACC028,"[2, 0, -2]","[0, 2, 0]",[],non-match,0.5,3,0.9327953283345556,1.036309980541801,-0.9097078315264797,4th,4th,1st,1.2655098211303253,1.3033768632354497,-1.026085620521249
perc,resp,1465,1,1.3.3left.bmp,1.3.3right.bmp,,ACC028,"[-2, 2, 2]","[-2, 2, 2]",[],match,1.0,,0.6988692643849909,3.1675876562841596,-0.766321299550428,3rd,4th,1st,0.3264613569180576,1.3033768632354497,-1.026085620521249
perc,resp,1083,1,3.2.2left.bmp,3.2.2right.bmp,,ACC028,"[2, 0, 0]","[2, 0, 0]",[],match,1.0,,0.9149667645647723,0.922911894298675,-0.8903686178633363,4th,4th,1st,1.2655098211303253,1.3033768632354497,-1.026085620521249
perc,resp,992,0,2.3.1left.bmp,3.3.1right.bmp,,ACC028,"[0, 2, -2]","[2, 2, -2]",[],non-match,0.7113248654051871,4,0.30941816808002276,1.2368138598907743,-0.9391886905208331,3rd,4th,1st,0.3264613569180576,1.3033768632354497,-1.026085620521249
perc,resp,1071,1,3.1.3left.bmp,1.3.2right.bmp,,ACC028,"[2, -2, 2]","[-2, 2, 0]",[],non-match,0.1339745962155613,1,-0.34432137450293965,-1.594299905881257,-1.065946606402581,2nd,1st,1st,-0.3195367130604944,-1.2392252381389854,-1.026085620521249
perc,resp,1110,1,3.2.1left.bmp,2.3.3right.bmp,,ACC028,"[2, 0, -2]","[0, 2, 2]",[],non-match,0.29289321881345254,1,0.4845960381420854,0.7688484531819316,-0.9660241406439468,3rd,4th,1st,0.3264613569180576,1.3033768632354497,-1.026085620521249
perc,resp,1089,1,1.3.1left.bmp,1.3.1right.bmp,,ACC028,"[-2, 2, -2]","[-2, 2, -2]",[],match,1.0,,2.425394392661012,1.0459897002338638,-1.0037650927474915,4th,4th,1st,1.2655098211303253,1.3033768632354497,-1.026085620521249
perc,resp,1390,0,2.1.2left.bmp,3.1.2right.bmp,,ACC028,"[0, -2, 0]","[2, -2, 0]",[],non-match,0.7113248654051871,4,-0.735611294513361,-1.347081304547835,-0.9088993908068448,1st,1st,1st,-1.2724344649878885,-1.2392252381389854,-1.026085620521249
perc,resp,999,1,2.2.3left.bmp,2.2.3right.bmp,,ACC028,"[0, 0, 2]","[0, 0, 2]",[],match,1.0,,-0.9236769308425394,0.7648140298327752,-0.9514918955842432,1st,4th,1st,-1.2724344649878885,1.3033768632354497,-1.026085620521249
perc,resp,958,1,1.2.1left.bmp,1.2.1right.bmp,,ACC028,"[-2, 0, -2]","[-2, 0, -2]",[],match,1.0,,0.6707460817031804,1.0762304588785352,-0.6593553458942433,3rd,4th,2nd,0.3264613569180576,1.3033768632354497,-0.42146208262692153
perc,resp,1205,1,3.1.1left.bmp,3.1.1right.bmp,,ACC028,"[2, -2, -2]","[2, -2, -2]",[],match,1.0,,1.4537307654109106,0.6610371878130976,-0.412802545833838,4th,4th,2nd,1.2655098211303253,1.3033768632354497,-0.42146208262692153
perc,resp,1082,1,2.2.1left.bmp,1.1.2right.bmp,,ACC028,"[0, 0, -2]","[-2, -2, 0]",[],non-match,0.5,3,-0.684879355443748,0.045952576160680485,-0.16916588259403112,1st,3rd,3rd,-1.2724344649878885,0.2522037501836961,0.01401885272543439
perc,resp,1083,1,2.1.1left.bmp,1.1.1right.bmp,,ACC028,"[0, -2, -2]","[-2, -2, -2]",[],non-match,0.7113248654051871,4,-0.47071154534225496,0.05713710663395412,-0.18991308761921832,2nd,3rd,2nd,-0.3195367130604944,0.2522037501836961,-0.42146208262692153
perc,resp,1252,1,2.3.3left.bmp,2.3.3right.bmp,,ACC028,"[0, 2, 2]","[0, 2, 2]",[],match,1.0,,-0.28551650668304906,1.280128822724077,-0.07832770897682613,2nd,4th,3rd,-0.3195367130604944,1.3033768632354497,0.01401885272543439
perc,resp,1093,1,1.1.3left.bmp,1.3.1right.bmp,,ACC028,"[-2, -2, 2]","[-2, 2, -2]",[],non-match,0.18350341907227385,1,-0.955514341022734,0.13671518426007845,-0.27271408238440736,1st,3rd,2nd,-1.2724344649878885,0.2522037501836961,-0.42146208262692153
perc,resp,1464,1,3.1.2left.bmp,3.1.2right.bmp,,ACC028,"[2, -2, 0]","[2, -2, 0]",[],match,1.0,,2.534713166101146,2.6730571074878617,-0.19585431600194042,4th,4th,2nd,1.2655098211303253,1.3033768632354497,-0.42146208262692153
perc,resp,1193,1,1.2.2left.bmp,2.3.1right.bmp,,ACC028,"[-2, 0, 0]","[0, 2, -2]",[],non-match,0.5,3,1.174739233611747,-0.6876722191167282,-0.29434272987444726,4th,1st,2nd,1.2655098211303253,-1.2392252381389854,-0.42146208262692153
perc,resp,1638,1,3.2.3left.bmp,3.2.3right.bmp,,ACC028,"[2, 0, 2]","[2, 0, 2]",[],match,1.0,,-0.4864629452859273,-2.0744436568973006,-0.14859075210806677,2nd,1st,3rd,-0.3195367130604944,-1.2392252381389854,0.01401885272543439
perc,resp,1087,1,3.3.3left.bmp,1.3.3right.bmp,,ACC028,"[2, 2, 2]","[-2, 2, 2]",[],non-match,0.42264973081037416,2,0.06630834970175031,-0.1321794446348981,-0.17785173019327016,3rd,2nd,3rd,0.3264613569180576,-0.3163553752801602,0.01401885272543439
perc,resp,1206,1,1.2.3left.bmp,1.2.1right.bmp,,ACC028,"[-2, 0, 2]","[-2, 0, -2]",[],non-match,0.42264973081037416,2,0.1666949510738687,2.3161054031626023,-0.03472310039720754,3rd,4th,3rd,0.3264613569180576,1.3033768632354497,0.01401885272543439
perc,resp,1013,1,1.1.1left.bmp,3.1.2right.bmp,,ACC028,"[-2, -2, -2]","[2, -2, 0]",[],non-match,0.3545027756320971,2,-0.131375444695505,-0.10874825304946621,-0.001989137147876978,2nd,2nd,3rd,-0.3195367130604944,-0.3163553752801602,0.01401885272543439
perc,resp,1960,1,1.3.2left.bmp,1.3.2right.bmp,,ACC028,"[-2, 2, 0]","[-2, 2, 0]",[],match,1.0,,-1.0734978095532755,0.10245584165796047,0.09892585475263754,1st,3rd,3rd,-1.2724344649878885,0.2522037501836961,0.01401885272543439
perc,resp,1040,1,3.3.1left.bmp,3.3.1right.bmp,,ACC028,"[2, 2, -2]","[2, 2, -2]",[],match,1.0,,1.5034013779382907,-0.14419118905442793,0.013868373585932878,4th,2nd,3rd,1.2655098211303253,-0.3163553752801602,0.01401885272543439
perc,resp,1351,1,3.3.2left.bmp,3.3.2right.bmp,,ACC028,"[2, 2, 0]","[2, 2, 0]",[],match,1.0,,0.1414468929909968,0.15921634984761213,-0.03276499942346011,3rd,3rd,3rd,0.3264613569180576,0.2522037501836961,0.01401885272543439
perc,resp,1130,1,2.3.2left.bmp,1.1.2right.bmp,,ACC028,"[0, 2, 0]","[-2, -2, 0]",[],non-match,0.3545027756320971,2,-0.3084040972347545,-0.7819118171156154,-0.00344859206220357,2nd,1st,3rd,-0.3195367130604944,-1.2392252381389854,0.01401885272543439
perc,resp,1069,1,2.1.3left.bmp,3.2.1right.bmp,,ACC028,"[0, -2, 2]","[2, 0, -2]",[],non-match,0.29289321881345254,1,-0.4347245047090696,-0.5416175104354753,-0.027126913922601567,2nd,2nd,3rd,-0.3195367130604944,-0.3163553752801602,0.01401885272543439
perc,resp,1461,1,2.2.2left.bmp,2.2.2right.bmp,,ACC028,"[0, 0, 0]","[0, 0, 0]",[],match,1.0,,1.2587450121906436,0.9204681572899385,0.06545037613184604,4th,4th,3rd,1.2655098211303253,1.3033768632354497,0.01401885272543439
perc,resp,1360,1,3.3.3left.bmp,3.2.2right.bmp,,ACC028,"[2, 2, 2]","[2, 0, 0]",[],non-match,0.5917517095361369,3,-0.02448042474220596,-0.06377059292694116,-0.04022032506710949,2nd,2nd,3rd,-0.3195367130604944,-0.3163553752801602,0.01401885272543439
perc,resp,1443,1,2.3.3left.bmp,2.3.3right.bmp,,ACC028,"[0, 2, 2]","[0, 2, 2]",[],match,1.0,,-0.24338413365919964,-0.5799517799741217,-0.0013326940786816627,2nd,2nd,3rd,-0.3195367130604944,-0.3163553752801602,0.01401885272543439
perc,resp,1194,1,1.3.1left.bmp,1.3.1right.bmp,,ACC028,"[-2, 2, -2]","[-2, 2, -2]",[],match,1.0,,-0.08503622201469199,-1.8431003447520675,0.2775416071208803,2nd,1st,4th,-0.3195367130604944,-1.2392252381389854,1.4335288504227357
perc,resp,1123,1,2.1.1left.bmp,1.1.3right.bmp,,ACC028,"[0, -2, -2]","[-2, -2, 2]",[],non-match,0.3545027756320971,2,1.1718288836039426,1.2192165836903044,0.2594612628104889,4th,4th,3rd,1.2655098211303253,1.3033768632354497,0.01401885272543439
perc,resp,1182,1,1.2.2left.bmp,2.2.1right.bmp,,ACC028,"[-2, 0, 0]","[0, 0, -2]",[],non-match,0.5917517095361369,3,-0.24605139385565483,-0.6701070673968468,0.4584321720671823,2nd,1st,4th,-0.3195367130604944,-1.2392252381389854,1.4335288504227357
perc,resp,1041,1,1.3.2left.bmp,2.1.2right.bmp,,ACC028,"[-2, 2, 0]","[0, -2, 0]",[],non-match,0.3545027756320971,2,-0.27345554463172994,0.3364036572093431,0.40092800087392505,2nd,3rd,4th,-0.3195367130604944,0.2522037501836961,1.4335288504227357
perc,resp,940,1,1.3.3left.bmp,1.3.3right.bmp,,ACC028,"[-2, 2, 2]","[-2, 2, 2]",[],match,1.0,,1.0716197746961955,-0.4010397171349999,0.5938373107761983,4th,2nd,4th,1.2655098211303253,-0.3163553752801602,1.4335288504227357
perc,resp,1209,1,3.1.1left.bmp,3.1.1right.bmp,,ACC028,"[2, -2, -2]","[2, -2, -2]",[],match,1.0,,-0.43368292077194004,-0.6114038612424476,0.54206501346164,2nd,1st,4th,-0.3195367130604944,-1.2392252381389854,1.4335288504227357
perc,resp,1330,1,2.2.1left.bmp,2.2.2right.bmp,,ACC028,"[0, 0, -2]","[0, 0, 0]",[],non-match,0.7113248654051871,4,0.5702331642891008,0.8001300312839149,0.26952140594667906,3rd,4th,3rd,0.3264613569180576,1.3033768632354497,0.01401885272543439
perc,resp,1241,1,2.1.3left.bmp,3.1.2right.bmp,,ACC028,"[0, -2, 2]","[2, -2, 0]",[],non-match,0.5917517095361369,3,0.45022879481255934,1.6949980102355042,0.09016943104911912,3rd,4th,3rd,0.3264613569180576,1.3033768632354497,0.01401885272543439
perc,resp,1322,0,2.2.3left.bmp,2.3.2right.bmp,,ACC028,"[0, 0, 2]","[0, 2, 0]",[],non-match,0.5917517095361369,3,-0.11340287221606245,1.298499335515159,0.006217859004133316,2nd,4th,3rd,-0.3195367130604944,1.3033768632354497,0.01401885272543439
perc,resp,1133,1,3.3.1left.bmp,3.3.1right.bmp,,ACC028,"[2, 2, -2]","[2, 2, -2]",[],match,1.0,,-0.36446266228698754,-0.864748808444721,-0.05630822016639457,2nd,1st,3rd,-0.3195367130604944,-1.2392252381389854,0.01401885272543439
perc,resp,1182,1,2.3.1left.bmp,2.3.1right.bmp,,ACC028,"[0, 2, -2]","[0, 2, -2]",[],match,1.0,,0.8334775335229004,0.45956528163988186,-0.06305379061465607,4th,3rd,3rd,1.2655098211303253,0.2522037501836961,0.01401885272543439
perc,resp,1320,1,3.1.3left.bmp,3.1.3right.bmp,,ACC028,"[2, -2, 2]","[2, -2, 2]",[],match,1.0,,0.8854211960891185,1.1757271818418096,-0.0948656418205907,4th,4th,3rd,1.2655098211303253,1.3033768632354497,0.01401885272543439
perc,resp,1153,0,2.3.2left.bmp,2.3.3right.bmp,,ACC028,"[0, 2, 0]","[0, 2, 2]",[],non-match,0.7113248654051871,4,0.20219943554135109,-0.9243447528861455,-0.3172817134763918,3rd,1st,2nd,0.3264613569180576,-1.2392252381389854,-0.42146208262692153
perc,resp,1152,1,1.1.3left.bmp,1.2.1right.bmp,,ACC028,"[-2, -2, 2]","[-2, 0, -2]",[],non-match,0.3545027756320971,2,0.4246318726064736,0.7635560118595355,-0.23307310173267512,3rd,4th,2nd,0.3264613569180576,1.3033768632354497,-0.42146208262692153
perc,resp,1273,1,3.2.3left.bmp,3.2.3right.bmp,,ACC028,"[2, 0, 2]","[2, 0, 2]",[],match,1.0,,2.429520290171565,1.9654759063272513,-0.09951483862031198,4th,4th,3rd,1.2655098211303253,1.3033768632354497,0.01401885272543439
perc,resp,1282,1,1.2.3left.bmp,2.2.3right.bmp,,ACC028,"[-2, 0, 2]","[0, 0, 2]",[],non-match,0.7113248654051871,4,-1.1893132348678446,0.19293870278637565,-0.017919218045870624,1st,3rd,3rd,-1.2724344649878885,0.2522037501836961,0.01401885272543439
perc,resp,1314,1,2.2.2left.bmp,3.3.1right.bmp,,ACC028,"[0, 0, 0]","[2, 2, -2]",[],non-match,0.5,3,0.9579122145026586,0.838818246086916,0.19198011162120232,4th,4th,3rd,1.2655098211303253,1.3033768632354497,0.01401885272543439
perc,resp,1385,0,1.2.1left.bmp,2.2.1right.bmp,,ACC028,"[-2, 0, -2]","[0, 0, -2]",[],non-match,0.7113248654051871,4,1.935780238645688,1.5559939770683338,0.2716932050841471,4th,4th,4th,1.2655098211303253,1.3033768632354497,1.4335288504227357
perc,resp,1428,1,3.3.2left.bmp,2.1.1right.bmp,,ACC028,"[2, 2, 0]","[0, -2, -2]",[],non-match,0.29289321881345254,1,0.013886999140025542,0.44495563013230827,0.1631716409649654,3rd,3rd,3rd,0.3264613569180576,0.2522037501836961,0.01401885272543439
perc,resp,1237,1,3.2.1left.bmp,3.2.1right.bmp,,ACC028,"[2, 0, -2]","[2, 0, -2]",[],match,1.0,,0.7755038460395145,-0.01420702434858304,0.26023927115995477,4th,3rd,3rd,1.2655098211303253,0.2522037501836961,0.01401885272543439
perc,resp,2558,1,3.2.2left.bmp,3.2.2right.bmp,,ACC028,"[2, 0, 0]","[2, 0, 0]",[],match,1.0,,-0.183955956211594,2.0892943649615336,0.18618348386570943,2nd,4th,3rd,-0.3195367130604944,1.3033768632354497,0.01401885272543439
perc,resp,1120,0,3.1.2left.bmp,3.1.3right.bmp,,ACC028,"[2, -2, 0]","[2, -2, 2]",[],non-match,0.7113248654051871,4,0.12735257783153378,-1.4104943589697554,0.19626071238657478,3rd,1st,3rd,0.3264613569180576,-1.2392252381389854,0.01401885272543439
perc,resp,2521,1,1.1.2left.bmp,1.1.2right.bmp,,ACC028,"[-2, -2, 0]","[-2, -2, 0]",[],match,1.0,,-2.075848019593925,-1.5799079962973144,0.16122022763188967,1st,1st,3rd,-1.2724344649878885,-1.2392252381389854,0.01401885272543439
perc,resp,1120,1,2.1.2left.bmp,2.1.2right.bmp,,ACC028,"[0, -2, 0]","[0, -2, 0]",[],match,1.0,,0.8852781997166117,0.5889901992514245,-0.057503827774184134,4th,3rd,3rd,1.2655098211303253,0.2522037501836961,0.01401885272543439
perc,resp,1210,1,1.1.1left.bmp,3.2.1right.bmp,,ACC028,"[-2, -2, -2]","[2, 0, -2]",[],non-match,0.3545027756320971,2,0.8409796781726462,-0.020323326603145554,-0.01333440519640258,4th,3rd,3rd,1.2655098211303253,0.2522037501836961,0.01401885272543439
perc,resp,1180,1,1.2.3left.bmp,1.2.3right.bmp,,ACC028,"[-2, 0, 2]","[-2, 0, 2]",[],match,1.0,,0.49123644564891733,-0.9696651609887567,0.21729436368753657,3rd,1st,3rd,0.3264613569180576,-1.2392252381389854,0.01401885272543439
perc,resp,1199,1,1.1.3left.bmp,1.1.3right.bmp,,ACC028,"[-2, -2, 2]","[-2, -2, 2]",[],match,1.0,,1.4099508327299455,0.14107698246541897,0.29374543137105585,4th,3rd,4th,1.2655098211303253,0.2522037501836961,1.4335288504227357
perc,resp,1059,1,2.1.2left.bmp,2.1.2right.bmp,,ACC028,"[0, -2, 0]","[0, -2, 0]",[],match,1.0,,1.6575217093547667,0.04018698272333533,0.24556033559312535,4th,3rd,3rd,1.2655098211303253,0.2522037501836961,0.01401885272543439
perc,resp,995,1,1.1.2left.bmp,3.2.2right.bmp,,ACC028,"[-2, -2, 0]","[2, 0, 0]",[],non-match,0.3545027756320971,2,0.9647437023734515,0.19243261022217464,0.12366595897016364,4th,3rd,3rd,1.2655098211303253,0.2522037501836961,0.01401885272543439
perc,resp,1072,1,1.3.3left.bmp,1.3.3right.bmp,,ACC028,"[-2, 2, 2]","[-2, 2, 2]",[],match,1.0,,1.522319753456847,-0.9915049805458163,0.035153312904227525,4th,1st,3rd,1.2655098211303253,-1.2392252381389854,0.01401885272543439
perc,resp,1655,0,1.2.1left.bmp,1.3.2right.bmp,,ACC028,"[-2, 0, -2]","[-2, 2, 0]",[],non-match,0.5917517095361369,3,0.6657763400380832,1.2548202998064382,0.10463447648622277,3rd,4th,3rd,0.3264613569180576,1.3033768632354497,0.01401885272543439
perc,resp,1106,1,2.1.3left.bmp,2.1.3right.bmp,,ACC028,"[0, -2, 2]","[0, -2, 2]",[],match,1.0,,0.4318834210627001,-0.3632909256832902,0.02882089392429929,3rd,2nd,3rd,0.3264613569180576,-0.3163553752801602,0.01401885272543439
perc,resp,1155,1,2.1.1left.bmp,1.1.1right.bmp,,ACC028,"[0, -2, -2]","[-2, -2, -2]",[],non-match,0.7113248654051871,4,1.7141090223832178,0.6260723957313814,-0.3052796418155923,4th,3rd,2nd,1.2655098211303253,0.2522037501836961,-0.42146208262692153
perc,resp,1052,1,2.3.2left.bmp,2.3.2right.bmp,,ACC028,"[0, 2, 0]","[0, 2, 0]",[],match,1.0,,1.5420718432520446,0.1087974404031741,-0.417326494718346,4th,3rd,2nd,1.2655098211303253,0.2522037501836961,-0.42146208262692153
perc,resp,1333,1,2.2.3left.bmp,3.1.1right.bmp,,ACC028,"[0, 0, 2]","[2, -2, -2]",[],non-match,0.29289321881345254,1,1.1095099182819752,0.03224877329378975,-0.35766256829283066,4th,3rd,2nd,1.2655098211303253,0.2522037501836961,-0.42146208262692153
perc,resp,1132,1,3.3.3left.bmp,3.3.3right.bmp,,ACC028,"[2, 2, 2]","[2, 2, 2]",[],match,1.0,,1.880651497214073,-0.1746024920067193,-0.5310455329596601,4th,2nd,2nd,1.2655098211303253,-0.3163553752801602,-0.42146208262692153
perc,resp,907,1,3.1.3left.bmp,1.1.3right.bmp,,ACC028,"[2, -2, 2]","[-2, -2, 2]",[],non-match,0.42264973081037416,2,1.047079616492266,-0.08678931578124663,-0.33969396581878175,4th,2nd,2nd,1.2655098211303253,-0.3163553752801602,-0.42146208262692153
perc,resp,1178,1,3.2.3left.bmp,3.2.3right.bmp,,ACC028,"[2, 0, 2]","[2, 0, 2]",[],match,1.0,,0.2931435055533957,-0.5419016252387173,-0.5323632255293449,3rd,2nd,2nd,0.3264613569180576,-0.3163553752801602,-0.42146208262692153
perc,resp,1136,1,3.2.2left.bmp,3.2.2right.bmp,,ACC028,"[2, 0, 0]","[2, 0, 0]",[],match,1.0,,1.6016845239925899,1.4523953042063111,-0.46298511488960115,4th,4th,2nd,1.2655098211303253,1.3033768632354497,-0.42146208262692153
