mode,type,rt,acc,item_1,item_2,item_cue,subj_idx,item_1_number,item_2_number,item_cue_number,trial_type,similarity,similarity_bin,ams,pams,slps,ams_quantile,pams_quantile,slps_quantile,ams_bin,pam_bin,slp_bin
perc,resp,0,0,1.3.3left.bmp,1.3.3right.bmp,,ACC015,"[-2, 2, 2]","[-2, 2, 2]",[],match,1.0,,0.06723626102202711,0.8162686481798087,0.17283087725031793,3rd,4th,3rd,0.3032411203728227,1.2425520032008055,0.4324444089250034
perc,resp,1430,0,3.2.2left.bmp,3.2.2right.bmp,,ACC015,"[2, 0, 0]","[2, 0, 0]",[],match,1.0,,1.785673173768627,0.46783450969637663,-0.09550497223934505,4th,3rd,2nd,1.276206868728757,0.239665854052793,-0.33969880658983304
perc,resp,2291,0,2.3.1left.bmp,3.3.1right.bmp,,ACC015,"[0, 2, -2]","[2, 2, -2]",[],non-match,0.7113248654051871,4,-1.5071750512122035,-1.5855758778617215,0.11013820990718644,1st,1st,3rd,-1.2420086048927332,-1.1424416964092556,0.4324444089250034
perc,resp,1951,1,3.1.3left.bmp,1.3.2right.bmp,,ACC015,"[2, -2, 2]","[-2, 2, 0]",[],non-match,0.1339745962155613,1,-0.20721662548630448,0.3788764645627891,0.1809032590192501,2nd,3rd,3rd,-0.33795753972151377,0.239665854052793,0.4324444089250034
perc,resp,2447,1,3.2.1left.bmp,2.3.3right.bmp,,ACC015,"[2, 0, -2]","[0, 2, 2]",[],non-match,0.29289321881345254,1,-0.7654854770763104,0.2555668362985427,0.30927249629057424,1st,3rd,3rd,-1.2420086048927332,0.239665854052793,0.4324444089250034
perc,resp,1423,1,1.3.1left.bmp,1.3.1right.bmp,,ACC015,"[-2, 2, -2]","[-2, 2, -2]",[],match,1.0,,-1.0117860876066478,0.4263334840040104,0.600216812282387,1st,3rd,3rd,-1.2420086048927332,0.239665854052793,0.4324444089250034
perc,resp,1571,0,2.1.2left.bmp,3.1.2right.bmp,,ACC015,"[0, -2, 0]","[2, -2, 0]",[],non-match,0.7113248654051871,4,0.406410486651739,-0.38498355949947044,0.47892040754970205,3rd,2nd,3rd,0.3032411203728227,-0.3412929836745189,0.4324444089250034
perc,resp,1537,0,2.2.3left.bmp,2.2.3right.bmp,,ACC015,"[0, 0, 2]","[0, 0, 2]",[],match,1.0,,0.5745971984205368,0.4449929441327204,0.4652089421739774,3rd,3rd,3rd,0.3032411203728227,0.239665854052793,0.4324444089250034
perc,resp,1816,0,1.2.1left.bmp,1.2.1right.bmp,,ACC015,"[-2, 0, -2]","[-2, 0, -2]",[],match,1.0,,-0.5955983078985391,0.8768451594437499,0.7115222233401721,2nd,4th,3rd,-0.33795753972151377,1.2425520032008055,0.4324444089250034
perc,resp,2824,0,3.1.1left.bmp,3.1.1right.bmp,,ACC015,"[2, -2, -2]","[2, -2, -2]",[],match,1.0,,-0.9458779707743868,0.022992466323262444,0.5582731142797469,1st,3rd,3rd,-1.2420086048927332,0.239665854052793,0.4324444089250034
perc,resp,1752,1,2.2.1left.bmp,1.1.2right.bmp,,ACC015,"[0, 0, -2]","[-2, -2, 0]",[],non-match,0.5,3,-0.8965302953008967,-0.06573408825302969,0.38426198174332304,1st,2nd,3rd,-1.2420086048927332,-0.3412929836745189,0.4324444089250034
perc,resp,1842,0,2.1.1left.bmp,1.1.1right.bmp,,ACC015,"[0, -2, -2]","[-2, -2, -2]",[],non-match,0.7113248654051871,4,-0.20652994366587565,-0.8740525960434784,0.6494335773687228,2nd,1st,3rd,-0.33795753972151377,-1.1424416964092556,0.4324444089250034
perc,resp,1458,1,2.3.3left.bmp,2.3.3right.bmp,,ACC015,"[0, 2, 2]","[0, 2, 2]",[],match,1.0,,-0.2863974730604614,0.15014042592849466,1.0322533081118996,2nd,3rd,4th,-0.33795753972151377,0.239665854052793,1.2491799211036219
perc,resp,1089,0,1.1.3left.bmp,1.3.1right.bmp,,ACC015,"[-2, -2, 2]","[-2, 2, -2]",[],non-match,0.18350341907227385,1,0.018559424388009824,0.17975208286750746,1.1284146694287018,3rd,3rd,4th,0.3032411203728227,0.239665854052793,1.2491799211036219
perc,resp,2522,1,1.1.2left.bmp,1.1.2right.bmp,,ACC015,"[-2, -2, 0]","[-2, -2, 0]",[],match,1.0,,-1.4926773896014867,-0.019043825052032223,0.5058340494279807,1st,3rd,3rd,-1.2420086048927332,0.239665854052793,0.4324444089250034
perc,resp,1569,0,3.1.2left.bmp,3.1.2right.bmp,,ACC015,"[2, -2, 0]","[2, -2, 0]",[],match,1.0,,-0.1618726908801165,-0.0741300790493097,0.49119488438163256,2nd,2nd,3rd,-0.33795753972151377,-0.3412929836745189,0.4324444089250034
perc,resp,1676,1,1.2.2left.bmp,2.3.1right.bmp,,ACC015,"[-2, 0, 0]","[0, 2, -2]",[],non-match,0.5,3,-2.0765025285336103,-0.7645504841658018,0.9033780868144184,1st,1st,4th,-1.2420086048927332,-1.1424416964092556,1.2491799211036219
perc,resp,2004,1,3.2.3left.bmp,3.2.3right.bmp,,ACC015,"[2, 0, 2]","[2, 0, 2]",[],match,1.0,,0.3491767889889408,-0.04370484123056556,1.0746641192288948,3rd,2nd,4th,0.3032411203728227,-0.3412929836745189,1.2491799211036219
perc,resp,1286,1,3.3.3left.bmp,1.3.3right.bmp,,ACC015,"[2, 2, 2]","[-2, 2, 2]",[],non-match,0.42264973081037416,2,-1.4567997415792322,0.09891005512992161,1.1361011515803308,1st,3rd,4th,-1.2420086048927332,0.239665854052793,1.2491799211036219
perc,resp,1219,0,1.2.3left.bmp,1.2.1right.bmp,,ACC015,"[-2, 0, 2]","[-2, 0, -2]",[],non-match,0.42264973081037416,2,-0.2065623998198943,0.6847996179371251,1.2344036970889,2nd,4th,4th,-0.33795753972151377,1.2425520032008055,1.2491799211036219
perc,resp,1394,1,1.1.1left.bmp,3.1.2right.bmp,,ACC015,"[-2, -2, -2]","[2, -2, 0]",[],non-match,0.3545027756320971,2,-0.14325474130672525,0.22215676578380666,1.2880812370228065,2nd,3rd,4th,-0.33795753972151377,0.239665854052793,1.2491799211036219
perc,resp,1367,1,1.3.2left.bmp,1.3.2right.bmp,,ACC015,"[-2, 2, 0]","[-2, 2, 0]",[],match,1.0,,-0.003753641205974413,-0.7892573964544893,1.0628383404582222,3rd,1st,4th,0.3032411203728227,-1.1424416964092556,1.2491799211036219
perc,resp,1804,1,3.3.1left.bmp,3.3.1right.bmp,,ACC015,"[2, 2, -2]","[2, 2, -2]",[],match,1.0,,0.48780181742721723,-1.4329038565363772,0.8529255241178428,3rd,1st,3rd,0.3032411203728227,-1.1424416964092556,0.4324444089250034
perc,resp,953,1,3.3.2left.bmp,3.3.2right.bmp,,ACC015,"[2, 2, 0]","[2, 2, 0]",[],match,1.0,,-0.9881455275700862,-0.5055414392351496,0.835258875204307,1st,2nd,3rd,-1.2420086048927332,-0.3412929836745189,0.4324444089250034
perc,resp,1676,1,2.3.2left.bmp,1.1.2right.bmp,,ACC015,"[0, 2, 0]","[-2, -2, 0]",[],non-match,0.3545027756320971,2,-0.7822403296845803,-0.9697649533206789,0.8985766701330421,1st,1st,4th,-1.2420086048927332,-1.1424416964092556,1.2491799211036219
perc,resp,1000,1,2.1.3left.bmp,3.2.1right.bmp,,ACC015,"[0, -2, 2]","[2, 0, -2]",[],non-match,0.29289321881345254,1,-1.6080517942896824,-0.6177466776920247,0.822151250026049,1st,2nd,3rd,-1.2420086048927332,-0.3412929836745189,0.4324444089250034
perc,resp,1185,1,2.2.2left.bmp,2.2.2right.bmp,,ACC015,"[0, 0, 0]","[0, 0, 0]",[],match,1.0,,-1.9063217281201004,-1.2101606298583385,0.7630929744246442,1st,1st,3rd,-1.2420086048927332,-1.1424416964092556,0.4324444089250034
perc,resp,892,0,3.3.3left.bmp,3.2.2right.bmp,,ACC015,"[2, 2, 2]","[2, 0, 0]",[],non-match,0.5917517095361369,3,0.7992688138041087,-0.5370508966725984,0.5023614816766494,4th,2nd,3rd,1.276206868728757,-0.3412929836745189,0.4324444089250034
perc,resp,981,1,2.3.3left.bmp,2.3.3right.bmp,,ACC015,"[0, 2, 2]","[0, 2, 2]",[],match,1.0,,-0.06085215648255469,-0.23595093954093335,0.32681784346950316,2nd,2nd,3rd,-0.33795753972151377,-0.3412929836745189,0.4324444089250034
perc,resp,880,1,1.3.1left.bmp,1.3.1right.bmp,,ACC015,"[-2, 2, -2]","[-2, 2, -2]",[],match,1.0,,-0.37566980806885497,0.17694904168539125,0.18366188449751716,2nd,3rd,3rd,-0.33795753972151377,0.239665854052793,0.4324444089250034
perc,resp,1171,1,2.1.1left.bmp,1.1.3right.bmp,,ACC015,"[0, -2, -2]","[-2, -2, 2]",[],non-match,0.3545027756320971,2,0.4539812088885501,0.8804249743713412,0.2671242773327598,3rd,4th,3rd,0.3032411203728227,1.2425520032008055,0.4324444089250034
perc,resp,1474,0,1.2.2left.bmp,2.2.1right.bmp,,ACC015,"[-2, 0, 0]","[0, 0, -2]",[],non-match,0.5917517095361369,3,0.3781987114098717,-0.06915512166222805,0.10538641921807743,3rd,2nd,3rd,0.3032411203728227,-0.3412929836745189,0.4324444089250034
perc,resp,1239,0,1.3.2left.bmp,2.1.2right.bmp,,ACC015,"[-2, 2, 0]","[0, -2, 0]",[],non-match,0.3545027756320971,2,-0.9856810673429489,-0.28848771261430156,0.1430751634087509,1st,2nd,3rd,-1.2420086048927332,-0.3412929836745189,0.4324444089250034
perc,resp,1240,1,1.3.3left.bmp,1.3.3right.bmp,,ACC015,"[-2, 2, 2]","[-2, 2, 2]",[],match,1.0,,-1.3586998415529918,-0.018807597956928733,0.21724714808102347,1st,3rd,3rd,-1.2420086048927332,0.239665854052793,0.4324444089250034
perc,resp,1585,1,3.1.1left.bmp,3.1.1right.bmp,,ACC015,"[2, -2, -2]","[2, -2, -2]",[],match,1.0,,1.1698650269373956,0.45845130372336707,0.10906727555231137,4th,3rd,3rd,1.276206868728757,0.239665854052793,0.4324444089250034
perc,resp,1064,1,2.2.1left.bmp,2.2.2right.bmp,,ACC015,"[0, 0, -2]","[0, 0, 0]",[],non-match,0.7113248654051871,4,-1.1187568450525442,0.2530829969786858,0.13981355506567686,1st,3rd,3rd,-1.2420086048927332,0.239665854052793,0.4324444089250034
perc,resp,1365,0,2.1.3left.bmp,3.1.2right.bmp,,ACC015,"[0, -2, 2]","[2, -2, 0]",[],non-match,0.5917517095361369,3,-0.656680699723295,-0.5508614118052713,0.10376481121569849,2nd,2nd,2nd,-0.33795753972151377,-0.3412929836745189,-0.33969880658983304
perc,resp,1389,1,2.2.3left.bmp,2.3.2right.bmp,,ACC015,"[0, 0, 2]","[0, 2, 0]",[],non-match,0.5917517095361369,3,-0.5479317093469624,0.2629846033119006,-0.06279435368465654,2nd,3rd,2nd,-0.33795753972151377,0.239665854052793,-0.33969880658983304
perc,resp,1130,1,3.3.1left.bmp,3.3.1right.bmp,,ACC015,"[2, 2, -2]","[2, 2, -2]",[],match,1.0,,-0.29917474769923963,-0.21435312439719306,-0.14196165677613673,2nd,2nd,2nd,-0.33795753972151377,-0.3412929836745189,-0.33969880658983304
perc,resp,797,1,2.3.1left.bmp,2.3.1right.bmp,,ACC015,"[0, 2, -2]","[0, 2, -2]",[],match,1.0,,-0.24653492420695408,-0.5757935576322101,-0.19373794584946477,2nd,2nd,2nd,-0.33795753972151377,-0.3412929836745189,-0.33969880658983304
perc,resp,1826,0,3.1.3left.bmp,3.1.3right.bmp,,ACC015,"[2, -2, 2]","[2, -2, 2]",[],match,1.0,,-1.7486473146533754,-0.6119848736884903,-0.06737992995828265,1st,2nd,2nd,-1.2420086048927332,-0.3412929836745189,-0.33969880658983304
perc,resp,1318,1,2.3.2left.bmp,2.3.3right.bmp,,ACC015,"[0, 2, 0]","[0, 2, 2]",[],non-match,0.7113248654051871,4,-1.0189582106632016,0.32950314139769854,0.3397119020757251,1st,3rd,3rd,-1.2420086048927332,0.239665854052793,0.4324444089250034
perc,resp,1219,0,1.1.3left.bmp,1.2.1right.bmp,,ACC015,"[-2, -2, 2]","[-2, 0, -2]",[],non-match,0.3545027756320971,2,0.3571371094809322,1.4581360524800822,0.0657208309795647,3rd,4th,2nd,0.3032411203728227,1.2425520032008055,-0.33969880658983304
perc,resp,1470,1,3.2.3left.bmp,3.2.3right.bmp,,ACC015,"[2, 0, 2]","[2, 0, 2]",[],match,1.0,,-1.6602999027273722,-1.2764405963412517,0.4874431073915702,1st,1st,3rd,-1.2420086048927332,-1.1424416964092556,0.4324444089250034
perc,resp,1151,1,1.2.3left.bmp,2.2.3right.bmp,,ACC015,"[-2, 0, 2]","[0, 0, 2]",[],non-match,0.7113248654051871,4,-0.6694220238484034,-0.7320124771158625,0.6468573783209712,2nd,1st,3rd,-0.33795753972151377,-1.1424416964092556,0.4324444089250034
perc,resp,1152,1,2.2.2left.bmp,3.3.1right.bmp,,ACC015,"[0, 0, 0]","[2, 2, -2]",[],non-match,0.5,3,-0.40315022429980785,-1.4811458069399515,0.310513062147701,2nd,1st,3rd,-0.33795753972151377,-1.1424416964092556,0.4324444089250034
perc,resp,1101,1,1.2.1left.bmp,2.2.1right.bmp,,ACC015,"[-2, 0, -2]","[0, 0, -2]",[],non-match,0.7113248654051871,4,0.6738330589083391,-0.283222328777983,0.33521090966802763,4th,2nd,3rd,1.276206868728757,-0.3412929836745189,0.4324444089250034
perc,resp,1384,1,3.3.2left.bmp,2.1.1right.bmp,,ACC015,"[2, 2, 0]","[0, -2, -2]",[],non-match,0.29289321881345254,1,0.342317281776658,-2.472905011160286,-0.010402253456027303,3rd,1st,2nd,0.3032411203728227,-1.1424416964092556,-0.33969880658983304
perc,resp,1274,1,3.2.1left.bmp,3.2.1right.bmp,,ACC015,"[2, 0, -2]","[2, 0, -2]",[],match,1.0,,-0.008196261904654594,-0.22761100100506348,0.07990977658498435,3rd,2nd,2nd,0.3032411203728227,-0.3412929836745189,-0.33969880658983304
perc,resp,955,1,3.2.2left.bmp,3.2.2right.bmp,,ACC015,"[2, 0, 0]","[2, 0, 0]",[],match,1.0,,-0.4376244450875318,-0.887086573657771,-0.0716308814266906,2nd,1st,2nd,-0.33795753972151377,-1.1424416964092556,-0.33969880658983304
perc,resp,973,0,3.1.2left.bmp,3.1.3right.bmp,,ACC015,"[2, -2, 0]","[2, -2, 2]",[],non-match,0.7113248654051871,4,0.23473341985071391,0.5396612477794804,-0.18756569833550282,3rd,4th,2nd,0.3032411203728227,1.2425520032008055,-0.33969880658983304
perc,resp,1556,1,1.1.2left.bmp,1.1.2right.bmp,,ACC015,"[-2, -2, 0]","[-2, -2, 0]",[],match,1.0,,1.0358066204407497,0.2962283699516833,-0.03584999593584421,4th,3rd,2nd,1.276206868728757,0.239665854052793,-0.33969880658983304
perc,resp,1036,1,2.1.2left.bmp,2.1.2right.bmp,,ACC015,"[0, -2, 0]","[0, -2, 0]",[],match,1.0,,-0.19036139134549354,0.11810800230401773,0.15623344421455257,2nd,3rd,3rd,-0.33795753972151377,0.239665854052793,0.4324444089250034
perc,resp,1840,1,1.1.1left.bmp,3.2.1right.bmp,,ACC015,"[-2, -2, -2]","[2, 0, -2]",[],non-match,0.3545027756320971,2,0.39348497621141487,-0.13802007395530616,-0.061163959724264055,3rd,2nd,2nd,0.3032411203728227,-0.3412929836745189,-0.33969880658983304
perc,resp,1092,1,1.2.3left.bmp,1.2.3right.bmp,,ACC015,"[-2, 0, 2]","[-2, 0, 2]",[],match,1.0,,-0.7207563536875232,0.3904036676509613,0.22427008974843163,1st,3rd,3rd,-1.2420086048927332,0.239665854052793,0.4324444089250034
perc,resp,851,1,1.1.3left.bmp,1.1.3right.bmp,,ACC015,"[-2, -2, 2]","[-2, -2, 2]",[],match,1.0,,-0.14401704913233151,-0.27506503807920896,0.1504179528753683,2nd,2nd,3rd,-0.33795753972151377,-0.3412929836745189,0.4324444089250034
perc,resp,860,1,2.1.2left.bmp,2.1.2right.bmp,,ACC015,"[0, -2, 0]","[0, -2, 0]",[],match,1.0,,-0.33134632554445237,-1.090441743870356,0.40860542648654197,2nd,1st,3rd,-0.33795753972151377,-1.1424416964092556,0.4324444089250034
perc,resp,876,1,1.1.2left.bmp,3.2.2right.bmp,,ACC015,"[-2, -2, 0]","[2, 0, 0]",[],non-match,0.3545027756320971,2,-0.9115867832592467,0.479183154629037,0.20711567227696592,1st,3rd,3rd,-1.2420086048927332,0.239665854052793,0.4324444089250034
perc,resp,1177,1,1.3.3left.bmp,1.3.3right.bmp,,ACC015,"[-2, 2, 2]","[-2, 2, 2]",[],match,1.0,,0.5692000500351957,-1.292538536038371,0.2898971565662951,3rd,1st,3rd,0.3032411203728227,-1.1424416964092556,0.4324444089250034
perc,resp,1548,0,1.2.1left.bmp,1.3.2right.bmp,,ACC015,"[-2, 0, -2]","[-2, 2, 0]",[],non-match,0.5917517095361369,3,-1.0173834643843152,-1.5071621963774093,0.10836926155714216,1st,1st,3rd,-1.2420086048927332,-1.1424416964092556,0.4324444089250034
perc,resp,919,0,2.1.3left.bmp,2.1.3right.bmp,,ACC015,"[0, -2, 2]","[0, -2, 2]",[],match,1.0,,0.8497886360094509,-0.03152308239024737,0.44909521634501703,4th,3rd,3rd,1.276206868728757,0.239665854052793,0.4324444089250034
perc,resp,1028,1,2.1.1left.bmp,1.1.1right.bmp,,ACC015,"[0, -2, -2]","[-2, -2, -2]",[],non-match,0.7113248654051871,4,0.09747425576968127,0.33008824638388423,1.1178973797395662,3rd,3rd,4th,0.3032411203728227,0.239665854052793,1.2491799211036219
perc,resp,2327,1,2.3.2left.bmp,2.3.2right.bmp,,ACC015,"[0, 2, 0]","[0, 2, 0]",[],match,1.0,,-0.9936662913736231,-0.3150482603929522,1.098870972867465,1st,2nd,4th,-1.2420086048927332,-0.3412929836745189,1.2491799211036219
perc,resp,1527,1,1.2.2left.bmp,1.3.3right.bmp,,ACC015,"[-2, 0, 0]","[-2, 2, 2]",[],non-match,0.5917517095361369,3,3.380510962750378,2.6075811316804702,0.9229347016758325,4th,4th,4th,1.276206868728757,1.2425520032008055,1.2491799211036219
perc,resp,1378,1,2.3.1left.bmp,2.3.1right.bmp,,ACC015,"[0, 2, -2]","[0, 2, -2]",[],match,1.0,,-1.214182250384832,-0.14363368605819493,1.0877733666845986,1st,2nd,4th,-1.2420086048927332,-0.3412929836745189,1.2491799211036219
perc,resp,968,1,1.1.2left.bmp,1.1.2right.bmp,,ACC015,"[-2, -2, 0]","[-2, -2, 0]",[],match,1.0,,-0.3629706358985789,-0.47302109961888067,1.561997597699614,2nd,2nd,4th,-0.33795753972151377,-0.3412929836745189,1.2491799211036219
perc,resp,913,1,1.2.1left.bmp,1.2.1right.bmp,,ACC015,"[-2, 0, -2]","[-2, 0, -2]",[],match,1.0,,0.43886798156834905,-0.1261331855864514,1.580000366411681,3rd,2nd,4th,0.3032411203728227,-0.3412929836745189,1.2491799211036219
perc,resp,738,1,3.3.2left.bmp,3.3.2right.bmp,,ACC015,"[2, 2, 0]","[2, 2, 0]",[],match,1.0,,0.2293346343709776,0.46277538164247073,1.3184441178699902,3rd,3rd,4th,0.3032411203728227,0.239665854052793,1.2491799211036219
perc,resp,905,1,1.2.3left.bmp,1.2.3right.bmp,,ACC015,"[-2, 0, 2]","[-2, 0, 2]",[],match,1.0,,-0.20150678882796258,-0.5997632330706315,0.9569294338215178,2nd,2nd,4th,-0.33795753972151377,-0.3412929836745189,1.2491799211036219
perc,resp,843,0,2.1.1left.bmp,2.1.1right.bmp,,ACC015,"[0, -2, -2]","[0, -2, -2]",[],match,1.0,,1.0495495087818913,0.6342637031234805,1.024958889653276,4th,4th,4th,1.276206868728757,1.2425520032008055,1.2491799211036219
perc,resp,1292,1,2.1.2left.bmp,2.1.2right.bmp,,ACC015,"[0, -2, 0]","[0, -2, 0]",[],match,1.0,,1.4362074526418733,0.5472079357299913,0.8786799792359118,4th,4th,4th,1.276206868728757,1.2425520032008055,1.2491799211036219
perc,resp,961,0,2.2.2left.bmp,1.2.2right.bmp,,ACC015,"[0, 0, 0]","[-2, 0, 0]",[],non-match,0.7113248654051871,4,-0.31327639236502935,-0.7524774135503551,0.7155104179799946,2nd,1st,3rd,-0.33795753972151377,-1.1424416964092556,0.4324444089250034
perc,resp,2180,0,2.2.1left.bmp,3.2.3right.bmp,,ACC015,"[0, 0, -2]","[2, 0, 2]",[],non-match,0.3545027756320971,2,0.45651195320757304,-0.8234710598720918,0.559970870031624,3rd,1st,3rd,0.3032411203728227,-1.1424416964092556,0.4324444089250034
perc,resp,1444,1,3.1.1left.bmp,1.1.1right.bmp,,ACC015,"[2, -2, -2]","[-2, -2, -2]",[],non-match,0.42264973081037416,2,-0.6007623835507819,0.0849691795512348,0.6975822881574433,2nd,3rd,3rd,-0.33795753972151377,0.239665854052793,0.4324444089250034
perc,resp,1245,1,2.3.3left.bmp,2.3.3right.bmp,,ACC015,"[0, 2, 2]","[0, 2, 2]",[],match,1.0,,0.20554645238545752,0.4722076933228742,0.86656289489338,3rd,3rd,4th,0.3032411203728227,0.239665854052793,1.2491799211036219
perc,resp,942,1,3.3.1left.bmp,1.2.3right.bmp,,ACC015,"[2, 2, -2]","[-2, 0, 2]",[],non-match,0.1339745962155613,1,1.6583943897118645,0.5466824485569327,0.7670572405510834,4th,4th,3rd,1.276206868728757,1.2425520032008055,0.4324444089250034
perc,resp,2109,1,1.3.3left.bmp,2.2.2right.bmp,,ACC015,"[-2, 2, 2]","[0, 0, 0]",[],non-match,0.5,3,-0.996381328002028,-1.533850155454433,0.9137273583496102,1st,1st,4th,-1.2420086048927332,-1.1424416964092556,1.2491799211036219
perc,resp,847,0,1.3.1left.bmp,1.1.2right.bmp,,ACC015,"[-2, 2, -2]","[-2, -2, 0]",[],non-match,0.3545027756320971,2,1.0713406274689825,0.5136939548217966,0.8700934627388701,4th,3rd,4th,1.276206868728757,0.239665854052793,1.2491799211036219
perc,resp,775,1,3.1.3left.bmp,1.2.2right.bmp,,ACC015,"[2, -2, 2]","[-2, 0, 0]",[],non-match,0.29289321881345254,1,0.5979115165486418,-0.8402172355544913,0.9367996105788928,3rd,1st,4th,0.3032411203728227,-1.1424416964092556,1.2491799211036219
perc,resp,1890,1,1.1.1left.bmp,1.1.1right.bmp,,ACC015,"[-2, -2, -2]","[-2, -2, -2]",[],match,1.0,,0.7572307777143428,-0.3321584989393904,0.925947179108656,4th,2nd,4th,1.276206868728757,-0.3412929836745189,1.2491799211036219
perc,resp,1090,1,3.2.3left.bmp,1.3.2right.bmp,,ACC015,"[2, 0, 2]","[-2, 2, 0]",[],non-match,0.29289321881345254,1,0.6239068496868165,-0.5856666247794975,0.7628069778850048,3rd,2nd,3rd,0.3032411203728227,-0.3412929836745189,0.4324444089250034
perc,resp,1293,0,3.3.3left.bmp,2.1.3right.bmp,,ACC015,"[2, 2, 2]","[0, -2, 2]",[],non-match,0.3545027756320971,2,3.80374898358495,3.639691563118236,0.7845731749912248,4th,4th,3rd,1.276206868728757,1.2425520032008055,0.4324444089250034
perc,resp,818,1,1.1.3left.bmp,3.3.2right.bmp,,ACC015,"[-2, -2, 2]","[2, 2, 0]",[],non-match,0.1339745962155613,1,1.2076502877183757,-0.6914156253942001,0.9046881436914203,4th,2nd,4th,1.276206868728757,-0.3412929836745189,1.2491799211036219
perc,resp,1078,1,3.2.1left.bmp,3.3.1right.bmp,,ACC015,"[2, 0, -2]","[2, 2, -2]",[],non-match,0.7113248654051871,4,1.1697079197002158,-0.8863188651270701,0.9611062900277616,4th,1st,4th,1.276206868728757,-1.1424416964092556,1.2491799211036219
perc,resp,1167,1,2.3.2left.bmp,2.3.2right.bmp,,ACC015,"[0, 2, 0]","[0, 2, 0]",[],match,1.0,,-1.0727097437192896,-0.5746541383852664,0.7108592110616165,1st,2nd,3rd,-1.2420086048927332,-0.3412929836745189,0.4324444089250034
perc,resp,804,1,1.3.2left.bmp,1.3.2right.bmp,,ACC015,"[-2, 2, 0]","[-2, 2, 0]",[],match,1.0,,0.030432636945329362,0.5558364256625303,0.6684599556248721,3rd,4th,3rd,0.3032411203728227,1.2425520032008055,0.4324444089250034
perc,resp,859,1,3.1.2left.bmp,3.1.2right.bmp,,ACC015,"[2, -2, 0]","[2, -2, 0]",[],match,1.0,,1.4003931505302207,1.6538980367604286,0.5766775566362253,4th,4th,3rd,1.276206868728757,1.2425520032008055,0.4324444089250034
perc,resp,1057,1,3.2.2left.bmp,1.3.1right.bmp,,ACC015,"[2, 0, 0]","[-2, 2, -2]",[],non-match,0.29289321881345254,1,1.4430082147468795,0.9199711027381748,0.7156115616500064,4th,4th,3rd,1.276206868728757,1.2425520032008055,0.4324444089250034
perc,resp,1087,1,2.1.3left.bmp,2.1.3right.bmp,,ACC015,"[0, -2, 2]","[0, -2, 2]",[],match,1.0,,-1.4538342243986098,-0.6656295407647508,0.9357615062236999,1st,2nd,4th,-1.2420086048927332,-0.3412929836745189,1.2491799211036219
perc,resp,794,0,2.2.3left.bmp,2.2.3right.bmp,,ACC015,"[0, 0, 2]","[0, 0, 2]",[],match,1.0,,-1.669728947885829,-1.7595418413923904,0.7252484737249576,1st,1st,3rd,-1.2420086048927332,-1.1424416964092556,0.4324444089250034
perc,resp,761,1,3.2.2left.bmp,3.2.2right.bmp,,ACC015,"[2, 0, 0]","[2, 0, 0]",[],match,1.0,,-0.4306838638645289,1.8838647595034408,0.5426856505694828,2nd,4th,3rd,-0.33795753972151377,1.2425520032008055,0.4324444089250034
perc,resp,707,1,2.2.1left.bmp,2.2.1right.bmp,,ACC015,"[0, 0, -2]","[0, 0, -2]",[],match,1.0,,-0.5353031799317532,0.8138557655736431,0.35128821821285283,2nd,4th,3rd,-0.33795753972151377,1.2425520032008055,0.4324444089250034
perc,resp,582,0,3.1.1left.bmp,3.1.1right.bmp,,ACC015,"[2, -2, -2]","[2, -2, -2]",[],match,1.0,,0.930717624324181,1.5040828130455302,-0.01752678184731848,4th,4th,2nd,1.276206868728757,1.2425520032008055,-0.33969880658983304
perc,resp,1956,1,1.1.3left.bmp,1.3.1right.bmp,,ACC015,"[-2, -2, 2]","[-2, 2, -2]",[],non-match,0.18350341907227385,1,-1.2010701192354973,-0.9893585845701226,0.2663472439285368,1st,1st,3rd,-1.2420086048927332,-1.1424416964092556,0.4324444089250034
perc,resp,1126,1,3.1.3left.bmp,3.1.3right.bmp,,ACC015,"[2, -2, 2]","[2, -2, 2]",[],match,1.0,,-0.7950368800290856,-1.2212665366865862,0.08863360645246868,1st,1st,2nd,-1.2420086048927332,-1.1424416964092556,-0.33969880658983304
perc,resp,663,0,1.1.1left.bmp,2.1.2right.bmp,,ACC015,"[-2, -2, -2]","[0, -2, 0]",[],non-match,0.5917517095361369,3,0.38331775930435114,0.10479374124138452,0.06777212127012232,3rd,3rd,2nd,0.3032411203728227,0.239665854052793,-0.33969880658983304
perc,resp,991,1,1.3.2left.bmp,1.3.2right.bmp,,ACC015,"[-2, 2, 0]","[-2, 2, 0]",[],match,1.0,,1.7635888204414816,0.49422001319755515,-0.077183324805999,4th,3rd,2nd,1.276206868728757,0.239665854052793,-0.33969880658983304
perc,resp,860,1,2.1.3left.bmp,2.2.1right.bmp,,ACC015,"[0, -2, 2]","[0, 0, -2]",[],non-match,0.3545027756320971,2,0.07578958393756575,-0.5452248930562542,-0.15780865828320303,3rd,2nd,2nd,0.3032411203728227,-0.3412929836745189,-0.33969880658983304
perc,resp,817,1,2.3.2left.bmp,3.1.2right.bmp,,ACC015,"[0, 2, 0]","[2, -2, 0]",[],non-match,0.3545027756320971,2,0.6249098490185425,-0.10936575684758897,0.0892499350351961,3rd,2nd,2nd,0.3032411203728227,-0.3412929836745189,-0.33969880658983304
perc,resp,612,0,1.2.3left.bmp,3.3.1right.bmp,,ACC015,"[-2, 0, 2]","[2, 2, -2]",[],non-match,0.1339745962155613,1,0.11209053682574611,-0.07655605749505962,-0.11056617406897036,3rd,2nd,2nd,0.3032411203728227,-0.3412929836745189,-0.33969880658983304
perc,resp,1412,1,2.2.2left.bmp,2.2.2right.bmp,,ACC015,"[0, 0, 0]","[0, 0, 0]",[],match,1.0,,-1.3973086100160774,-1.2830891700420328,0.06263041830918517,1st,1st,2nd,-1.2420086048927332,-1.1424416964092556,-0.33969880658983304
perc,resp,861,0,2.3.3left.bmp,2.2.3right.bmp,,ACC015,"[0, 2, 2]","[0, 0, 2]",[],non-match,0.7113248654051871,4,-0.03619376548694249,-0.45360702679905457,0.3027232795766746,2nd,2nd,3rd,-0.33795753972151377,-0.3412929836745189,0.4324444089250034
perc,resp,858,0,3.3.2left.bmp,3.2.1right.bmp,,ACC015,"[2, 2, 0]","[2, 0, -2]",[],non-match,0.5917517095361369,3,0.928160028168951,-0.15944655063412913,0.29339753099625193,4th,2nd,3rd,1.276206868728757,-0.3412929836745189,0.4324444089250034
perc,resp,1257,0,3.2.3left.bmp,2.2.1right.bmp,,ACC015,"[2, 0, 2]","[0, 0, -2]",[],non-match,0.3545027756320971,2,-1.9042266272132269,-1.339304151530277,0.2722820018701987,1st,1st,3rd,-1.2420086048927332,-1.1424416964092556,0.4324444089250034
perc,resp,2446,1,1.3.1left.bmp,1.3.1right.bmp,,ACC015,"[-2, 2, -2]","[-2, 2, -2]",[],match,1.0,,-0.9758957251741469,0.8775464291039526,0.4080710403914897,1st,4th,3rd,-1.2420086048927332,1.2425520032008055,0.4324444089250034
perc,resp,1108,1,2.1.1left.bmp,1.2.1right.bmp,,ACC015,"[0, -2, -2]","[-2, 0, -2]",[],non-match,0.5917517095361369,3,0.9078930817021796,-0.9334664418378984,-0.05587155639296887,4th,1st,2nd,1.276206868728757,-1.1424416964092556,-0.33969880658983304
perc,resp,793,1,3.2.1left.bmp,1.2.2right.bmp,,ACC015,"[2, 0, -2]","[-2, 0, 0]",[],non-match,0.3545027756320971,2,-0.5351491754788905,-0.7633503783165404,-0.11781668273382681,2nd,1st,2nd,-0.33795753972151377,-1.1424416964092556,-0.33969880658983304
perc,resp,729,1,2.3.1left.bmp,1.2.3right.bmp,,ACC015,"[0, 2, -2]","[-2, 0, 2]",[],non-match,0.29289321881345254,1,-0.3500974438658399,-0.16939103218510515,-0.4288057128228395,2nd,2nd,2nd,-0.33795753972151377,-0.3412929836745189,-0.33969880658983304
perc,resp,1834,1,3.3.3left.bmp,3.1.3right.bmp,,ACC015,"[2, 2, 2]","[2, -2, 2]",[],non-match,0.42264973081037416,2,-1.1193931612149188,0.8705756037545309,-0.2876906683778401,1st,4th,2nd,-1.2420086048927332,1.2425520032008055,-0.33969880658983304
perc,resp,851,0,3.1.2left.bmp,3.1.2right.bmp,,ACC015,"[2, -2, 0]","[2, -2, 0]",[],match,1.0,,-2.199555286963063,0.39757596518411964,-0.3632695691595849,1st,3rd,2nd,-1.2420086048927332,0.239665854052793,-0.33969880658983304
perc,resp,1868,0,2.1.2left.bmp,3.2.2right.bmp,,ACC015,"[0, -2, 0]","[2, 0, 0]",[],non-match,0.5917517095361369,3,-2.0614701385543412,-1.9942777049748268,-0.4377357897642327,1st,1st,2nd,-1.2420086048927332,-1.1424416964092556,-0.33969880658983304
perc,resp,946,1,3.3.1left.bmp,1.1.3right.bmp,,ACC015,"[2, 2, -2]","[-2, -2, 2]",[],non-match,0.0,1,0.10949057958714888,-0.49436906031696837,-0.8539186730311836,3rd,2nd,2nd,0.3032411203728227,-0.3412929836745189,-0.33969880658983304
perc,resp,1249,1,1.2.1left.bmp,3.3.3right.bmp,,ACC015,"[-2, 0, -2]","[2, 2, 2]",[],non-match,0.1339745962155613,1,-0.5279913100188681,0.7899439140988453,-1.692001070131858,2nd,4th,1st,-0.33795753972151377,1.2425520032008055,-1.3405412607173721
perc,resp,1551,1,2.2.3left.bmp,1.1.1right.bmp,,ACC015,"[0, 0, 2]","[-2, -2, -2]",[],non-match,0.29289321881345254,1,-1.659177984341877,1.1529850959512538,-1.7045969977559914,1st,4th,1st,-1.2420086048927332,1.2425520032008055,-1.3405412607173721
perc,resp,800,1,1.2.2left.bmp,2.3.1right.bmp,,ACC015,"[-2, 0, 0]","[0, 2, -2]",[],non-match,0.5,3,1.5195660345289186,-0.19658310357412914,-1.4440748869139175,4th,2nd,1st,1.276206868728757,-0.3412929836745189,-1.3405412607173721
perc,resp,936,1,1.3.3left.bmp,1.3.3right.bmp,,ACC015,"[-2, 2, 2]","[-2, 2, 2]",[],match,1.0,,1.1653634995077287,-0.0061846554881169235,-1.4826215302438484,4th,3rd,1st,1.276206868728757,0.239665854052793,-1.3405412607173721
perc,resp,2437,1,1.1.2left.bmp,1.1.2right.bmp,,ACC015,"[-2, -2, 0]","[-2, -2, 0]",[],match,1.0,,-1.786267207324617,-1.2843951236814342,-1.5886771319982618,1st,1st,1st,-1.2420086048927332,-1.1424416964092556,-1.3405412607173721
perc,resp,1005,1,2.3.3left.bmp,2.3.3right.bmp,,ACC015,"[0, 2, 2]","[0, 2, 2]",[],match,1.0,,-1.4789632021724886,-1.0937683251975203,-1.507624230536915,1st,1st,1st,-1.2420086048927332,-1.1424416964092556,-1.3405412607173721
perc,resp,1204,0,3.3.2left.bmp,3.2.2right.bmp,,ACC015,"[2, 2, 0]","[2, 0, 0]",[],non-match,0.7113248654051871,4,-0.6078726046790882,-0.08235826740500192,-1.5145334673121262,2nd,2nd,1st,-0.33795753972151377,-0.3412929836745189,-1.3405412607173721
perc,resp,1811,0,1.3.2left.bmp,1.2.1right.bmp,,ACC015,"[-2, 2, 0]","[-2, 0, -2]",[],non-match,0.5917517095361369,3,-1.2796198013097104,-1.423819010921057,-1.3202162095344803,1st,1st,1st,-1.2420086048927332,-1.1424416964092556,-1.3405412607173721
perc,resp,747,0,2.2.1left.bmp,2.2.1right.bmp,,ACC015,"[0, 0, -2]","[0, 0, -2]",[],match,1.0,,-1.5830104099815099,-1.235925729032331,-1.5857461016422996,1st,1st,1st,-1.2420086048927332,-1.1424416964092556,-1.3405412607173721
perc,resp,1075,0,2.1.2left.bmp,2.1.2right.bmp,,ACC015,"[0, -2, 0]","[0, -2, 0]",[],match,1.0,,-0.12821892235918186,-0.8755003543973547,-1.4268859098763638,2nd,1st,1st,-0.33795753972151377,-1.1424416964092556,-1.3405412607173721
perc,resp,1660,1,2.2.3left.bmp,2.2.3right.bmp,,ACC015,"[0, 0, 2]","[0, 0, 2]",[],match,1.0,,-1.2276516882872575,-1.6031207138222343,-1.2212734058539754,1st,1st,1st,-1.2420086048927332,-1.1424416964092556,-1.3405412607173721
perc,resp,1055,1,3.2.1left.bmp,2.3.2right.bmp,,ACC015,"[2, 0, -2]","[0, 2, 0]",[],non-match,0.5,3,-0.6272054086865666,-0.17451524080371233,-0.9560274836288866,2nd,2nd,2nd,-0.33795753972151377,-0.3412929836745189,-0.33969880658983304
perc,resp,1226,1,2.3.1left.bmp,3.3.3right.bmp,,ACC015,"[0, 2, -2]","[2, 2, 2]",[],non-match,0.3545027756320971,2,-1.3889594719704794,0.25271220902453323,-0.9402059821007661,1st,3rd,2nd,-1.2420086048927332,0.239665854052793,-0.33969880658983304
perc,resp,955,0,3.1.2left.bmp,3.1.2right.bmp,,ACC015,"[2, -2, 0]","[2, -2, 0]",[],match,1.0,,1.4415429211200197,0.08018927192374171,-1.1313146683568251,4th,3rd,1st,1.276206868728757,0.239665854052793,-1.3405412607173721
perc,resp,1155,1,2.2.2left.bmp,2.2.2right.bmp,,ACC015,"[0, 0, 0]","[0, 0, 0]",[],match,1.0,,-0.9033552111982296,-0.8566732468520879,-1.1110661812493277,1st,1st,1st,-1.2420086048927332,-1.1424416964092556,-1.3405412607173721
perc,resp,964,1,1.3.3left.bmp,1.3.3right.bmp,,ACC015,"[-2, 2, 2]","[-2, 2, 2]",[],match,1.0,,0.11254112577289577,0.2784276248420628,-0.9594969363110943,3rd,3rd,1st,0.3032411203728227,0.239665854052793,-1.3405412607173721
perc,resp,1163,1,3.3.3left.bmp,3.3.3right.bmp,,ACC015,"[2, 2, 2]","[2, 2, 2]",[],match,1.0,,0.9741160790325686,0.570775131873033,-0.889899897896496,4th,4th,2nd,1.276206868728757,1.2425520032008055,-0.33969880658983304
perc,resp,881,1,3.3.1left.bmp,1.2.3right.bmp,,ACC015,"[2, 2, -2]","[-2, 0, 2]",[],non-match,0.1339745962155613,1,-0.05050204292359409,-1.5785682749064314,-0.6862639377418914,2nd,1st,2nd,-0.33795753972151377,-1.1424416964092556,-0.33969880658983304
perc,resp,1504,1,3.3.3left.bmp,3.3.3right.bmp,,ACC015,"[2, 2, 2]","[2, 2, 2]",[],match,1.0,,1.4328871652390283,0.7552846747052,-0.46157525442947045,4th,4th,2nd,1.276206868728757,1.2425520032008055,-0.33969880658983304
perc,resp,801,1,1.1.2left.bmp,1.1.2right.bmp,,ACC015,"[-2, -2, 0]","[-2, -2, 0]",[],match,1.0,,0.05181539800813723,1.619397719145014,-0.1982862543414795,3rd,4th,2nd,0.3032411203728227,1.2425520032008055,-0.33969880658983304
perc,resp,949,1,2.1.3left.bmp,2.3.3right.bmp,,ACC015,"[0, -2, 2]","[0, 2, 2]",[],non-match,0.42264973081037416,2,2.041130857762776,3.67342065832491,-0.38423274770820015,4th,4th,2nd,1.276206868728757,1.2425520032008055,-0.33969880658983304
perc,resp,1289,0,2.2.3left.bmp,3.1.3right.bmp,,ACC015,"[0, 0, 2]","[2, -2, 2]",[],non-match,0.5917517095361369,3,1.0155059997663451,0.22442495929422052,-0.08818687759223158,4th,3rd,2nd,1.276206868728757,0.239665854052793,-0.33969880658983304
perc,resp,1228,1,2.2.2left.bmp,2.2.2right.bmp,,ACC015,"[0, 0, 0]","[0, 0, 0]",[],match,1.0,,0.8567536226197097,1.0915920952614728,-0.20927660365580672,4th,4th,2nd,1.276206868728757,1.2425520032008055,-0.33969880658983304
perc,resp,867,1,3.3.1left.bmp,1.1.2right.bmp,,ACC015,"[2, 2, -2]","[-2, -2, 0]",[],non-match,0.1339745962155613,1,0.0749332574735752,5.450138736606183,0.06618295767048901,3rd,4th,2nd,0.3032411203728227,1.2425520032008055,-0.33969880658983304
perc,resp,1288,1,3.2.1left.bmp,3.2.1right.bmp,,ACC015,"[2, 0, -2]","[2, 0, -2]",[],match,1.0,,1.5895569162093635,0.3172371380695887,-0.09322223553482463,4th,3rd,2nd,1.276206868728757,0.239665854052793,-0.33969880658983304
perc,resp,845,1,2.3.2left.bmp,2.1.1right.bmp,,ACC015,"[0, 2, 0]","[0, -2, -2]",[],non-match,0.3545027756320971,2,0.6630151766103484,-0.5849484427357046,0.29730680742147614,4th,2nd,3rd,1.276206868728757,-0.3412929836745189,0.4324444089250034
perc,resp,912,0,2.2.1left.bmp,2.2.1right.bmp,,ACC015,"[0, 0, -2]","[0, 0, -2]",[],match,1.0,,-0.08630490986646026,-0.04662880115698789,0.11007937085979218,2nd,2nd,3rd,-0.33795753972151377,-0.3412929836745189,0.4324444089250034
perc,resp,1163,0,1.3.1left.bmp,1.2.3right.bmp,,ACC015,"[-2, 2, -2]","[-2, 0, 2]",[],non-match,0.3545027756320971,2,-0.8978583671739692,1.6258666800308874,0.1678699163283963,1st,4th,3rd,-1.2420086048927332,1.2425520032008055,0.4324444089250034
perc,resp,1020,1,1.3.2left.bmp,2.1.2right.bmp,,ACC015,"[-2, 2, 0]","[0, -2, 0]",[],non-match,0.3545027756320971,2,1.330871308971426,-0.3346516101727304,0.4578383236945452,4th,2nd,3rd,1.276206868728757,-0.3412929836745189,0.4324444089250034
perc,resp,1000,0,1.1.3left.bmp,3.2.3right.bmp,,ACC015,"[-2, -2, 2]","[2, 0, 2]",[],non-match,0.3545027756320971,2,-0.011226009396514015,0.8803063883695993,0.9906024711792293,2nd,4th,4th,-0.33795753972151377,1.2425520032008055,1.2491799211036219
perc,resp,1359,1,1.1.1left.bmp,1.1.1right.bmp,,ACC015,"[-2, -2, -2]","[-2, -2, -2]",[],match,1.0,,0.005118802150914304,-0.7573638226872564,1.078510934016802,3rd,1st,4th,0.3032411203728227,-1.1424416964092556,1.2491799211036219
perc,resp,1190,1,3.3.2left.bmp,3.3.2right.bmp,,ACC015,"[2, 2, 0]","[2, 2, 0]",[],match,1.0,,-0.5958608025739955,-0.8897751259018255,1.341122812619443,2nd,1st,4th,-0.33795753972151377,-1.1424416964092556,1.2491799211036219
perc,resp,737,1,3.1.2left.bmp,1.3.3right.bmp,,ACC015,"[2, -2, 0]","[-2, 2, 2]",[],non-match,0.1339745962155613,1,-0.0024957733050104966,-0.6853123311328786,1.3057337278292036,3rd,2nd,4th,0.3032411203728227,-0.3412929836745189,1.2491799211036219
perc,resp,1510,1,3.2.2left.bmp,3.3.3right.bmp,,ACC015,"[2, 0, 0]","[2, 2, 2]",[],non-match,0.5917517095361369,3,0.12195859409835434,-0.43780860160430846,1.326343859129004,3rd,2nd,4th,0.3032411203728227,-0.3412929836745189,1.2491799211036219
perc,resp,917,1,3.2.3left.bmp,3.2.3right.bmp,,ACC015,"[2, 0, 2]","[2, 0, 2]",[],match,1.0,,0.7804450442467115,0.9559800846964703,1.4111775709744716,4th,4th,4th,1.276206868728757,1.2425520032008055,1.2491799211036219
perc,resp,744,0,1.2.2left.bmp,1.2.2right.bmp,,ACC015,"[-2, 0, 0]","[-2, 0, 0]",[],match,1.0,,0.9540020972952415,0.007469329665662679,1.5220831691374759,4th,3rd,4th,1.276206868728757,0.239665854052793,1.2491799211036219
perc,resp,1185,1,2.1.2left.bmp,2.1.2right.bmp,,ACC015,"[0, -2, 0]","[0, -2, 0]",[],match,1.0,,-1.1966426814594422,-1.9619451105334402,1.456297041927121,1st,1st,4th,-1.2420086048927332,-1.1424416964092556,1.2491799211036219
perc,resp,1829,1,2.3.1left.bmp,1.2.3right.bmp,,ACC015,"[0, 2, -2]","[-2, 0, 2]",[],non-match,0.29289321881345254,1,-0.17594622836055282,-0.4695944410519803,1.469611662001826,2nd,2nd,4th,-0.33795753972151377,-0.3412929836745189,1.2491799211036219
perc,resp,1239,1,1.3.3left.bmp,3.3.2right.bmp,,ACC015,"[-2, 2, 2]","[2, 2, 0]",[],non-match,0.3545027756320971,2,1.0203712620087426,0.8635947387535683,1.8048454115120944,4th,4th,4th,1.276206868728757,1.2425520032008055,1.2491799211036219
perc,resp,1118,1,3.1.1left.bmp,3.2.1right.bmp,,ACC015,"[2, -2, -2]","[2, 0, -2]",[],non-match,0.7113248654051871,4,-0.30024974853406766,-1.0661682813103932,1.8412236580937384,2nd,1st,4th,-0.33795753972151377,-1.1424416964092556,1.2491799211036219
perc,resp,1743,1,1.2.1left.bmp,1.2.1right.bmp,,ACC015,"[-2, 0, -2]","[-2, 0, -2]",[],match,1.0,,-1.7556359698989206,-0.9363256976865526,1.8988413473397847,1st,1st,4th,-1.2420086048927332,-1.1424416964092556,1.2491799211036219
perc,resp,1152,1,3.1.3left.bmp,2.3.1right.bmp,,ACC015,"[2, -2, 2]","[0, 2, -2]",[],non-match,0.1339745962155613,1,0.22009057447639174,0.5490461368705426,1.6576528892845972,3rd,4th,4th,0.3032411203728227,1.2425520032008055,1.2491799211036219
perc,resp,1082,1,2.1.1left.bmp,2.1.1right.bmp,,ACC015,"[0, -2, -2]","[0, -2, -2]",[],match,1.0,,-0.3545605066774739,-0.665571222200647,1.610921644218608,2nd,2nd,4th,-0.33795753972151377,-0.3412929836745189,1.2491799211036219
perc,resp,969,1,1.2.3left.bmp,1.2.3right.bmp,,ACC015,"[-2, 0, 2]","[-2, 0, 2]",[],match,1.0,,-0.7264017063894189,1.7543782356280304,1.5544129247742628,1st,4th,4th,-1.2420086048927332,1.2425520032008055,1.2491799211036219
perc,resp,736,1,2.3.3left.bmp,2.3.3right.bmp,,ACC015,"[0, 2, 2]","[0, 2, 2]",[],match,1.0,,-0.463498837241594,1.1522890528155303,1.4309809730233025,2nd,4th,4th,-0.33795753972151377,1.2425520032008055,1.2491799211036219
perc,resp,839,0,1.2.1left.bmp,1.1.3right.bmp,,ACC015,"[-2, 0, -2]","[-2, -2, 2]",[],non-match,0.3545027756320971,2,0.9618849309090309,-0.6933773216308133,1.665255472904702,4th,2nd,4th,1.276206868728757,-0.3412929836745189,1.2491799211036219
perc,resp,987,1,1.2.3left.bmp,1.2.3right.bmp,,ACC015,"[-2, 0, 2]","[-2, 0, 2]",[],match,1.0,,0.7543757073461298,0.5612923857078242,1.270710086419258,4th,4th,4th,1.276206868728757,1.2425520032008055,1.2491799211036219
perc,resp,1138,1,2.3.1left.bmp,2.3.1right.bmp,,ACC015,"[0, 2, -2]","[0, 2, -2]",[],match,1.0,,-0.16702474031864975,-1.2765239501329355,1.3579969319382743,2nd,1st,4th,-0.33795753972151377,-1.1424416964092556,1.2491799211036219
perc,resp,835,0,2.1.3left.bmp,2.1.3right.bmp,,ACC015,"[0, -2, 2]","[0, -2, 2]",[],match,1.0,,-0.6538466511584907,-0.693595019663145,1.4832157629608984,2nd,2nd,4th,-0.33795753972151377,-0.3412929836745189,1.2491799211036219
perc,resp,1456,1,3.1.1left.bmp,3.1.1right.bmp,,ACC015,"[2, -2, -2]","[2, -2, -2]",[],match,1.0,,-0.3269416963816152,-0.23488263203171286,1.482144633094827,2nd,2nd,4th,-0.33795753972151377,-0.3412929836745189,1.2491799211036219
perc,resp,1277,0,2.1.1left.bmp,2.1.1right.bmp,,ACC015,"[0, -2, -2]","[0, -2, -2]",[],match,1.0,,-0.5244077018598304,-0.5318685614244023,1.7497072828163813,2nd,2nd,4th,-0.33795753972151377,-0.3412929836745189,1.2491799211036219
perc,resp,1732,1,1.3.1left.bmp,3.2.3right.bmp,,ACC015,"[-2, 2, -2]","[2, 0, 2]",[],non-match,0.1339745962155613,1,-0.462883148393081,-0.2869875376826508,1.7456405990062749,2nd,2nd,4th,-0.33795753972151377,-0.3412929836745189,1.2491799211036219
perc,resp,909,1,2.2.3left.bmp,2.2.3right.bmp,,ACC015,"[0, 0, 2]","[0, 0, 2]",[],match,1.0,,-0.08406890283609905,-0.13059486578845245,1.6230750703193693,2nd,2nd,4th,-0.33795753972151377,-0.3412929836745189,1.2491799211036219
perc,resp,978,1,1.3.2left.bmp,2.2.1right.bmp,,ACC015,"[-2, 2, 0]","[0, 0, -2]",[],non-match,0.5,3,0.38966933756870464,0.27250874827552596,1.105419850092188,3rd,3rd,4th,0.3032411203728227,0.239665854052793,1.2491799211036219
perc,resp,2505,0,3.1.2left.bmp,2.3.1right.bmp,,ACC015,"[2, -2, 0]","[0, 2, -2]",[],non-match,0.29289321881345254,1,0.6292783522737982,-0.018063984589928393,0.9185878237849572,3rd,3rd,4th,0.3032411203728227,0.239665854052793,1.2491799211036219
perc,resp,1075,1,1.3.3left.bmp,1.3.3right.bmp,,ACC015,"[-2, 2, 2]","[-2, 2, 2]",[],match,1.0,,2.2364921382007346,2.2299373947738923,1.1121227287741573,4th,4th,4th,1.276206868728757,1.2425520032008055,1.2491799211036219
perc,resp,1276,1,3.1.3left.bmp,3.1.3right.bmp,,ACC015,"[2, -2, 2]","[2, -2, 2]",[],match,1.0,,-0.8268197527247839,0.9697018079697709,1.3446196044819343,1st,4th,4th,-1.2420086048927332,1.2425520032008055,1.2491799211036219
perc,resp,1185,1,3.3.2left.bmp,3.3.2right.bmp,,ACC015,"[2, 2, 0]","[2, 2, 0]",[],match,1.0,,2.284050868662967,1.7109227850643223,1.3083619049766402,4th,4th,4th,1.276206868728757,1.2425520032008055,1.2491799211036219
perc,resp,732,1,2.2.2left.bmp,3.2.2right.bmp,,ACC015,"[0, 0, 0]","[2, 0, 0]",[],non-match,0.7113248654051871,4,0.4575903545060815,0.4496309678612169,1.2002307894021573,3rd,3rd,4th,0.3032411203728227,0.239665854052793,1.2491799211036219
perc,resp,1302,0,1.1.3left.bmp,1.1.2right.bmp,,ACC015,"[-2, -2, 2]","[-2, -2, 0]",[],non-match,0.7113248654051871,4,2.1512775764040746,2.3090929603690484,1.2899848447870892,4th,4th,4th,1.276206868728757,1.2425520032008055,1.2491799211036219
perc,resp,1102,1,3.3.1left.bmp,1.3.1right.bmp,,ACC015,"[2, 2, -2]","[-2, 2, -2]",[],non-match,0.42264973081037416,2,0.009233736756403628,-0.05202440517948261,1.1841046891281732,3rd,2nd,4th,0.3032411203728227,-0.3412929836745189,1.2491799211036219
perc,resp,2712,1,3.2.1left.bmp,3.2.1right.bmp,,ACC015,"[2, 0, -2]","[2, 0, -2]",[],match,1.0,,-0.9576910576330036,-0.9149892346041092,1.1895349340098835,1st,1st,4th,-1.2420086048927332,-1.1424416964092556,1.2491799211036219
perc,resp,893,1,2.2.1left.bmp,1.2.3right.bmp,,ACC015,"[0, 0, -2]","[-2, 0, 2]",[],non-match,0.3545027756320971,2,0.8579382780227875,0.014893592924136067,1.197384447773046,4th,3rd,4th,1.276206868728757,0.239665854052793,1.2491799211036219
perc,resp,1089,0,1.1.1left.bmp,1.1.1right.bmp,,ACC015,"[-2, -2, -2]","[-2, -2, -2]",[],match,1.0,,0.6979867616068811,2.4889105606382604,1.328650155526129,4th,4th,4th,1.276206868728757,1.2425520032008055,1.2491799211036219
perc,resp,1305,0,3.3.3left.bmp,2.2.3right.bmp,,ACC015,"[2, 2, 2]","[0, 0, 2]",[],non-match,0.5917517095361369,3,2.260638255518854,2.516165143622328,1.171901407087975,4th,4th,4th,1.276206868728757,1.2425520032008055,1.2491799211036219
perc,resp,1144,1,1.1.2left.bmp,1.1.2right.bmp,,ACC015,"[-2, -2, 0]","[-2, -2, 0]",[],match,1.0,,-0.3520064892560177,0.0023321876135986943,1.2048010233188602,2nd,3rd,4th,-0.33795753972151377,0.239665854052793,1.2491799211036219
perc,resp,1447,1,3.2.2left.bmp,3.2.2right.bmp,,ACC015,"[2, 0, 0]","[2, 0, 0]",[],match,1.0,,-0.3105316312846225,-1.5067886936571873,1.1515492074402907,2nd,1st,4th,-0.33795753972151377,-1.1424416964092556,1.2491799211036219
perc,resp,1116,1,1.2.2left.bmp,1.2.2right.bmp,,ACC015,"[-2, 0, 0]","[-2, 0, 0]",[],match,1.0,,0.1404398697453751,0.425149366161415,1.1873203758203346,3rd,3rd,4th,0.3032411203728227,0.239665854052793,1.2491799211036219
perc,resp,1789,1,2.1.2left.bmp,2.1.2right.bmp,,ACC015,"[0, -2, 0]","[0, -2, 0]",[],match,1.0,,0.8061752326695327,0.13146168376314682,1.1004884598789486,4th,3rd,4th,1.276206868728757,0.239665854052793,1.2491799211036219
perc,resp,744,0,2.3.2left.bmp,1.1.1right.bmp,,ACC015,"[0, 2, 0]","[-2, -2, -2]",[],non-match,0.29289321881345254,1,0.09883221323221147,-0.9487843885032998,0.7041271463068497,3rd,1st,3rd,0.3032411203728227,-1.1424416964092556,0.4324444089250034
perc,resp,1003,1,3.2.3left.bmp,3.2.3right.bmp,,ACC015,"[2, 0, 2]","[2, 0, 2]",[],match,1.0,,0.8879032111310501,0.5719869178141419,0.7183966540007639,4th,4th,3rd,1.276206868728757,1.2425520032008055,0.4324444089250034
perc,resp,782,1,3.3.3left.bmp,3.3.3right.bmp,,ACC015,"[2, 2, 2]","[2, 2, 2]",[],match,1.0,,1.2164882677645972,-0.2645843505507338,0.6383388453839371,4th,2nd,3rd,1.276206868728757,-0.3412929836745189,0.4324444089250034
perc,resp,1030,1,3.1.2left.bmp,1.3.2right.bmp,,ACC015,"[2, -2, 0]","[-2, 2, 0]",[],non-match,0.18350341907227385,1,0.07454281969165422,-0.8147129144837758,0.013962194548467578,3rd,1st,2nd,0.3032411203728227,-1.1424416964092556,-0.33969880658983304
perc,resp,1129,1,3.1.1left.bmp,2.3.2right.bmp,,ACC015,"[2, -2, -2]","[0, 2, 0]",[],non-match,0.29289321881345254,1,0.21731595199969253,0.34156401102209744,0.16432717537016225,3rd,3rd,3rd,0.3032411203728227,0.239665854052793,0.4324444089250034
perc,resp,1128,0,1.2.3left.bmp,2.2.1right.bmp,,ACC015,"[-2, 0, 2]","[0, 0, -2]",[],non-match,0.3545027756320971,2,-0.13515470681313352,-0.8356688747727804,-0.004304605563975801,2nd,1st,2nd,-0.33795753972151377,-1.1424416964092556,-0.33969880658983304
perc,resp,1107,1,2.2.3left.bmp,1.1.3right.bmp,,ACC015,"[0, 0, 2]","[-2, -2, 2]",[],non-match,0.5917517095361369,3,0.8952235384065054,0.20524792560013783,0.16215896908036478,4th,3rd,3rd,1.276206868728757,0.239665854052793,0.4324444089250034
perc,resp,804,0,2.1.3left.bmp,2.1.3right.bmp,,ACC015,"[0, -2, 2]","[0, -2, 2]",[],match,1.0,,-1.2616743190887578,0.7222008338088026,-0.030325690143445213,1st,4th,2nd,-1.2420086048927332,1.2425520032008055,-0.33969880658983304
perc,resp,1876,0,2.2.2left.bmp,3.3.2right.bmp,,ACC015,"[0, 0, 0]","[2, 2, 0]",[],non-match,0.5917517095361369,3,-0.4885431170147378,0.3160650678088438,-0.12935158199998162,2nd,3rd,2nd,-0.33795753972151377,0.239665854052793,-0.33969880658983304
perc,resp,1684,1,3.2.2left.bmp,3.2.2right.bmp,,ACC015,"[2, 0, 0]","[2, 0, 0]",[],match,1.0,,-0.8115006270073932,-0.05562385648435485,-0.13428612139537652,1st,2nd,2nd,-1.2420086048927332,-0.3412929836745189,-0.33969880658983304
perc,resp,1146,1,1.2.2left.bmp,1.2.2right.bmp,,ACC015,"[-2, 0, 0]","[-2, 0, 0]",[],match,1.0,,0.4681040526565225,0.6280723090743545,-0.2043519705503222,3rd,4th,2nd,0.3032411203728227,1.2425520032008055,-0.33969880658983304
perc,resp,763,0,3.2.3left.bmp,3.3.3right.bmp,,ACC015,"[2, 0, 2]","[2, 2, 2]",[],non-match,0.7113248654051871,4,-1.1591449381171486,-0.8862057215761362,-0.5173486365747696,1st,1st,2nd,-1.2420086048927332,-1.1424416964092556,-0.33969880658983304
perc,resp,1077,1,2.3.2left.bmp,2.3.2right.bmp,,ACC015,"[0, 2, 0]","[0, 2, 0]",[],match,1.0,,0.6194244316142374,-0.47965938365726607,-0.2810224038179205,3rd,2nd,2nd,0.3032411203728227,-0.3412929836745189,-0.33969880658983304
perc,resp,1018,0,3.3.1left.bmp,2.2.2right.bmp,,ACC015,"[2, 2, -2]","[0, 0, 0]",[],non-match,0.5,3,-0.2797703360705585,-0.8914511202311043,-0.5100310582384309,2nd,1st,2nd,-0.33795753972151377,-1.1424416964092556,-0.33969880658983304
perc,resp,953,1,3.1.3left.bmp,1.3.3right.bmp,,ACC015,"[2, -2, 2]","[-2, 2, 2]",[],non-match,0.18350341907227385,1,0.22151610194739144,-0.38984988010566696,-0.4932958711945502,3rd,2nd,2nd,0.3032411203728227,-0.3412929836745189,-0.33969880658983304
perc,resp,1118,1,1.2.3left.bmp,3.2.3right.bmp,,ACC015,"[-2, 0, 2]","[2, 0, 2]",[],non-match,0.42264973081037416,2,0.8115649740318117,1.6052944891131207,-0.5024826512123304,4th,4th,2nd,1.276206868728757,1.2425520032008055,-0.33969880658983304
perc,resp,866,0,2.3.1left.bmp,3.3.2right.bmp,,ACC015,"[0, 2, -2]","[2, 2, 0]",[],non-match,0.5917517095361369,3,1.8776426222403568,0.7155529899551623,-0.676922621171449,4th,4th,2nd,1.276206868728757,1.2425520032008055,-0.33969880658983304
perc,resp,723,1,1.1.1left.bmp,1.3.1right.bmp,,ACC015,"[-2, -2, -2]","[-2, 2, -2]",[],non-match,0.42264973081037416,2,-0.3233728272803481,-0.7581254409881617,-0.48321712680308754,2nd,1st,2nd,-0.33795753972151377,-1.1424416964092556,-0.33969880658983304
perc,resp,980,1,2.3.3left.bmp,2.3.3right.bmp,,ACC015,"[0, 2, 2]","[0, 2, 2]",[],match,1.0,,-0.46477069528250603,-1.2748740385969,-0.2809901528629825,2nd,1st,2nd,-0.33795753972151377,-1.1424416964092556,-0.33969880658983304
perc,resp,988,1,3.1.2left.bmp,3.1.2right.bmp,,ACC015,"[2, -2, 0]","[2, -2, 0]",[],match,1.0,,0.2163148703932998,0.21692433562725505,-0.5480588562907106,3rd,3rd,2nd,0.3032411203728227,0.239665854052793,-0.33969880658983304
perc,resp,1117,1,2.2.3left.bmp,1.1.3right.bmp,,ACC015,"[0, 0, 2]","[-2, -2, 2]",[],non-match,0.5917517095361369,3,-0.4606005764031246,-0.7827970172560557,-1.0146121458971427,2nd,1st,1st,-0.33795753972151377,-1.1424416964092556,-1.3405412607173721
perc,resp,976,1,3.1.1left.bmp,3.1.1right.bmp,,ACC015,"[2, -2, -2]","[2, -2, -2]",[],match,1.0,,-0.9250652601259257,0.5806252111711281,-1.1774681787804648,1st,4th,1st,-1.2420086048927332,1.2425520032008055,-1.3405412607173721
perc,resp,1487,1,1.2.1left.bmp,1.2.1right.bmp,,ACC015,"[-2, 0, -2]","[-2, 0, -2]",[],match,1.0,,1.1625182754771464,1.277128340105735,-1.214942297967084,4th,4th,1st,1.276206868728757,1.2425520032008055,-1.3405412607173721
perc,resp,1126,1,1.3.2left.bmp,1.1.1right.bmp,,ACC015,"[-2, 2, 0]","[-2, -2, -2]",[],non-match,0.3545027756320971,2,-0.2620766317120949,-0.5238029120743352,-0.9529598937377538,2nd,2nd,2nd,-0.33795753972151377,-0.3412929836745189,-0.33969880658983304
perc,resp,883,1,3.2.1left.bmp,3.2.1right.bmp,,ACC015,"[2, 0, -2]","[2, 0, -2]",[],match,1.0,,-0.5744804203735725,-1.1899361024767428,-1.1010290896299526,2nd,1st,1st,-0.33795753972151377,-1.1424416964092556,-1.3405412607173721
perc,resp,1294,1,3.1.3left.bmp,3.1.3right.bmp,,ACC015,"[2, -2, 2]","[2, -2, 2]",[],match,1.0,,0.11201363113496107,-1.5407621251922141,-1.1712467309119785,3rd,1st,1st,0.3032411203728227,-1.1424416964092556,-1.3405412607173721
perc,resp,1153,1,2.1.3left.bmp,2.1.3right.bmp,,ACC015,"[0, -2, 2]","[0, -2, 2]",[],match,1.0,,0.5597306249924858,-0.7757327161068922,-0.7340952604339067,3rd,1st,2nd,0.3032411203728227,-1.1424416964092556,-0.33969880658983304
perc,resp,1010,1,1.1.3left.bmp,1.1.3right.bmp,,ACC015,"[-2, -2, 2]","[-2, -2, 2]",[],match,1.0,,0.8769618354917392,-0.4119863816114052,-1.3338356673234424,4th,2nd,1st,1.276206868728757,-0.3412929836745189,-1.3405412607173721
perc,resp,1168,0,3.2.3left.bmp,3.2.2right.bmp,,ACC015,"[2, 0, 2]","[2, 0, 0]",[],non-match,0.7113248654051871,4,2.0864198362438735,0.45442094466863897,-1.140355524225127,4th,3rd,1st,1.276206868728757,0.239665854052793,-1.3405412607173721
perc,resp,805,1,2.3.2left.bmp,3.2.1right.bmp,,ACC015,"[0, 2, 0]","[2, 0, -2]",[],non-match,0.5,3,0.1825580747583856,1.706856667133072,-1.0434488172525238,3rd,4th,1st,0.3032411203728227,1.2425520032008055,-1.3405412607173721
perc,resp,842,1,1.3.3left.bmp,1.3.3right.bmp,,ACC015,"[-2, 2, 2]","[-2, 2, 2]",[],match,1.0,,1.3415789143017005,-0.8550265779020374,-1.198972751313019,4th,1st,1st,1.276206868728757,-1.1424416964092556,-1.3405412607173721
perc,resp,1371,1,1.1.2left.bmp,1.1.2right.bmp,,ACC015,"[-2, -2, 0]","[-2, -2, 0]",[],match,1.0,,0.656957592435749,0.2505341361509017,-1.0403625956733646,4th,3rd,1st,1.276206868728757,0.239665854052793,-1.3405412607173721
perc,resp,1000,0,1.2.2left.bmp,2.2.2right.bmp,,ACC015,"[-2, 0, 0]","[0, 0, 0]",[],non-match,0.7113248654051871,4,-1.645985162852391,-1.4702184619582637,-1.2279393753880201,1st,1st,1st,-1.2420086048927332,-1.1424416964092556,-1.3405412607173721
perc,resp,1249,0,2.1.2left.bmp,3.1.2right.bmp,,ACC015,"[0, -2, 0]","[2, -2, 0]",[],non-match,0.7113248654051871,4,-0.370113757327595,-0.2682739815491617,-1.1405110149180868,2nd,2nd,1st,-0.33795753972151377,-0.3412929836745189,-1.3405412607173721
perc,resp,1149,0,3.3.1left.bmp,3.1.3right.bmp,,ACC015,"[2, 2, -2]","[2, -2, 2]",[],non-match,0.18350341907227385,1,-0.22614408318784118,-1.7500257096947567,-1.2625594076684927,2nd,1st,1st,-0.33795753972151377,-1.1424416964092556,-1.3405412607173721
perc,resp,1016,1,2.1.1left.bmp,2.1.1right.bmp,,ACC015,"[0, -2, -2]","[0, -2, -2]",[],match,1.0,,0.763137708315791,0.20211664686937478,-0.8819492089950555,4th,3rd,2nd,1.276206868728757,0.239665854052793,-0.33969880658983304
perc,resp,1236,1,3.3.3left.bmp,3.1.1right.bmp,,ACC015,"[2, 2, 2]","[2, -2, -2]",[],non-match,0.18350341907227385,1,-1.530846956259815,-1.2359207331983746,-1.1099710520797526,1st,1st,1st,-1.2420086048927332,-1.1424416964092556,-1.3405412607173721
perc,resp,954,1,2.2.1left.bmp,2.2.1right.bmp,,ACC015,"[0, 0, -2]","[0, 0, -2]",[],match,1.0,,-0.867394621089425,-0.8239437687446364,-1.1376505700411863,1st,1st,1st,-1.2420086048927332,-1.1424416964092556,-1.3405412607173721
perc,resp,831,1,1.3.1left.bmp,1.3.1right.bmp,,ACC015,"[-2, 2, -2]","[-2, 2, -2]",[],match,1.0,,0.4058870748943239,0.18602217006768984,-1.5246405384417998,3rd,3rd,1st,0.3032411203728227,0.239665854052793,-1.3405412607173721
perc,resp,1060,0,2.2.2left.bmp,2.3.1right.bmp,,ACC015,"[0, 0, 0]","[0, 2, -2]",[],non-match,0.5917517095361369,3,-0.1400610387234359,0.17912109076809804,-1.5187872090106744,2nd,3rd,1st,-0.33795753972151377,0.239665854052793,-1.3405412607173721
perc,resp,735,0,3.3.2left.bmp,2.1.3right.bmp,,ACC015,"[2, 2, 0]","[0, -2, 2]",[],non-match,0.29289321881345254,1,0.22422332593554675,0.567988124604997,-1.4182738595803521,3rd,4th,1st,0.3032411203728227,1.2425520032008055,-1.3405412607173721
perc,resp,1275,1,2.2.3left.bmp,1.1.2right.bmp,,ACC015,"[0, 0, 2]","[-2, -2, 0]",[],non-match,0.5,3,-0.30581530664055884,0.751676896395226,-1.3637296051458137,2nd,4th,1st,-0.33795753972151377,1.2425520032008055,-1.3405412607173721
perc,resp,1044,1,1.1.1left.bmp,2.3.3right.bmp,,ACC015,"[-2, -2, -2]","[0, 2, 2]",[],non-match,0.1339745962155613,1,0.3105962815962836,-0.20983195925980555,-1.2645224084334727,3rd,2nd,1st,0.3032411203728227,-0.3412929836745189,-1.3405412607173721
perc,resp,931,1,3.1.3left.bmp,2.2.1right.bmp,,ACC015,"[2, -2, 2]","[0, 0, -2]",[],non-match,0.29289321881345254,1,-0.057349777944290754,0.14240239403094962,-1.7538937953361726,2nd,3rd,1st,-0.33795753972151377,0.239665854052793,-1.3405412607173721
perc,resp,818,0,2.2.2left.bmp,1.2.1right.bmp,,ACC015,"[0, 0, 0]","[-2, 0, -2]",[],non-match,0.5917517095361369,3,0.5522317873873972,-0.32546098833900444,-1.863109441142208,3rd,2nd,1st,0.3032411203728227,-0.3412929836745189,-1.3405412607173721
perc,resp,907,1,2.1.1left.bmp,2.1.1right.bmp,,ACC015,"[0, -2, -2]","[0, -2, -2]",[],match,1.0,,-0.7562170475008477,0.7244634759824813,-1.8933568184862763,1st,4th,1st,-1.2420086048927332,1.2425520032008055,-1.3405412607173721
perc,resp,1475,0,2.2.1left.bmp,3.1.3right.bmp,,ACC015,"[0, 0, -2]","[2, -2, 2]",[],non-match,0.29289321881345254,1,-0.8982858647187018,-0.044642928553610316,-1.8079699897785184,1st,2nd,1st,-1.2420086048927332,-0.3412929836745189,-1.3405412607173721
perc,resp,1024,1,1.1.3left.bmp,2.2.3right.bmp,,ACC015,"[-2, -2, 2]","[0, 0, 2]",[],non-match,0.5917517095361369,3,-0.2771316290389622,0.6425620656906117,-1.7254150631489586,2nd,4th,1st,-0.33795753972151377,1.2425520032008055,-1.3405412607173721
perc,resp,1153,1,3.3.1left.bmp,3.1.1right.bmp,,ACC015,"[2, 2, -2]","[2, -2, -2]",[],non-match,0.42264973081037416,2,0.3174101722795917,1.6661920625276951,-1.7696015955203268,3rd,4th,1st,0.3032411203728227,1.2425520032008055,-1.3405412607173721
perc,resp,1394,0,3.1.2left.bmp,3.2.2right.bmp,,ACC015,"[2, -2, 0]","[2, 0, 0]",[],non-match,0.7113248654051871,4,0.30696465922935695,1.532749856887996,-1.8055567558553718,3rd,4th,1st,0.3032411203728227,1.2425520032008055,-1.3405412607173721
perc,resp,279,0,2.1.2left.bmp,2.1.2right.bmp,,ACC015,"[0, -2, 0]","[0, -2, 0]",[],match,1.0,,0.42701037798165176,0.06323531236490798,-1.9163550206821947,3rd,3rd,1st,0.3032411203728227,0.239665854052793,-1.3405412607173721
perc,resp,865,1,2.3.2left.bmp,2.3.2right.bmp,,ACC015,"[0, 2, 0]","[0, 2, 0]",[],match,1.0,,1.0374646779176633,-0.026917215075071946,-1.505879908972684,4th,3rd,1st,1.276206868728757,0.239665854052793,-1.3405412607173721
perc,resp,820,1,1.3.3left.bmp,1.3.3right.bmp,,ACC015,"[-2, 2, 2]","[-2, 2, 2]",[],match,1.0,,1.9093112823500629,0.2377541912490062,-1.618063692657106,4th,3rd,1st,1.276206868728757,0.239665854052793,-1.3405412607173721
perc,resp,1271,0,3.2.3left.bmp,3.2.3right.bmp,,ACC015,"[2, 0, 2]","[2, 0, 2]",[],match,1.0,,0.4368061745099553,0.43914204191280015,-1.226296257985846,3rd,3rd,1st,0.3032411203728227,0.239665854052793,-1.3405412607173721
perc,resp,1280,1,3.2.2left.bmp,3.3.3right.bmp,,ACC015,"[2, 0, 0]","[2, 2, 2]",[],non-match,0.5917517095361369,3,-0.543958474486896,0.7579130554788733,-0.9584839049985484,2nd,4th,2nd,-0.33795753972151377,1.2425520032008055,-0.33969880658983304
perc,resp,867,1,3.1.1left.bmp,1.2.3right.bmp,,ACC015,"[2, -2, -2]","[-2, 0, 2]",[],non-match,0.1339745962155613,1,0.8572752976156357,0.18957918908060387,-1.1966860166269275,4th,3rd,1st,1.276206868728757,0.239665854052793,-1.3405412607173721
perc,resp,794,1,2.3.3left.bmp,2.3.3right.bmp,,ACC015,"[0, 2, 2]","[0, 2, 2]",[],match,1.0,,1.9442958427176749,0.24265038166406416,-1.015150577392521,4th,3rd,1st,1.276206868728757,0.239665854052793,-1.3405412607173721
perc,resp,660,0,1.2.2left.bmp,1.1.3right.bmp,,ACC015,"[-2, 0, 0]","[-2, -2, 2]",[],non-match,0.5917517095361369,3,0.46901871666762446,-0.8217325594843438,-0.8603019145611932,3rd,1st,2nd,0.3032411203728227,-1.1424416964092556,-0.33969880658983304
perc,resp,251,1,3.3.3left.bmp,2.1.1right.bmp,,ACC015,"[2, 2, 2]","[0, -2, -2]",[],non-match,0.1339745962155613,1,1.352370344663115,1.300393047453496,-0.990236932012391,4th,4th,1st,1.276206868728757,1.2425520032008055,-1.3405412607173721
perc,resp,333,1,1.2.1left.bmp,3.2.3right.bmp,,ACC015,"[-2, 0, -2]","[2, 0, 2]",[],non-match,0.18350341907227385,1,0.18815962487947888,0.8730150619088954,-1.0399027897242996,3rd,4th,1st,0.3032411203728227,1.2425520032008055,-1.3405412607173721
perc,resp,678,1,1.3.2left.bmp,1.3.2right.bmp,,ACC015,"[-2, 2, 0]","[-2, 2, 0]",[],match,1.0,,0.4838350169548823,-0.7677758493341204,-1.231157146701706,3rd,1st,1st,0.3032411203728227,-1.1424416964092556,-1.3405412607173721
perc,resp,521,0,3.2.1left.bmp,3.2.1right.bmp,,ACC015,"[2, 0, -2]","[2, 0, -2]",[],match,1.0,,0.7679130825000584,1.347335918622223,-1.1897261420997303,4th,4th,1st,1.276206868728757,1.2425520032008055,-1.3405412607173721
perc,resp,615,1,1.1.2left.bmp,2.1.2right.bmp,,ACC015,"[-2, -2, 0]","[0, -2, 0]",[],non-match,0.7113248654051871,4,0.5420544651094825,1.21032066005553,-1.1190794426453468,3rd,4th,1st,0.3032411203728227,1.2425520032008055,-1.3405412607173721
perc,resp,831,0,3.3.2left.bmp,1.3.3right.bmp,,ACC015,"[2, 2, 0]","[-2, 2, 2]",[],non-match,0.3545027756320971,2,-1.3277485742839856,0.8853536755403629,-1.3422791229228321,1st,4th,1st,-1.2420086048927332,1.2425520032008055,-1.3405412607173721
perc,resp,2864,1,2.3.1left.bmp,2.3.1right.bmp,,ACC015,"[0, 2, -2]","[0, 2, -2]",[],match,1.0,,-0.6957399139127626,-1.0042726751791053,-1.1656502482658648,2nd,1st,1st,-0.33795753972151377,-1.1424416964092556,-1.3405412607173721
perc,resp,1134,1,1.3.1left.bmp,1.3.1right.bmp,,ACC015,"[-2, 2, -2]","[-2, 2, -2]",[],match,1.0,,-1.2759872246608182,0.21598642547453192,-1.3056123092023655,1st,3rd,1st,-1.2420086048927332,0.239665854052793,-1.3405412607173721
perc,resp,1305,0,2.1.3left.bmp,2.1.3right.bmp,,ACC015,"[0, -2, 2]","[0, -2, 2]",[],match,1.0,,-0.9779212480452636,1.1734082866287834,-1.1673250484440174,1st,4th,1st,-1.2420086048927332,1.2425520032008055,-1.3405412607173721
perc,resp,650,1,3.1.2left.bmp,1.2.3right.bmp,,ACC015,"[2, -2, 0]","[-2, 0, 2]",[],non-match,0.29289321881345254,1,-0.011022024074006476,0.8939567710601787,-1.2268152339165859,2nd,4th,1st,-0.33795753972151377,1.2425520032008055,-1.3405412607173721
perc,resp,889,0,3.3.1left.bmp,3.2.2right.bmp,,ACC015,"[2, 2, -2]","[2, 0, 0]",[],non-match,0.5917517095361369,3,0.38519857838513694,-0.07573053238283203,-1.3903543962496874,3rd,2nd,1st,0.3032411203728227,-0.3412929836745189,-1.3405412607173721
perc,resp,624,0,2.3.3left.bmp,2.3.3right.bmp,,ACC015,"[0, 2, 2]","[0, 2, 2]",[],match,1.0,,1.0371833056624888,0.5858112817602654,-1.557101661890466,4th,4th,1st,1.276206868728757,1.2425520032008055,-1.3405412607173721
perc,resp,1030,1,2.2.3left.bmp,2.2.3right.bmp,,ACC015,"[0, 0, 2]","[0, 0, 2]",[],match,1.0,,0.21410268997706838,-1.4029318494665959,-1.433101265667844,3rd,1st,1st,0.3032411203728227,-1.1424416964092556,-1.3405412607173721
perc,resp,759,0,2.2.2left.bmp,1.2.2right.bmp,,ACC015,"[0, 0, 0]","[-2, 0, 0]",[],non-match,0.7113248654051871,4,-1.9744168184645676,0.3817809652822524,-1.1109718635174026,1st,3rd,1st,-1.2420086048927332,0.239665854052793,-1.3405412607173721
perc,resp,966,1,1.2.3left.bmp,1.2.3right.bmp,,ACC015,"[-2, 0, 2]","[-2, 0, 2]",[],match,1.0,,0.6304442760106582,0.1578385354469669,-1.07065452934416,3rd,3rd,1st,0.3032411203728227,0.239665854052793,-1.3405412607173721
perc,resp,994,1,3.1.3left.bmp,3.3.1right.bmp,,ACC015,"[2, -2, 2]","[2, 2, -2]",[],non-match,0.18350341907227385,1,1.2434226674644233,0.08091224494830711,-1.2680312308614419,4th,3rd,1st,1.276206868728757,0.239665854052793,-1.3405412607173721
perc,resp,2687,1,3.1.1left.bmp,3.1.1right.bmp,,ACC015,"[2, -2, -2]","[2, -2, -2]",[],match,1.0,,-0.3418026963530125,-1.0715736269322744,-1.3808193927192904,2nd,1st,1st,-0.33795753972151377,-1.1424416964092556,-1.3405412607173721
perc,resp,856,1,3.2.1left.bmp,2.3.2right.bmp,,ACC015,"[2, 0, -2]","[0, 2, 0]",[],non-match,0.5,3,0.6642547240888362,-0.07061577284802936,-1.1834800586370815,4th,2nd,1st,1.276206868728757,-0.3412929836745189,-1.3405412607173721
perc,resp,912,1,1.3.2left.bmp,1.3.2right.bmp,,ACC015,"[-2, 2, 0]","[-2, 2, 0]",[],match,1.0,,-0.9338198926775813,-1.1657792908864186,-1.0723304454947846,1st,1st,1st,-1.2420086048927332,-1.1424416964092556,-1.3405412607173721
perc,resp,829,1,1.3.1left.bmp,1.3.1right.bmp,,ACC015,"[-2, 2, -2]","[-2, 2, -2]",[],match,1.0,,-0.9236192634767855,-0.3483426534520543,-1.379312706762496,1st,2nd,1st,-1.2420086048927332,-0.3412929836745189,-1.3405412607173721
perc,resp,734,1,1.2.2left.bmp,1.2.2right.bmp,,ACC015,"[-2, 0, 0]","[-2, 0, 0]",[],match,1.0,,1.4121095359054008,0.93153158431837,-0.7495274380936398,4th,4th,2nd,1.276206868728757,1.2425520032008055,-0.33969880658983304
perc,resp,1274,1,3.2.3left.bmp,3.2.3right.bmp,,ACC015,"[2, 0, 2]","[2, 0, 2]",[],match,1.0,,1.016608212115126,0.27404502166014744,-0.6569747586425769,4th,3rd,2nd,1.276206868728757,0.239665854052793,-0.33969880658983304
perc,resp,1881,1,1.1.2left.bmp,2.3.2right.bmp,,ACC015,"[-2, -2, 0]","[0, 2, 0]",[],non-match,0.3545027756320971,2,-1.2300715323324656,0.6044663716877161,-0.7799903452611835,1st,4th,2nd,-1.2420086048927332,1.2425520032008055,-0.33969880658983304
perc,resp,949,0,1.2.1left.bmp,1.3.3right.bmp,,ACC015,"[-2, 0, -2]","[-2, 2, 2]",[],non-match,0.3545027756320971,2,-0.8358608340351572,-0.5411479012965331,-0.7671697900669565,1st,2nd,2nd,-1.2420086048927332,-0.3412929836745189,-0.33969880658983304
perc,resp,2074,1,2.3.1left.bmp,2.3.1right.bmp,,ACC015,"[0, 2, -2]","[0, 2, -2]",[],match,1.0,,0.6689695618705636,1.0119124598558296,-0.9309491011398229,4th,4th,2nd,1.276206868728757,1.2425520032008055,-0.33969880658983304
perc,resp,1165,1,3.3.2left.bmp,1.3.2right.bmp,,ACC015,"[2, 2, 0]","[-2, 2, 0]",[],non-match,0.42264973081037416,2,-1.178138792373068,0.43193212521474666,-0.8016797872614616,1st,3rd,2nd,-1.2420086048927332,0.239665854052793,-0.33969880658983304
perc,resp,1538,1,1.1.1left.bmp,1.1.1right.bmp,,ACC015,"[-2, -2, -2]","[-2, -2, -2]",[],match,1.0,,0.5329749002640372,-0.7277031264797196,-0.4445146226794892,3rd,1st,2nd,0.3032411203728227,-1.1424416964092556,-0.33969880658983304
