mode,type,rt,acc,item_1,item_2,item_cue,subj_idx,item_1_number,item_2_number,item_cue_number,trial_type,similarity,similarity_bin,ams,pams,slps,ams_quantile,pams_quantile,slps_quantile,ams_bin,pam_bin,slp_bin
perc,resp,1551,1,2.3.1left.bmp,2.3.1right.bmp,,ACC017,"[0, 2, -2]","[0, 2, -2]",[],match,1.0,,-1.0359798125015802,1.3920151986077922,0.4797782564995848,1st,4th,3rd,-1.2310033154929765,1.1670627682546828,0.2973213965863526
perc,resp,1514,1,1.1.2left.bmp,1.1.2right.bmp,,ACC017,"[-2, -2, 0]","[-2, -2, 0]",[],match,1.0,,-0.5032627230540022,-0.8888335740954908,0.7512486232576601,2nd,1st,4th,-0.33027445364677105,-1.2506709814620702,1.2700789486140058
perc,resp,1714,0,1.2.1left.bmp,1.2.1right.bmp,,ACC017,"[-2, 0, -2]","[-2, 0, -2]",[],match,1.0,,0.04227660564996767,0.3373941016476865,0.7691657231132218,3rd,3rd,4th,0.31208554452620596,0.3278879091019113,1.2700789486140058
perc,resp,1273,1,3.3.2left.bmp,3.3.2right.bmp,,ACC017,"[2, 2, 0]","[2, 2, 0]",[],match,1.0,,1.681394022661973,0.52058637113559,0.6603181534379015,4th,3rd,3rd,1.2541459634155447,0.3278879091019113,0.2973213965863526
perc,resp,1752,1,1.2.3left.bmp,1.2.3right.bmp,,ACC017,"[-2, 0, 2]","[-2, 0, 2]",[],match,1.0,,0.19554350088489975,-0.807027644780128,0.4862840107634389,3rd,1st,3rd,0.31208554452620596,-1.2506709814620702,0.2973213965863526
perc,resp,1610,1,2.1.1left.bmp,2.1.1right.bmp,,ACC017,"[0, -2, -2]","[0, -2, -2]",[],match,1.0,,-0.5355547553835112,0.24082844596188188,0.41907585398144975,2nd,3rd,3rd,-0.33027445364677105,0.3278879091019113,0.2973213965863526
perc,resp,1521,1,2.1.2left.bmp,2.1.2right.bmp,,ACC017,"[0, -2, 0]","[0, -2, 0]",[],match,1.0,,0.10364684138240925,0.6401642043935672,0.06616092295866556,3rd,3rd,3rd,0.31208554452620596,0.3278879091019113,0.2973213965863526
perc,resp,1809,0,2.2.2left.bmp,1.2.2right.bmp,,ACC017,"[0, 0, 0]","[-2, 0, 0]",[],non-match,0.7113248654051871,4,0.6006796270509628,0.9528788664283663,-0.24094785256507667,3rd,4th,2nd,0.31208554452620596,1.1670627682546828,-0.3318695588764443
perc,resp,1577,0,2.2.1left.bmp,3.2.3right.bmp,,ACC017,"[0, 0, -2]","[2, 0, 2]",[],non-match,0.3545027756320971,2,0.08124842154961465,1.5839578354543502,-0.28542863278933706,3rd,4th,2nd,0.31208554452620596,1.1670627682546828,-0.3318695588764443
perc,resp,1394,1,3.1.1left.bmp,1.1.1right.bmp,,ACC017,"[2, -2, -2]","[-2, -2, -2]",[],non-match,0.42264973081037416,2,-1.4437826596578782,-1.6691348722289674,-0.28192165406823344,1st,1st,2nd,-1.2310033154929765,-1.2506709814620702,-0.3318695588764443
perc,resp,1586,1,2.3.3left.bmp,2.3.3right.bmp,,ACC017,"[0, 2, 2]","[0, 2, 2]",[],match,1.0,,0.2334069292290552,-0.3116833847669198,-0.33342232144629197,3rd,2nd,2nd,0.31208554452620596,-0.23907512590877916,-0.3318695588764443
perc,resp,1734,1,3.3.1left.bmp,1.2.3right.bmp,,ACC017,"[2, 2, -2]","[-2, 0, 2]",[],non-match,0.1339745962155613,1,0.27673868385073885,-0.00841217704121035,-0.19230400414702004,3rd,2nd,2nd,0.31208554452620596,-0.23907512590877916,-0.3318695588764443
perc,resp,1183,1,1.3.3left.bmp,2.2.2right.bmp,,ACC017,"[-2, 2, 2]","[0, 0, 0]",[],non-match,0.5,3,1.265245766236412,0.8032231063008575,-0.1647379897195659,4th,4th,2nd,1.2541459634155447,1.1670627682546828,-0.3318695588764443
perc,resp,1307,1,1.3.1left.bmp,1.1.2right.bmp,,ACC017,"[-2, 2, -2]","[-2, -2, 0]",[],non-match,0.3545027756320971,2,-0.6884104479095213,-0.6294004052036244,-0.11561920892265277,1st,1st,2nd,-1.2310033154929765,-1.2506709814620702,-0.3318695588764443
perc,resp,1352,1,3.1.3left.bmp,1.2.2right.bmp,,ACC017,"[2, -2, 2]","[-2, 0, 0]",[],non-match,0.29289321881345254,1,1.6313672534301114,-0.5879465676811968,-0.2885758460617559,4th,1st,2nd,1.2541459634155447,-1.2506709814620702,-0.3318695588764443
perc,resp,1260,1,1.1.1left.bmp,1.1.1right.bmp,,ACC017,"[-2, -2, -2]","[-2, -2, -2]",[],match,1.0,,0.04647999730596152,0.10133147469555968,-0.43821964126891527,3rd,3rd,2nd,0.31208554452620596,0.3278879091019113,-0.3318695588764443
perc,resp,1223,1,3.2.3left.bmp,1.3.2right.bmp,,ACC017,"[2, 0, 2]","[-2, 2, 0]",[],non-match,0.29289321881345254,1,-0.35782892426786134,0.5037956018825107,-0.5009688199967413,2nd,3rd,2nd,-0.33027445364677105,0.3278879091019113,-0.3318695588764443
perc,resp,1329,1,3.3.3left.bmp,2.1.3right.bmp,,ACC017,"[2, 2, 2]","[0, -2, 2]",[],non-match,0.3545027756320971,2,-0.48981417787273224,-2.304088798271224,-0.39937085720373067,2nd,1st,2nd,-0.33027445364677105,-1.2506709814620702,-0.3318695588764443
perc,resp,1420,1,1.1.3left.bmp,3.3.2right.bmp,,ACC017,"[-2, -2, 2]","[2, 2, 0]",[],non-match,0.1339745962155613,1,1.6271874021698864,1.341946288808283,-0.4775359240050727,4th,4th,2nd,1.2541459634155447,1.1670627682546828,-0.3318695588764443
perc,resp,1606,0,3.2.1left.bmp,3.3.1right.bmp,,ACC017,"[2, 0, -2]","[2, 2, -2]",[],non-match,0.7113248654051871,4,0.43785661804374476,0.09379374994481438,-0.44556302872309256,3rd,3rd,2nd,0.31208554452620596,0.3278879091019113,-0.3318695588764443
perc,resp,1119,1,2.3.2left.bmp,2.3.2right.bmp,,ACC017,"[0, 2, 0]","[0, 2, 0]",[],match,1.0,,-1.1399597884079689,-0.20590066636653556,-0.48445596258105095,1st,2nd,2nd,-1.2310033154929765,-0.23907512590877916,-0.3318695588764443
perc,resp,1308,1,1.3.2left.bmp,1.3.2right.bmp,,ACC017,"[-2, 2, 0]","[-2, 2, 0]",[],match,1.0,,-0.32660863317164923,-0.2908680540367024,-0.4644412723381576,2nd,2nd,2nd,-0.33027445364677105,-0.23907512590877916,-0.3318695588764443
perc,resp,1084,1,3.1.2left.bmp,3.1.2right.bmp,,ACC017,"[2, -2, 0]","[2, -2, 0]",[],match,1.0,,0.7600752005119351,-1.378294613436433,-0.5270386579247005,4th,1st,1st,1.2541459634155447,-1.2506709814620702,-1.2308113990765117
perc,resp,1656,1,3.2.2left.bmp,1.3.1right.bmp,,ACC017,"[2, 0, 0]","[-2, 2, -2]",[],non-match,0.29289321881345254,1,-1.1793811761532462,-0.9569405426876426,-0.4837979146079219,1st,1st,2nd,-1.2310033154929765,-1.2506709814620702,-0.3318695588764443
perc,resp,1258,1,2.1.3left.bmp,2.1.3right.bmp,,ACC017,"[0, -2, 2]","[0, -2, 2]",[],match,1.0,,0.518892718928657,-1.0047661897322637,-0.5252621310254781,3rd,1st,2nd,0.31208554452620596,-1.2506709814620702,-0.3318695588764443
perc,resp,959,1,2.2.3left.bmp,2.2.3right.bmp,,ACC017,"[0, 0, 2]","[0, 0, 2]",[],match,1.0,,1.365255339589604,0.9092879836172505,-0.45138175872463415,4th,4th,2nd,1.2541459634155447,1.1670627682546828,-0.3318695588764443
perc,resp,1198,1,3.2.2left.bmp,3.2.2right.bmp,,ACC017,"[2, 0, 0]","[2, 0, 0]",[],match,1.0,,0.2473164140976215,-0.41272346326719733,-0.4497282211156774,3rd,2nd,2nd,0.31208554452620596,-0.23907512590877916,-0.3318695588764443
perc,resp,1241,1,2.2.1left.bmp,2.2.1right.bmp,,ACC017,"[0, 0, -2]","[0, 0, -2]",[],match,1.0,,0.11473003901534887,-1.2624275244024208,-0.41665480700808677,3rd,1st,2nd,0.31208554452620596,-1.2506709814620702,-0.3318695588764443
perc,resp,976,1,3.1.1left.bmp,3.1.1right.bmp,,ACC017,"[2, -2, -2]","[2, -2, -2]",[],match,1.0,,0.9801230869648255,-0.06212230730949204,-0.3652538164339915,4th,2nd,2nd,1.2541459634155447,-0.23907512590877916,-0.3318695588764443
perc,resp,1153,1,1.1.3left.bmp,1.3.1right.bmp,,ACC017,"[-2, -2, 2]","[-2, 2, -2]",[],non-match,0.18350341907227385,1,0.41627055679806063,-1.2389028612751862,-0.34424408071732,3rd,1st,2nd,0.31208554452620596,-1.2506709814620702,-0.3318695588764443
perc,resp,2152,1,3.1.3left.bmp,3.1.3right.bmp,,ACC017,"[2, -2, 2]","[2, -2, 2]",[],match,1.0,,1.968600895148007,-0.28371604337183354,-0.324966221715622,4th,2nd,2nd,1.2541459634155447,-0.23907512590877916,-0.3318695588764443
perc,resp,1517,0,1.1.1left.bmp,2.1.2right.bmp,,ACC017,"[-2, -2, -2]","[0, -2, 0]",[],non-match,0.5917517095361369,3,0.09251549715533963,0.46757223483769444,-0.50828407114217,3rd,3rd,2nd,0.31208554452620596,0.3278879091019113,-0.3318695588764443
perc,resp,1587,1,1.3.2left.bmp,1.3.2right.bmp,,ACC017,"[-2, 2, 0]","[-2, 2, 0]",[],match,1.0,,-0.5488601374628203,-0.7113685788620389,-0.23847507120762496,2nd,1st,2nd,-0.33027445364677105,-1.2506709814620702,-0.3318695588764443
perc,resp,2065,1,2.1.3left.bmp,2.2.1right.bmp,,ACC017,"[0, -2, 2]","[0, 0, -2]",[],non-match,0.3545027756320971,2,-1.632472790014878,-0.005679370643489995,-0.5178841023103261,1st,2nd,2nd,-1.2310033154929765,-0.23907512590877916,-0.3318695588764443
perc,resp,1396,1,2.3.2left.bmp,3.1.2right.bmp,,ACC017,"[0, 2, 0]","[2, -2, 0]",[],non-match,0.3545027756320971,2,0.02207314085681181,0.45504689442907786,-0.664528039966006,3rd,3rd,1st,0.31208554452620596,0.3278879091019113,-1.2308113990765117
perc,resp,1201,1,1.2.3left.bmp,3.3.1right.bmp,,ACC017,"[-2, 0, 2]","[2, 2, -2]",[],non-match,0.1339745962155613,1,-0.07978919112916877,0.4732095991179636,-0.6469503290962371,2nd,3rd,1st,-0.33027445364677105,0.3278879091019113,-1.2308113990765117
perc,resp,1723,1,2.2.2left.bmp,2.2.2right.bmp,,ACC017,"[0, 0, 0]","[0, 0, 0]",[],match,1.0,,0.24884008962180088,0.16164380323297647,-0.6263016389184718,3rd,3rd,1st,0.31208554452620596,0.3278879091019113,-1.2308113990765117
perc,resp,1918,1,2.3.3left.bmp,2.2.3right.bmp,,ACC017,"[0, 2, 2]","[0, 0, 2]",[],non-match,0.7113248654051871,4,0.5370419739509046,0.7580897824348002,-0.7282762906577546,3rd,4th,1st,0.31208554452620596,1.1670627682546828,-1.2308113990765117
perc,resp,1802,1,3.3.2left.bmp,3.2.1right.bmp,,ACC017,"[2, 2, 0]","[2, 0, -2]",[],non-match,0.5917517095361369,3,1.3796905924100054,0.8840774760296795,-0.6526419481348135,4th,4th,1st,1.2541459634155447,1.1670627682546828,-1.2308113990765117
perc,resp,1447,0,3.2.3left.bmp,2.2.1right.bmp,,ACC017,"[2, 0, 2]","[0, 0, -2]",[],non-match,0.3545027756320971,2,-0.9949417969458364,-0.4541563435488594,-0.45470253390432686,1st,2nd,2nd,-1.2310033154929765,-0.23907512590877916,-0.3318695588764443
perc,resp,1356,1,2.1.1left.bmp,1.2.1right.bmp,,ACC017,"[0, -2, -2]","[-2, 0, -2]",[],non-match,0.5917517095361369,3,-0.39968753996702644,-1.1377756824874197,-0.4683602017234086,2nd,1st,2nd,-0.33027445364677105,-1.2506709814620702,-0.3318695588764443
perc,resp,1005,1,3.2.1left.bmp,1.2.2right.bmp,,ACC017,"[2, 0, -2]","[-2, 0, 0]",[],non-match,0.3545027756320971,2,1.1387683510142037,-0.7159347359540302,-0.3487932180030661,4th,1st,2nd,1.2541459634155447,-1.2506709814620702,-0.3318695588764443
perc,resp,1204,1,2.3.1left.bmp,1.2.3right.bmp,,ACC017,"[0, 2, -2]","[-2, 0, 2]",[],non-match,0.29289321881345254,1,-0.8863634926678516,-0.20573194055553268,-0.3212758832240503,1st,2nd,2nd,-1.2310033154929765,-0.23907512590877916,-0.3318695588764443
perc,resp,1315,1,3.3.3left.bmp,3.1.3right.bmp,,ACC017,"[2, 2, 2]","[2, -2, 2]",[],non-match,0.42264973081037416,2,-0.013035514933975315,0.1798501725480573,-0.12046017608765996,3rd,3rd,2nd,0.31208554452620596,0.3278879091019113,-0.3318695588764443
perc,resp,1857,1,3.1.2left.bmp,3.1.2right.bmp,,ACC017,"[2, -2, 0]","[2, -2, 0]",[],match,1.0,,0.7472020443633567,-0.6974796384523713,-0.2867637038162756,4th,1st,2nd,1.2541459634155447,-1.2506709814620702,-0.3318695588764443
perc,resp,1953,1,3.3.1left.bmp,1.1.3right.bmp,,ACC017,"[2, 2, -2]","[-2, -2, 2]",[],non-match,0.0,1,0.5711054183449741,-0.143843354608648,-0.18191393045120335,3rd,2nd,2nd,0.31208554452620596,-0.23907512590877916,-0.3318695588764443
perc,resp,1579,1,1.2.1left.bmp,3.3.3right.bmp,,ACC017,"[-2, 0, -2]","[2, 2, 2]",[],non-match,0.1339745962155613,1,0.7867897015410381,0.936320658771324,-0.12411991006275694,4th,4th,2nd,1.2541459634155447,1.1670627682546828,-0.3318695588764443
perc,resp,1345,1,2.2.3left.bmp,1.1.1right.bmp,,ACC017,"[0, 0, 2]","[-2, -2, -2]",[],non-match,0.29289321881345254,1,1.185958956351459,1.6579492650225605,-0.101444555833556,4th,4th,2nd,1.2541459634155447,1.1670627682546828,-0.3318695588764443
perc,resp,1244,1,1.2.2left.bmp,2.3.1right.bmp,,ACC017,"[-2, 0, 0]","[0, 2, -2]",[],non-match,0.5,3,0.15877995716177162,0.6177656750021634,-0.10256967315398514,3rd,3rd,2nd,0.31208554452620596,0.3278879091019113,-0.3318695588764443
perc,resp,1177,0,1.3.3left.bmp,1.3.3right.bmp,,ACC017,"[-2, 2, 2]","[-2, 2, 2]",[],match,1.0,,-0.09635889679408248,0.825495032007072,-0.18264257695368724,2nd,4th,2nd,-0.33027445364677105,1.1670627682546828,-0.3318695588764443
perc,resp,1280,1,1.1.2left.bmp,1.1.2right.bmp,,ACC017,"[-2, -2, 0]","[-2, -2, 0]",[],match,1.0,,-0.9847644735300806,-0.5130174461981473,-0.17247964523644166,1st,2nd,2nd,-1.2310033154929765,-0.23907512590877916,-0.3318695588764443
perc,resp,1779,0,2.3.3left.bmp,2.3.3right.bmp,,ACC017,"[0, 2, 2]","[0, 2, 2]",[],match,1.0,,1.117318102941332,0.5147302684357831,-0.3437811447887952,4th,3rd,2nd,1.2541459634155447,0.3278879091019113,-0.3318695588764443
perc,resp,1622,0,3.3.2left.bmp,3.2.2right.bmp,,ACC017,"[2, 2, 0]","[2, 0, 0]",[],non-match,0.7113248654051871,4,0.8115898055949843,0.7134243701268913,-0.5846094317064128,4th,4th,1st,1.2541459634155447,1.1670627682546828,-1.2308113990765117
perc,resp,1196,1,1.3.2left.bmp,1.2.1right.bmp,,ACC017,"[-2, 2, 0]","[-2, 0, -2]",[],non-match,0.5917517095361369,3,0.033443973189759925,-0.5654044448528008,-0.682912317487719,3rd,2nd,1st,0.31208554452620596,-0.23907512590877916,-1.2308113990765117
perc,resp,1179,1,2.2.1left.bmp,2.2.1right.bmp,,ACC017,"[0, 0, -2]","[0, 0, -2]",[],match,1.0,,-0.734885657178871,-1.3376774451776317,-0.5071711562974436,1st,1st,2nd,-1.2310033154929765,-1.2506709814620702,-0.3318695588764443
perc,resp,1577,1,2.1.2left.bmp,2.1.2right.bmp,,ACC017,"[0, -2, 0]","[0, -2, 0]",[],match,1.0,,-0.29409712902422863,-0.6167745352989655,-0.4177911451525389,2nd,1st,2nd,-0.33027445364677105,-1.2506709814620702,-0.3318695588764443
perc,resp,1751,1,1.1.2left.bmp,2.1.1right.bmp,,ACC017,"[-2, -2, 0]","[0, -2, -2]",[],non-match,0.5917517095361369,3,0.5029436090398166,-0.5783642141790661,-0.2751727914847133,3rd,2nd,2nd,0.31208554452620596,-0.23907512590877916,-0.3318695588764443
perc,resp,1709,1,2.2.3left.bmp,2.2.3right.bmp,,ACC017,"[0, 0, 2]","[0, 0, 2]",[],match,1.0,,-0.7003468816138468,-0.08681142010451884,0.026321192951504258,1st,2nd,3rd,-1.2310033154929765,-0.23907512590877916,0.2973213965863526
perc,resp,1156,1,1.3.3left.bmp,1.3.3right.bmp,,ACC017,"[-2, 2, 2]","[-2, 2, 2]",[],match,1.0,,-0.6317245180018718,1.3994900368045073,0.07836444825642645,2nd,4th,3rd,-0.33027445364677105,1.1670627682546828,0.2973213965863526
perc,resp,852,1,3.2.2left.bmp,3.2.2right.bmp,,ACC017,"[2, 0, 0]","[2, 0, 0]",[],match,1.0,,-0.586823942984248,-1.4937820480750708,0.07968447474424944,2nd,1st,3rd,-0.33027445364677105,-1.2506709814620702,0.2973213965863526
perc,resp,889,0,2.3.1left.bmp,3.3.1right.bmp,,ACC017,"[0, 2, -2]","[2, 2, -2]",[],non-match,0.7113248654051871,4,0.9049355646867975,0.5066219371976177,0.009209545005334928,4th,3rd,3rd,1.2541459634155447,0.3278879091019113,0.2973213965863526
perc,resp,1081,1,3.1.3left.bmp,1.3.2right.bmp,,ACC017,"[2, -2, 2]","[-2, 2, 0]",[],non-match,0.1339745962155613,1,1.1293863693986164,0.8124994069627952,-0.01698692826774357,4th,4th,3rd,1.2541459634155447,1.1670627682546828,0.2973213965863526
perc,resp,943,0,3.2.1left.bmp,2.3.3right.bmp,,ACC017,"[2, 0, -2]","[0, 2, 2]",[],non-match,0.29289321881345254,1,0.24881459291874972,-0.5847003459640616,0.06391430416916077,3rd,1st,3rd,0.31208554452620596,-1.2506709814620702,0.2973213965863526
perc,resp,1260,1,1.3.1left.bmp,1.3.1right.bmp,,ACC017,"[-2, 2, -2]","[-2, 2, -2]",[],match,1.0,,0.46512594758477693,0.5921636096253456,-0.17484675849877251,3rd,3rd,2nd,0.31208554452620596,0.3278879091019113,-0.3318695588764443
perc,resp,1191,1,2.1.2left.bmp,3.1.2right.bmp,,ACC017,"[0, -2, 0]","[2, -2, 0]",[],non-match,0.7113248654051871,4,-0.7003954701660675,-0.638289775577461,0.04664803570793665,1st,1st,3rd,-1.2310033154929765,-1.2506709814620702,0.2973213965863526
perc,resp,1200,1,2.2.3left.bmp,2.2.3right.bmp,,ACC017,"[0, 0, 2]","[0, 0, 2]",[],match,1.0,,1.2412428778671367,0.5853230357202719,0.2835590245490477,4th,3rd,3rd,1.2541459634155447,0.3278879091019113,0.2973213965863526
perc,resp,919,1,1.2.1left.bmp,1.2.1right.bmp,,ACC017,"[-2, 0, -2]","[-2, 0, -2]",[],match,1.0,,-0.5405492348398041,-0.1655886647517945,0.36130812798097967,2nd,2nd,3rd,-0.33027445364677105,-0.23907512590877916,0.2973213965863526
perc,resp,1262,1,3.1.1left.bmp,3.1.1right.bmp,,ACC017,"[2, -2, -2]","[2, -2, -2]",[],match,1.0,,-0.29371066235577087,1.3955198781292992,0.26294048369300216,2nd,4th,3rd,-0.33027445364677105,1.1670627682546828,0.2973213965863526
perc,resp,1155,1,2.2.1left.bmp,1.1.2right.bmp,,ACC017,"[0, 0, -2]","[-2, -2, 0]",[],non-match,0.5,3,1.1333685098474902,-0.5415734887966718,0.34752246094670775,4th,2nd,3rd,1.2541459634155447,-0.23907512590877916,0.2973213965863526
perc,resp,1594,1,2.1.1left.bmp,1.1.1right.bmp,,ACC017,"[0, -2, -2]","[-2, -2, -2]",[],non-match,0.7113248654051871,4,-1.834497094532224,-2.3841564779735527,0.5280028751485798,1st,1st,3rd,-1.2310033154929765,-1.2506709814620702,0.2973213965863526
perc,resp,1758,1,2.3.3left.bmp,2.3.3right.bmp,,ACC017,"[0, 2, 2]","[0, 2, 2]",[],match,1.0,,-0.07366107217145454,2.0525018187604434,0.6252125424367002,2nd,4th,3rd,-0.33027445364677105,1.1670627682546828,0.2973213965863526
perc,resp,1957,1,1.1.3left.bmp,1.3.1right.bmp,,ACC017,"[-2, -2, 2]","[-2, 2, -2]",[],non-match,0.18350341907227385,1,2.061417419412169,2.133994605666549,0.6122125347348294,4th,4th,3rd,1.2541459634155447,1.1670627682546828,0.2973213965863526
perc,resp,2112,1,1.1.2left.bmp,1.1.2right.bmp,,ACC017,"[-2, -2, 0]","[-2, -2, 0]",[],match,1.0,,-0.06628707335958131,-1.391930796062671,0.6935590685359144,2nd,1st,3rd,-0.33027445364677105,-1.2506709814620702,0.2973213965863526
perc,resp,1228,1,3.1.2left.bmp,3.1.2right.bmp,,ACC017,"[2, -2, 0]","[2, -2, 0]",[],match,1.0,,-0.7201177570380591,0.3499524871606382,0.7266249275634232,1st,3rd,3rd,-1.2310033154929765,0.3278879091019113,0.2973213965863526
perc,resp,1804,1,1.2.2left.bmp,2.3.1right.bmp,,ACC017,"[-2, 0, 0]","[0, 2, -2]",[],non-match,0.5,3,-0.619128958642903,0.7723826503002377,0.882667556315257,2nd,4th,4th,-0.33027445364677105,1.1670627682546828,1.2700789486140058
perc,resp,1728,1,3.2.3left.bmp,3.2.3right.bmp,,ACC017,"[2, 0, 2]","[2, 0, 2]",[],match,1.0,,0.9783126106709396,-0.20981541368187148,1.0587628243733442,4th,2nd,4th,1.2541459634155447,-0.23907512590877916,1.2700789486140058
perc,resp,1277,1,3.3.3left.bmp,1.3.3right.bmp,,ACC017,"[2, 2, 2]","[-2, 2, 2]",[],non-match,0.42264973081037416,2,0.5820067659565038,-0.36382900435941096,0.9060270465831265,3rd,2nd,4th,0.31208554452620596,-0.23907512590877916,1.2700789486140058
perc,resp,1224,0,1.2.3left.bmp,1.2.1right.bmp,,ACC017,"[-2, 0, 2]","[-2, 0, -2]",[],non-match,0.42264973081037416,2,-0.025831866774195973,0.11835581410261824,1.1140157484553435,2nd,3rd,4th,-0.33027445364677105,0.3278879091019113,1.2700789486140058
perc,resp,1999,1,1.1.1left.bmp,3.1.2right.bmp,,ACC017,"[-2, -2, -2]","[2, -2, 0]",[],non-match,0.3545027756320971,2,-3.573619820772839,-3.838618368754799,1.042123505289038,1st,1st,4th,-1.2310033154929765,-1.2506709814620702,1.2700789486140058
perc,resp,1307,1,1.3.2left.bmp,1.3.2right.bmp,,ACC017,"[-2, 2, 0]","[-2, 2, 0]",[],match,1.0,,1.4163333764476325,0.677743369947119,1.0350558975492339,4th,4th,4th,1.2541459634155447,1.1670627682546828,1.2700789486140058
perc,resp,1592,1,3.3.1left.bmp,3.3.1right.bmp,,ACC017,"[2, 2, -2]","[2, 2, -2]",[],match,1.0,,2.79149925276203,0.6611813653660602,1.1875092715538804,4th,4th,4th,1.2541459634155447,1.1670627682546828,1.2700789486140058
perc,resp,1223,1,3.3.2left.bmp,3.3.2right.bmp,,ACC017,"[2, 2, 0]","[2, 2, 0]",[],match,1.0,,-0.3782763298795113,0.038319562845570636,1.0866858530827395,2nd,3rd,4th,-0.33027445364677105,0.3278879091019113,1.2700789486140058
perc,resp,1012,1,2.3.2left.bmp,1.1.2right.bmp,,ACC017,"[0, 2, 0]","[-2, -2, 0]",[],non-match,0.3545027756320971,2,-0.4951546847484963,-0.44603138593638547,1.259387994080932,2nd,2nd,4th,-0.33027445364677105,-0.23907512590877916,1.2700789486140058
perc,resp,1217,0,2.1.3left.bmp,3.2.1right.bmp,,ACC017,"[0, -2, 2]","[2, 0, -2]",[],non-match,0.29289321881345254,1,-2.653696135204781,2.3112875824439536,0.8501320104681419,1st,4th,4th,-1.2310033154929765,1.1670627682546828,1.2700789486140058
perc,resp,1265,1,2.2.2left.bmp,2.2.2right.bmp,,ACC017,"[0, 0, 0]","[0, 0, 0]",[],match,1.0,,0.250501451996321,-0.6253068761613346,0.8676307617262584,3rd,1st,4th,0.31208554452620596,-1.2506709814620702,1.2700789486140058
perc,resp,1319,1,3.3.3left.bmp,3.2.2right.bmp,,ACC017,"[2, 2, 2]","[2, 0, 0]",[],non-match,0.5917517095361369,3,-0.9059121662275438,-0.059506493633043576,1.112217884179988,1st,2nd,4th,-1.2310033154929765,-0.23907512590877916,1.2700789486140058
perc,resp,1064,0,2.3.3left.bmp,2.3.3right.bmp,,ACC017,"[0, 2, 2]","[0, 2, 2]",[],match,1.0,,0.39457084216416755,0.6403636615583317,1.1843473584591326,3rd,3rd,4th,0.31208554452620596,0.3278879091019113,1.2700789486140058
perc,resp,1083,1,1.3.1left.bmp,1.3.1right.bmp,,ACC017,"[-2, 2, -2]","[-2, 2, -2]",[],match,1.0,,-0.7653348280679708,0.21469098463520755,1.1591871502889015,1st,3rd,4th,-1.2310033154929765,0.3278879091019113,1.2700789486140058
perc,resp,1202,1,2.1.1left.bmp,1.1.3right.bmp,,ACC017,"[0, -2, -2]","[-2, -2, 2]",[],non-match,0.3545027756320971,2,-0.13940483163918915,1.1094178565292008,1.3159846675538307,2nd,4th,4th,-0.33027445364677105,1.1670627682546828,1.2700789486140058
perc,resp,1921,0,1.2.2left.bmp,2.2.1right.bmp,,ACC017,"[-2, 0, 0]","[0, 0, -2]",[],non-match,0.5917517095361369,3,0.7333790742412045,1.0608731150878015,1.3210868597683383,4th,4th,4th,1.2541459634155447,1.1670627682546828,1.2700789486140058
perc,resp,1679,1,1.3.2left.bmp,2.1.2right.bmp,,ACC017,"[-2, 2, 0]","[0, -2, 0]",[],non-match,0.3545027756320971,2,1.5345069999663732,0.939695471626064,0.988969550426707,4th,4th,4th,1.2541459634155447,1.1670627682546828,1.2700789486140058
perc,resp,1593,1,1.3.3left.bmp,1.3.3right.bmp,,ACC017,"[-2, 2, 2]","[-2, 2, 2]",[],match,1.0,,-0.05324726596599828,-1.2148547006094317,1.1135388904721961,2nd,1st,4th,-0.33027445364677105,-1.2506709814620702,1.2700789486140058
perc,resp,1194,1,3.1.1left.bmp,3.1.1right.bmp,,ACC017,"[2, -2, -2]","[2, -2, -2]",[],match,1.0,,0.19487432093289997,0.40871635295892966,1.111716328762018,3rd,3rd,4th,0.31208554452620596,0.3278879091019113,1.2700789486140058
perc,resp,1650,0,2.2.1left.bmp,2.2.2right.bmp,,ACC017,"[0, 0, -2]","[0, 0, 0]",[],non-match,0.7113248654051871,4,-0.58891172732344,1.807795939235796,1.1355279374014726,2nd,4th,4th,-0.33027445364677105,1.1670627682546828,1.2700789486140058
perc,resp,1597,0,2.1.3left.bmp,3.1.2right.bmp,,ACC017,"[0, -2, 2]","[2, -2, 0]",[],non-match,0.5917517095361369,3,-0.8985998476225197,-0.7567786628927685,1.0049936098893681,1st,1st,4th,-1.2310033154929765,-1.2506709814620702,1.2700789486140058
perc,resp,1478,0,2.2.3left.bmp,2.3.2right.bmp,,ACC017,"[0, 0, 2]","[0, 2, 0]",[],non-match,0.5917517095361369,3,-0.25794600178839666,0.057548550586900137,1.13130454983403,2nd,3rd,4th,-0.33027445364677105,0.3278879091019113,1.2700789486140058
perc,resp,1230,1,3.3.1left.bmp,3.3.1right.bmp,,ACC017,"[2, 2, -2]","[2, 2, -2]",[],match,1.0,,-1.057147563093121,0.28691619193922785,1.1293711846445982,1st,3rd,4th,-1.2310033154929765,0.3278879091019113,1.2700789486140058
perc,resp,1335,1,2.3.1left.bmp,2.3.1right.bmp,,ACC017,"[0, 2, -2]","[0, 2, -2]",[],match,1.0,,-0.5913620711066669,1.085467749734439,1.0794134905999127,2nd,4th,4th,-0.33027445364677105,1.1670627682546828,1.2700789486140058
perc,resp,1537,1,3.1.3left.bmp,3.1.3right.bmp,,ACC017,"[2, -2, 2]","[2, -2, 2]",[],match,1.0,,-0.9033960932511751,0.10152393128166816,1.1615176661130466,1st,3rd,4th,-1.2310033154929765,0.3278879091019113,1.2700789486140058
perc,resp,1212,1,2.3.2left.bmp,2.3.3right.bmp,,ACC017,"[0, 2, 0]","[0, 2, 2]",[],non-match,0.7113248654051871,4,-0.8945022508127568,-1.4258945196288926,1.076158125555729,1st,1st,4th,-1.2310033154929765,-1.2506709814620702,1.2700789486140058
perc,resp,1533,0,1.1.3left.bmp,1.2.1right.bmp,,ACC017,"[-2, -2, 2]","[-2, 0, -2]",[],non-match,0.3545027756320971,2,1.3770663909744187,0.614173903536018,1.2188856383067346,4th,3rd,4th,1.2541459634155447,0.3278879091019113,1.2700789486140058
perc,resp,1274,1,3.2.3left.bmp,3.2.3right.bmp,,ACC017,"[2, 0, 2]","[2, 0, 2]",[],match,1.0,,0.7659542366343735,0.6482480929333735,1.2284444295927432,4th,4th,4th,1.2541459634155447,1.1670627682546828,1.2700789486140058
perc,resp,1234,0,1.2.3left.bmp,2.2.3right.bmp,,ACC017,"[-2, 0, 2]","[0, 0, 2]",[],non-match,0.7113248654051871,4,-1.8362547575194306,-0.0178257305736663,1.2790128751398622,1st,2nd,4th,-1.2310033154929765,-0.23907512590877916,1.2700789486140058
perc,resp,1268,0,2.2.2left.bmp,3.3.1right.bmp,,ACC017,"[0, 0, 0]","[2, 2, -2]",[],non-match,0.5,3,1.110529442900949,1.215012389882996,1.5108808081234293,4th,4th,4th,1.2541459634155447,1.1670627682546828,1.2700789486140058
perc,resp,1176,1,1.2.1left.bmp,2.2.1right.bmp,,ACC017,"[-2, 0, -2]","[0, 0, -2]",[],non-match,0.7113248654051871,4,-0.9655224568789637,-0.21796029031369982,1.4559503816854995,1st,2nd,4th,-1.2310033154929765,-0.23907512590877916,1.2700789486140058
perc,resp,1897,1,3.3.2left.bmp,2.1.1right.bmp,,ACC017,"[2, 2, 0]","[0, -2, -2]",[],non-match,0.29289321881345254,1,-0.4010100550575445,0.4941361085295517,1.3484731670615255,2nd,3rd,4th,-0.33027445364677105,0.3278879091019113,1.2700789486140058
perc,resp,1237,1,3.2.1left.bmp,3.2.1right.bmp,,ACC017,"[2, 0, -2]","[2, 0, -2]",[],match,1.0,,-1.1321449665808532,0.9590279848737933,1.398264166350336,1st,4th,4th,-1.2310033154929765,1.1670627682546828,1.2700789486140058
perc,resp,1540,1,3.2.2left.bmp,3.2.2right.bmp,,ACC017,"[2, 0, 0]","[2, 0, 0]",[],match,1.0,,-0.8676390536191091,0.57287826129314,1.3899362512705105,1st,3rd,4th,-1.2310033154929765,0.3278879091019113,1.2700789486140058
perc,resp,1138,0,3.1.2left.bmp,3.1.3right.bmp,,ACC017,"[2, -2, 0]","[2, -2, 2]",[],non-match,0.7113248654051871,4,-1.5944834877589522,-0.27725575513783124,1.1628394327192872,1st,2nd,4th,-1.2310033154929765,-0.23907512590877916,1.2700789486140058
perc,resp,1289,1,1.1.2left.bmp,1.1.2right.bmp,,ACC017,"[-2, -2, 0]","[-2, -2, 0]",[],match,1.0,,-0.47639181362966454,-0.8603276924228462,1.3949601798144444,2nd,1st,4th,-0.33027445364677105,-1.2506709814620702,1.2700789486140058
perc,resp,1001,1,2.1.2left.bmp,2.1.2right.bmp,,ACC017,"[0, -2, 0]","[0, -2, 0]",[],match,1.0,,0.1493985346411494,0.265535890780678,1.3612848900116585,3rd,3rd,4th,0.31208554452620596,0.3278879091019113,1.2700789486140058
perc,resp,1528,1,1.1.1left.bmp,3.2.1right.bmp,,ACC017,"[-2, -2, -2]","[2, 0, -2]",[],non-match,0.3545027756320971,2,1.2638309600083453,-0.4642050957722268,1.6344374293286876,4th,2nd,4th,1.2541459634155447,-0.23907512590877916,1.2700789486140058
perc,resp,1310,1,1.2.3left.bmp,1.2.3right.bmp,,ACC017,"[-2, 0, 2]","[-2, 0, 2]",[],match,1.0,,0.6559492207448776,-0.003944561992845917,1.7583294356318337,3rd,2nd,4th,0.31208554452620596,-0.23907512590877916,1.2700789486140058
perc,resp,1007,1,1.1.3left.bmp,1.1.3right.bmp,,ACC017,"[-2, -2, 2]","[-2, -2, 2]",[],match,1.0,,-0.4725007873502303,-0.377865401872892,1.6910903418720407,2nd,2nd,4th,-0.33027445364677105,-0.23907512590877916,1.2700789486140058
perc,resp,1887,1,2.1.2left.bmp,2.1.2right.bmp,,ACC017,"[0, -2, 0]","[0, -2, 0]",[],match,1.0,,-0.31971173491684235,0.7790594818570807,1.9505816075102207,2nd,4th,4th,-0.33027445364677105,1.1670627682546828,1.2700789486140058
perc,resp,1387,1,1.1.2left.bmp,3.2.2right.bmp,,ACC017,"[-2, -2, 0]","[2, 0, 0]",[],non-match,0.3545027756320971,2,-1.0318899072828778,0.06836794490009504,1.8279183099580274,1st,3rd,4th,-1.2310033154929765,0.3278879091019113,1.2700789486140058
perc,resp,1299,1,1.3.3left.bmp,1.3.3right.bmp,,ACC017,"[-2, 2, 2]","[-2, 2, 2]",[],match,1.0,,-0.19472571868705463,0.15016751140138274,1.8301292919937002,2nd,3rd,4th,-0.33027445364677105,0.3278879091019113,1.2700789486140058
perc,resp,1418,1,1.2.1left.bmp,1.3.2right.bmp,,ACC017,"[-2, 0, -2]","[-2, 2, 0]",[],non-match,0.5917517095361369,3,-1.2548505860239205,-0.22862395141526276,2.018664061205324,1st,2nd,4th,-1.2310033154929765,-0.23907512590877916,1.2700789486140058
perc,resp,1503,1,2.1.3left.bmp,2.1.3right.bmp,,ACC017,"[0, -2, 2]","[0, -2, 2]",[],match,1.0,,1.453460663632692,0.49363799956008014,2.2341279420171563,4th,3rd,4th,1.2541459634155447,0.3278879091019113,1.2700789486140058
perc,resp,2110,1,2.1.1left.bmp,1.1.1right.bmp,,ACC017,"[0, -2, -2]","[-2, -2, -2]",[],non-match,0.7113248654051871,4,-0.5970755106819817,0.9103611485944744,2.139524196035037,2nd,4th,4th,-0.33027445364677105,1.1670627682546828,1.2700789486140058
perc,resp,2059,0,2.3.2left.bmp,2.3.2right.bmp,,ACC017,"[0, 2, 0]","[0, 2, 0]",[],match,1.0,,-0.1796221287372119,0.9165151911757361,1.8402495214886028,2nd,4th,4th,-0.33027445364677105,1.1670627682546828,1.2700789486140058
perc,resp,1485,1,2.2.3left.bmp,3.1.1right.bmp,,ACC017,"[0, 0, 2]","[2, -2, -2]",[],non-match,0.29289321881345254,1,-2.2698418613855296,-1.8541722053099252,1.7774531528209194,1st,1st,4th,-1.2310033154929765,-1.2506709814620702,1.2700789486140058
perc,resp,2301,0,3.3.3left.bmp,3.3.3right.bmp,,ACC017,"[2, 2, 2]","[2, 2, 2]",[],match,1.0,,-1.1167179877280398,0.003103596867465804,1.831167304572317,1st,2nd,4th,-1.2310033154929765,-0.23907512590877916,1.2700789486140058
perc,resp,1834,1,3.1.3left.bmp,1.1.3right.bmp,,ACC017,"[2, -2, 2]","[-2, -2, 2]",[],non-match,0.42264973081037416,2,-0.7485005308285584,-0.00034436610153820414,1.6236409228619142,1st,2nd,4th,-1.2310033154929765,-0.23907512590877916,1.2700789486140058
perc,resp,1864,1,3.3.3left.bmp,3.3.3right.bmp,,ACC017,"[2, 2, 2]","[2, 2, 2]",[],match,1.0,,0.24105068327251755,0.17595277836201756,1.6138517190316066,3rd,3rd,4th,0.31208554452620596,0.3278879091019113,1.2700789486140058
perc,resp,1418,1,1.1.2left.bmp,1.1.2right.bmp,,ACC017,"[-2, -2, 0]","[-2, -2, 0]",[],match,1.0,,-1.3767957308506753,-1.1722636532899882,1.320916632412802,1st,1st,4th,-1.2310033154929765,-1.2506709814620702,1.2700789486140058
perc,resp,1088,1,2.1.3left.bmp,2.3.3right.bmp,,ACC017,"[0, -2, 2]","[0, 2, 2]",[],non-match,0.42264973081037416,2,0.8235633673170736,-1.2682856423641453,1.294850636162874,4th,1st,4th,1.2541459634155447,-1.2506709814620702,1.2700789486140058
perc,resp,1196,0,2.2.3left.bmp,3.1.3right.bmp,,ACC017,"[0, 0, 2]","[2, -2, 2]",[],non-match,0.5917517095361369,3,-0.5723581623554665,-0.6435952946313439,1.2169473246972482,2nd,1st,4th,-0.33027445364677105,-1.2506709814620702,1.2700789486140058
perc,resp,1172,1,2.2.2left.bmp,2.2.2right.bmp,,ACC017,"[0, 0, 0]","[0, 0, 0]",[],match,1.0,,-0.796458074535547,0.05726389993950556,0.7589780409975844,1st,3rd,4th,-1.2310033154929765,0.3278879091019113,1.2700789486140058
perc,resp,1340,1,3.3.1left.bmp,1.1.2right.bmp,,ACC017,"[2, 2, -2]","[-2, -2, 0]",[],non-match,0.1339745962155613,1,0.8481595201806545,1.6703111597176363,0.6493030508170531,4th,4th,3rd,1.2541459634155447,1.1670627682546828,0.2973213965863526
perc,resp,1122,1,3.2.1left.bmp,3.2.1right.bmp,,ACC017,"[2, 0, -2]","[2, 0, -2]",[],match,1.0,,-0.12659276240054035,0.2761287451820191,0.6864794737079667,2nd,3rd,3rd,-0.33027445364677105,0.3278879091019113,0.2973213965863526
perc,resp,1673,1,2.3.2left.bmp,2.1.1right.bmp,,ACC017,"[0, 2, 0]","[0, -2, -2]",[],non-match,0.3545027756320971,2,1.4479953239739591,-0.3589000630429886,0.8340427901606842,4th,2nd,4th,1.2541459634155447,-0.23907512590877916,1.2700789486140058
perc,resp,1335,1,2.2.1left.bmp,2.2.1right.bmp,,ACC017,"[0, 0, -2]","[0, 0, -2]",[],match,1.0,,0.6002749925229365,-0.957554457839631,0.9278811831949713,3rd,1st,4th,0.31208554452620596,-1.2506709814620702,1.2700789486140058
perc,resp,1598,0,1.3.1left.bmp,1.2.3right.bmp,,ACC017,"[-2, 2, -2]","[-2, 0, 2]",[],non-match,0.3545027756320971,2,-0.7678603529631151,-1.6798809528153285,0.7572852634231482,1st,1st,4th,-1.2310033154929765,-1.2506709814620702,1.2700789486140058
perc,resp,1319,1,1.3.2left.bmp,2.1.2right.bmp,,ACC017,"[-2, 2, 0]","[0, -2, 0]",[],non-match,0.3545027756320971,2,0.6472125991820403,0.7605964642092304,1.0021143080501589,3rd,4th,4th,0.31208554452620596,1.1670627682546828,1.2700789486140058
perc,resp,2017,1,1.1.3left.bmp,3.2.3right.bmp,,ACC017,"[-2, -2, 2]","[2, 0, 2]",[],non-match,0.3545027756320971,2,-1.1007424985612857,0.03975898267308466,0.7945555848170959,1st,3rd,4th,-1.2310033154929765,0.3278879091019113,1.2700789486140058
perc,resp,1286,1,1.1.1left.bmp,1.1.1right.bmp,,ACC017,"[-2, -2, -2]","[-2, -2, -2]",[],match,1.0,,-0.8921320244447113,0.040987317256032045,0.6992540186892917,1st,3rd,3rd,-1.2310033154929765,0.3278879091019113,0.2973213965863526
perc,resp,1749,1,3.3.2left.bmp,3.3.2right.bmp,,ACC017,"[2, 2, 0]","[2, 2, 0]",[],match,1.0,,-1.1253797578517886,-0.5789438828562297,0.41516415657976014,1st,2nd,3rd,-1.2310033154929765,-0.23907512590877916,0.2973213965863526
perc,resp,1328,1,3.1.2left.bmp,1.3.3right.bmp,,ACC017,"[2, -2, 0]","[-2, 2, 2]",[],non-match,0.1339745962155613,1,0.901919185562091,-0.07871204723395574,0.5242902112244425,4th,2nd,3rd,1.2541459634155447,-0.23907512590877916,0.2973213965863526
perc,resp,1381,0,3.2.2left.bmp,3.3.3right.bmp,,ACC017,"[2, 0, 0]","[2, 2, 2]",[],non-match,0.5917517095361369,3,0.4585834599018863,0.5538076764756422,0.5278682293983293,3rd,3rd,3rd,0.31208554452620596,0.3278879091019113,0.2973213965863526
perc,resp,1126,1,3.2.3left.bmp,3.2.3right.bmp,,ACC017,"[2, 0, 2]","[2, 0, 2]",[],match,1.0,,-0.6340221570686163,0.998437623765134,0.6009116794831856,2nd,4th,3rd,-0.33027445364677105,1.1670627682546828,0.2973213965863526
perc,resp,1165,1,1.2.2left.bmp,1.2.2right.bmp,,ACC017,"[-2, 0, 0]","[-2, 0, 0]",[],match,1.0,,1.0694037152868183,0.8927698216431994,0.6989720550997987,4th,4th,3rd,1.2541459634155447,1.1670627682546828,0.2973213965863526
perc,resp,1186,1,2.1.2left.bmp,2.1.2right.bmp,,ACC017,"[0, -2, 0]","[0, -2, 0]",[],match,1.0,,-1.2269488388089376,1.522945419387842,0.4703793815360392,1st,4th,3rd,-1.2310033154929765,1.1670627682546828,0.2973213965863526
perc,resp,1143,1,2.3.1left.bmp,1.2.3right.bmp,,ACC017,"[0, 2, -2]","[-2, 0, 2]",[],non-match,0.29289321881345254,1,0.7579259462192793,-0.6737972296325377,0.7334948566095122,4th,1st,3rd,1.2541459634155447,-1.2506709814620702,0.2973213965863526
perc,resp,2442,1,1.3.3left.bmp,3.3.2right.bmp,,ACC017,"[-2, 2, 2]","[2, 2, 0]",[],non-match,0.3545027756320971,2,2.145059292374262,1.3779254068503226,0.7515564725649466,4th,4th,4th,1.2541459634155447,1.1670627682546828,1.2700789486140058
perc,resp,1234,0,3.1.1left.bmp,3.2.1right.bmp,,ACC017,"[2, -2, -2]","[2, 0, -2]",[],non-match,0.7113248654051871,4,0.023615681046326147,0.10078210725185922,0.6797936315767654,3rd,3rd,3rd,0.31208554452620596,0.3278879091019113,0.2973213965863526
perc,resp,2291,0,1.2.1left.bmp,1.2.1right.bmp,,ACC017,"[-2, 0, -2]","[-2, 0, -2]",[],match,1.0,,0.6354305612164636,2.351464852583031,0.47376390313129885,3rd,4th,3rd,0.31208554452620596,1.1670627682546828,0.2973213965863526
perc,resp,1631,1,3.1.3left.bmp,2.3.1right.bmp,,ACC017,"[2, -2, 2]","[0, 2, -2]",[],non-match,0.1339745962155613,1,0.040712727706597424,-0.6285355371048919,0.35585628745253567,3rd,1st,3rd,0.31208554452620596,-1.2506709814620702,0.2973213965863526
perc,resp,1827,1,2.1.1left.bmp,2.1.1right.bmp,,ACC017,"[0, -2, -2]","[0, -2, -2]",[],match,1.0,,-0.08185191052311734,-1.221408812425669,0.38768231113009793,2nd,1st,3rd,-0.33027445364677105,-1.2506709814620702,0.2973213965863526
perc,resp,1517,0,1.2.3left.bmp,1.2.3right.bmp,,ACC017,"[-2, 0, 2]","[-2, 0, 2]",[],match,1.0,,0.04890121949480488,0.21604292689298735,0.18118602119976834,3rd,3rd,3rd,0.31208554452620596,0.3278879091019113,0.2973213965863526
perc,resp,1991,0,2.3.3left.bmp,2.3.3right.bmp,,ACC017,"[0, 2, 2]","[0, 2, 2]",[],match,1.0,,-0.1479642787676928,1.2696765863009392,0.3148712331613151,2nd,4th,3rd,-0.33027445364677105,1.1670627682546828,0.2973213965863526
perc,resp,1586,1,1.2.1left.bmp,1.1.3right.bmp,,ACC017,"[-2, 0, -2]","[-2, -2, 2]",[],non-match,0.3545027756320971,2,-0.5418149739602239,0.12592866040052028,0.09456875015090553,2nd,3rd,3rd,-0.33027445364677105,0.3278879091019113,0.2973213965863526
perc,resp,2090,1,1.2.3left.bmp,1.2.3right.bmp,,ACC017,"[-2, 0, 2]","[-2, 0, 2]",[],match,1.0,,-0.3858064078274171,-1.0838899379944709,0.12879999799700034,2nd,1st,3rd,-0.33027445364677105,-1.2506709814620702,0.2973213965863526
perc,resp,1264,1,2.3.1left.bmp,2.3.1right.bmp,,ACC017,"[0, 2, -2]","[0, 2, -2]",[],match,1.0,,0.06684325084226028,0.9625899148902427,0.2016779777751848,3rd,4th,3rd,0.31208554452620596,1.1670627682546828,0.2973213965863526
perc,resp,2351,1,2.1.3left.bmp,2.1.3right.bmp,,ACC017,"[0, -2, 2]","[0, -2, 2]",[],match,1.0,,-2.2634187079408132,-1.3188019199156367,0.028684723124708513,1st,1st,3rd,-1.2310033154929765,-1.2506709814620702,0.2973213965863526
perc,resp,1665,1,3.1.1left.bmp,3.1.1right.bmp,,ACC017,"[2, -2, -2]","[2, -2, -2]",[],match,1.0,,-1.7690388499538574,-1.4488096907054442,0.09119910642632226,1st,1st,3rd,-1.2310033154929765,-1.2506709814620702,0.2973213965863526
perc,resp,1092,1,2.1.1left.bmp,2.1.1right.bmp,,ACC017,"[0, -2, -2]","[0, -2, -2]",[],match,1.0,,1.140200108147016,0.945003096786238,0.21060002907266498,4th,4th,3rd,1.2541459634155447,1.1670627682546828,0.2973213965863526
perc,resp,1622,1,1.3.1left.bmp,3.2.3right.bmp,,ACC017,"[-2, 2, -2]","[2, 0, 2]",[],non-match,0.1339745962155613,1,0.2780177430728194,-0.831244255595196,0.11395276369910412,3rd,1st,3rd,0.31208554452620596,-1.2506709814620702,0.2973213965863526
perc,resp,1517,1,2.2.3left.bmp,2.2.3right.bmp,,ACC017,"[0, 0, 2]","[0, 0, 2]",[],match,1.0,,-0.8033491243152815,-1.0815101222415329,-0.0275441689111572,1st,1st,3rd,-1.2310033154929765,-1.2506709814620702,0.2973213965863526
perc,resp,1537,1,1.3.2left.bmp,2.2.1right.bmp,,ACC017,"[-2, 2, 0]","[0, 0, -2]",[],non-match,0.5,3,1.2078934771798182,0.2883834954274912,0.1881259138277518,4th,3rd,3rd,1.2541459634155447,0.3278879091019113,0.2973213965863526
perc,resp,1413,1,3.1.2left.bmp,2.3.1right.bmp,,ACC017,"[2, -2, 0]","[0, 2, -2]",[],non-match,0.29289321881345254,1,0.10449261707246735,0.4788938316790671,0.15965439576100052,3rd,3rd,3rd,0.31208554452620596,0.3278879091019113,0.2973213965863526
perc,resp,1187,1,1.3.3left.bmp,1.3.3right.bmp,,ACC017,"[-2, 2, 2]","[-2, 2, 2]",[],match,1.0,,0.10266501823471952,-0.014368809237060003,0.4748516669439476,3rd,2nd,3rd,0.31208554452620596,-0.23907512590877916,0.2973213965863526
perc,resp,2104,0,3.1.3left.bmp,3.1.3right.bmp,,ACC017,"[2, -2, 2]","[2, -2, 2]",[],match,1.0,,1.7493102622919419,0.02083271063169914,0.140210431902934,4th,2nd,3rd,1.2541459634155447,-0.23907512590877916,0.2973213965863526
perc,resp,1768,1,3.3.2left.bmp,3.3.2right.bmp,,ACC017,"[2, 2, 0]","[2, 2, 0]",[],match,1.0,,-0.4779573653368872,-0.7662549398301761,0.0258114512499187,2nd,1st,3rd,-0.33027445364677105,-1.2506709814620702,0.2973213965863526
perc,resp,2253,0,2.2.2left.bmp,3.2.2right.bmp,,ACC017,"[0, 0, 0]","[2, 0, 0]",[],non-match,0.7113248654051871,4,0.7702361054801307,0.07524782290143778,-0.08122735912610884,4th,3rd,2nd,1.2541459634155447,0.3278879091019113,-0.3318695588764443
perc,resp,1322,0,1.1.3left.bmp,1.1.2right.bmp,,ACC017,"[-2, -2, 2]","[-2, -2, 0]",[],non-match,0.7113248654051871,4,-0.4800280749127019,-1.470638770021223,-0.058543781666999944,2nd,1st,3rd,-0.33027445364677105,-1.2506709814620702,0.2973213965863526
perc,resp,1317,1,3.3.1left.bmp,1.3.1right.bmp,,ACC017,"[2, 2, -2]","[-2, 2, -2]",[],non-match,0.42264973081037416,2,0.791599091636197,0.7543527786250067,-0.3091616149621103,4th,4th,2nd,1.2541459634155447,1.1670627682546828,-0.3318695588764443
perc,resp,1292,0,3.2.1left.bmp,3.2.1right.bmp,,ACC017,"[2, 0, -2]","[2, 0, -2]",[],match,1.0,,-0.26129443326283314,-0.9194959269210079,-0.487391503964625,2nd,1st,2nd,-0.33027445364677105,-1.2506709814620702,-0.3318695588764443
perc,resp,1131,1,2.2.1left.bmp,1.2.3right.bmp,,ACC017,"[0, 0, -2]","[-2, 0, 2]",[],non-match,0.3545027756320971,2,-0.8354643944883311,0.6145972605639063,-0.787456897431392,1st,3rd,1st,-1.2310033154929765,0.3278879091019113,-1.2308113990765117
perc,resp,2165,1,1.1.1left.bmp,1.1.1right.bmp,,ACC017,"[-2, -2, -2]","[-2, -2, -2]",[],match,1.0,,-1.5090654704286,-1.2151179623894142,-0.7624650569160831,1st,1st,1st,-1.2310033154929765,-1.2506709814620702,-1.2308113990765117
perc,resp,2189,0,2.3.3left.bmp,1.2.2right.bmp,,ACC017,"[0, 2, 2]","[-2, 0, 0]",[],non-match,0.5,3,-0.4541014519639029,-0.38521589080805235,-0.7408838337802347,2nd,2nd,1st,-0.33027445364677105,-0.23907512590877916,-1.2308113990765117
perc,resp,1733,0,3.3.3left.bmp,2.2.3right.bmp,,ACC017,"[2, 2, 2]","[0, 0, 2]",[],non-match,0.5917517095361369,3,-0.07284767108444506,-1.1708563652564115,-0.5148131543502359,2nd,1st,2nd,-0.33027445364677105,-1.2506709814620702,-0.3318695588764443
perc,resp,2118,1,1.1.2left.bmp,1.1.2right.bmp,,ACC017,"[-2, -2, 0]","[-2, -2, 0]",[],match,1.0,,-0.06318920646865689,0.026112808092749733,-0.6244453455707838,2nd,2nd,1st,-0.33027445364677105,-0.23907512590877916,-1.2308113990765117
perc,resp,2106,1,3.2.2left.bmp,3.2.2right.bmp,,ACC017,"[2, 0, 0]","[2, 0, 0]",[],match,1.0,,-1.512256713275913,-1.8349439925267206,-0.6093932664520807,1st,1st,1st,-1.2310033154929765,-1.2506709814620702,-1.2308113990765117
perc,resp,1188,1,1.2.2left.bmp,1.2.2right.bmp,,ACC017,"[-2, 0, 0]","[-2, 0, 0]",[],match,1.0,,-0.015201288818642227,0.750745404174229,-0.4495562144367332,2nd,4th,2nd,-0.33027445364677105,1.1670627682546828,-0.3318695588764443
perc,resp,1535,1,2.1.2left.bmp,2.1.2right.bmp,,ACC017,"[0, -2, 0]","[0, -2, 0]",[],match,1.0,,1.5033617759558293,1.5701688905982851,-0.47888925716780406,4th,4th,2nd,1.2541459634155447,1.1670627682546828,-0.3318695588764443
perc,resp,1758,1,2.3.2left.bmp,1.1.1right.bmp,,ACC017,"[0, 2, 0]","[-2, -2, -2]",[],non-match,0.29289321881345254,1,0.17495961140186056,0.8305309397922834,-0.38597155545727313,3rd,4th,2nd,0.31208554452620596,1.1670627682546828,-0.3318695588764443
perc,resp,1350,1,3.2.3left.bmp,3.2.3right.bmp,,ACC017,"[2, 0, 2]","[2, 0, 2]",[],match,1.0,,-0.6264136163661725,-0.19875013887511084,-0.6006421543653154,2nd,2nd,1st,-0.33027445364677105,-0.23907512590877916,-1.2308113990765117
perc,resp,1147,1,3.3.3left.bmp,3.3.3right.bmp,,ACC017,"[2, 2, 2]","[2, 2, 2]",[],match,1.0,,-0.9332385180295839,-0.3013400891292857,-0.4585682449551392,1st,2nd,2nd,-1.2310033154929765,-0.23907512590877916,-0.3318695588764443
perc,resp,1115,1,3.1.2left.bmp,1.3.2right.bmp,,ACC017,"[2, -2, 0]","[-2, 2, 0]",[],non-match,0.18350341907227385,1,-2.3143926955100906,-2.273790946443399,-0.39029574775107817,1st,1st,2nd,-1.2310033154929765,-1.2506709814620702,-0.3318695588764443
perc,resp,1990,1,3.1.1left.bmp,2.3.2right.bmp,,ACC017,"[2, -2, -2]","[0, 2, 0]",[],non-match,0.29289321881345254,1,1.6614897904124908,0.383612277897708,-0.29557338169940134,4th,3rd,2nd,1.2541459634155447,0.3278879091019113,-0.3318695588764443
perc,resp,1482,0,1.2.3left.bmp,2.2.1right.bmp,,ACC017,"[-2, 0, 2]","[0, 0, -2]",[],non-match,0.3545027756320971,2,1.7920736810651303,1.7966194560841957,-0.21237610900609544,4th,4th,2nd,1.2541459634155447,1.1670627682546828,-0.3318695588764443
perc,resp,2037,1,2.2.3left.bmp,1.1.3right.bmp,,ACC017,"[0, 0, 2]","[-2, -2, 2]",[],non-match,0.5917517095361369,3,-0.8284731074117264,0.4597835571402045,-0.5488175821555327,1st,3rd,1st,-1.2310033154929765,0.3278879091019113,-1.2308113990765117
perc,resp,1237,0,2.1.3left.bmp,2.1.3right.bmp,,ACC017,"[0, -2, 2]","[0, -2, 2]",[],match,1.0,,-0.8315269709767159,0.9593627074566609,-0.5259174698333219,1st,4th,1st,-1.2310033154929765,1.1670627682546828,-1.2308113990765117
perc,resp,1640,1,2.2.2left.bmp,3.3.2right.bmp,,ACC017,"[0, 0, 0]","[2, 2, 0]",[],non-match,0.5917517095361369,3,1.565304882678193,0.7528043455493504,-0.5731512990296299,4th,4th,1st,1.2541459634155447,1.1670627682546828,-1.2308113990765117
perc,resp,1193,1,3.2.2left.bmp,3.2.2right.bmp,,ACC017,"[2, 0, 0]","[2, 0, 0]",[],match,1.0,,0.76595015694214,1.1927942143823962,-0.745526189753384,4th,4th,1st,1.2541459634155447,1.1670627682546828,-1.2308113990765117
perc,resp,1490,0,1.1.1left.bmp,2.1.2right.bmp,,ACC017,"[-2, -2, -2]","[0, -2, 0]",[],non-match,0.5917517095361369,3,0.3017458608761707,1.9548551372781606,-0.6456133134288119,3rd,4th,1st,0.31208554452620596,1.1670627682546828,-1.2308113990765117
perc,resp,1331,1,1.2.2left.bmp,1.2.2right.bmp,,ACC017,"[-2, 0, 0]","[-2, 0, 0]",[],match,1.0,,0.8141583308712818,0.5430501008315975,-0.5987341351028366,4th,3rd,1st,1.2541459634155447,0.3278879091019113,-1.2308113990765117
perc,resp,1173,1,1.2.3left.bmp,3.2.3right.bmp,,ACC017,"[-2, 0, 2]","[2, 0, 2]",[],non-match,0.42264973081037416,2,-0.13562948525726082,-0.135233799736778,-0.3906579633121073,2nd,2nd,2nd,-0.33027445364677105,-0.23907512590877916,-0.3318695588764443
perc,resp,1029,0,2.3.1left.bmp,3.3.2right.bmp,,ACC017,"[0, 2, -2]","[2, 2, 0]",[],non-match,0.5917517095361369,3,0.37664151608012403,0.16500437762265335,-0.3974683759658026,3rd,3rd,2nd,0.31208554452620596,0.3278879091019113,-0.3318695588764443
perc,resp,1572,1,1.1.1left.bmp,1.3.1right.bmp,,ACC017,"[-2, -2, -2]","[-2, 2, -2]",[],non-match,0.42264973081037416,2,1.9682328627032857,-0.4108955261559975,-0.11898911609692973,4th,2nd,2nd,1.2541459634155447,-0.23907512590877916,-0.3318695588764443
perc,resp,1041,1,2.3.3left.bmp,2.3.3right.bmp,,ACC017,"[0, 2, 2]","[0, 2, 2]",[],match,1.0,,-0.22994581112440235,-0.20182529136720181,-0.07084721709191577,2nd,2nd,3rd,-0.33027445364677105,-0.23907512590877916,0.2973213965863526
perc,resp,1150,1,3.1.2left.bmp,3.1.2right.bmp,,ACC017,"[2, -2, 0]","[2, -2, 0]",[],match,1.0,,-0.29010654250797996,0.4146218749978952,0.024903275056027845,2nd,3rd,3rd,-0.33027445364677105,0.3278879091019113,0.2973213965863526
perc,resp,1279,1,2.2.3left.bmp,1.1.3right.bmp,,ACC017,"[0, 0, 2]","[-2, -2, 2]",[],non-match,0.5917517095361369,3,-0.7179645471835958,-0.3897606012120419,0.27710621164708943,1st,2nd,3rd,-1.2310033154929765,-0.23907512590877916,0.2973213965863526
perc,resp,1048,1,3.1.1left.bmp,3.1.1right.bmp,,ACC017,"[2, -2, -2]","[2, -2, -2]",[],match,1.0,,0.21015600195246098,0.2848431900798567,-0.0065518989439210485,3rd,3rd,3rd,0.31208554452620596,0.3278879091019113,0.2973213965863526
perc,resp,1417,1,1.2.1left.bmp,1.2.1right.bmp,,ACC017,"[-2, 0, -2]","[-2, 0, -2]",[],match,1.0,,-0.10881179738902678,-0.15272925435662557,0.025902692006298335,2nd,2nd,3rd,-0.33027445364677105,-0.23907512590877916,0.2973213965863526
perc,resp,1126,1,1.3.2left.bmp,1.1.1right.bmp,,ACC017,"[-2, 2, 0]","[-2, -2, -2]",[],non-match,0.3545027756320971,2,1.4169061899318645,0.9165361335847668,0.1687022399573881,4th,4th,3rd,1.2541459634155447,1.1670627682546828,0.2973213965863526
perc,resp,1075,1,3.2.1left.bmp,3.2.1right.bmp,,ACC017,"[2, 0, -2]","[2, 0, -2]",[],match,1.0,,-0.38385865721553036,0.3622426555879559,0.40125533786817796,2nd,3rd,3rd,-0.33027445364677105,0.3278879091019113,0.2973213965863526
perc,resp,1192,1,3.1.3left.bmp,3.1.3right.bmp,,ACC017,"[2, -2, 2]","[2, -2, 2]",[],match,1.0,,-0.35305757249052444,0.6992912697048538,0.3948128121013061,2nd,4th,3rd,-0.33027445364677105,1.1670627682546828,0.2973213965863526
perc,resp,1071,1,2.1.3left.bmp,2.1.3right.bmp,,ACC017,"[0, -2, 2]","[0, -2, 2]",[],match,1.0,,-0.01744390047469245,-0.14962325185689682,0.1130191640660601,2nd,2nd,3rd,-0.33027445364677105,-0.23907512590877916,0.2973213965863526
perc,resp,1080,1,1.1.3left.bmp,1.1.3right.bmp,,ACC017,"[-2, -2, 2]","[-2, -2, 2]",[],match,1.0,,0.5010929378974921,-0.7866830584693384,0.11687439251139459,3rd,1st,3rd,0.31208554452620596,-1.2506709814620702,0.2973213965863526
perc,resp,1730,0,3.2.3left.bmp,3.2.2right.bmp,,ACC017,"[2, 0, 2]","[2, 0, 0]",[],non-match,0.7113248654051871,4,1.6290822209140303,1.5973230673209011,-0.10490505098585322,4th,4th,2nd,1.2541459634155447,1.1670627682546828,-0.3318695588764443
perc,resp,1705,1,2.3.2left.bmp,3.2.1right.bmp,,ACC017,"[0, 2, 0]","[2, 0, -2]",[],non-match,0.5,3,1.1162151447195927,1.0139628901087558,-0.022284494771584694,4th,4th,3rd,1.2541459634155447,1.1670627682546828,0.2973213965863526
perc,resp,1163,1,1.3.3left.bmp,1.3.3right.bmp,,ACC017,"[-2, 2, 2]","[-2, 2, 2]",[],match,1.0,,0.0481535638395634,-0.10736230100965048,-0.20946953616271208,3rd,2nd,2nd,0.31208554452620596,-0.23907512590877916,-0.3318695588764443
perc,resp,2228,1,1.1.2left.bmp,1.1.2right.bmp,,ACC017,"[-2, -2, 0]","[-2, -2, 0]",[],match,1.0,,-0.9948782078858451,0.16140121538445718,-0.2685815585039602,1st,3rd,2nd,-1.2310033154929765,0.3278879091019113,-0.3318695588764443
perc,resp,1582,0,1.2.2left.bmp,2.2.2right.bmp,,ACC017,"[-2, 0, 0]","[0, 0, 0]",[],non-match,0.7113248654051871,4,0.13075796926789723,0.032452069373712526,-0.3352461326293957,3rd,2nd,2nd,0.31208554452620596,-0.23907512590877916,-0.3318695588764443
perc,resp,1563,0,2.1.2left.bmp,3.1.2right.bmp,,ACC017,"[0, -2, 0]","[2, -2, 0]",[],non-match,0.7113248654051871,4,-0.013231456582553711,-1.7360031865954428,-0.2371979550217501,2nd,1st,2nd,-0.33027445364677105,-1.2506709814620702,-0.3318695588764443
perc,resp,1465,1,3.2.2left.bmp,2.1.3right.bmp,,ACC017,"[2, 0, 0]","[0, -2, 2]",[],non-match,0.5,3,0.7905899233211985,-0.07632811289376004,-0.45770816114264845,4th,2nd,2nd,1.2541459634155447,-0.23907512590877916,-0.3318695588764443
perc,resp,1578,1,3.3.1left.bmp,3.1.3right.bmp,,ACC017,"[2, 2, -2]","[2, -2, 2]",[],non-match,0.18350341907227385,1,2.108311526116113,1.4010448771894422,-0.6626573558379057,4th,4th,1st,1.2541459634155447,1.1670627682546828,-1.2308113990765117
perc,resp,1689,1,2.1.1left.bmp,2.1.1right.bmp,,ACC017,"[0, -2, -2]","[0, -2, -2]",[],match,1.0,,-1.2152361065598019,-1.824949009048636,-0.7132322160611168,1st,1st,1st,-1.2310033154929765,-1.2506709814620702,-1.2308113990765117
perc,resp,1191,1,3.3.3left.bmp,3.1.1right.bmp,,ACC017,"[2, 2, 2]","[2, -2, -2]",[],non-match,0.18350341907227385,1,0.07044778270543764,0.7486919208773825,-0.7268430806066176,3rd,4th,1st,0.31208554452620596,1.1670627682546828,-1.2308113990765117
perc,resp,1339,1,2.2.1left.bmp,2.2.1right.bmp,,ACC017,"[0, 0, -2]","[0, 0, -2]",[],match,1.0,,0.33966212471274665,-0.609275907000207,-0.9822009892051297,3rd,1st,1st,0.31208554452620596,-1.2506709814620702,-1.2308113990765117
perc,resp,2580,0,1.3.1left.bmp,1.3.1right.bmp,,ACC017,"[-2, 2, -2]","[-2, 2, -2]",[],match,1.0,,-0.35108605495491746,-0.693917382137764,-1.5683992376643114,2nd,1st,1st,-0.33027445364677105,-1.2506709814620702,-1.2308113990765117
perc,resp,1724,0,2.2.2left.bmp,2.3.1right.bmp,,ACC017,"[0, 0, 0]","[0, 2, -2]",[],non-match,0.5917517095361369,3,0.6550012552708594,0.8450393424226204,-1.4750713715291834,3rd,4th,1st,0.31208554452620596,1.1670627682546828,-1.2308113990765117
perc,resp,1644,1,3.3.2left.bmp,2.1.3right.bmp,,ACC017,"[2, 2, 0]","[0, -2, 2]",[],non-match,0.29289321881345254,1,-0.1822066410851208,0.2013935634585222,-1.578900589613624,2nd,3rd,1st,-0.33027445364677105,0.3278879091019113,-1.2308113990765117
perc,resp,1587,0,2.2.3left.bmp,1.1.2right.bmp,,ACC017,"[0, 0, 2]","[-2, -2, 0]",[],non-match,0.5,3,-1.0113513232667186,0.011288756490036439,-1.7445604378011428,1st,2nd,1st,-1.2310033154929765,-0.23907512590877916,-1.2308113990765117
perc,resp,1708,1,1.1.1left.bmp,2.3.3right.bmp,,ACC017,"[-2, -2, -2]","[0, 2, 2]",[],non-match,0.1339745962155613,1,0.5602528749898449,-0.19202038768978158,-1.7117388371927724,3rd,2nd,1st,0.31208554452620596,-0.23907512590877916,-1.2308113990765117
perc,resp,1502,0,3.1.3left.bmp,2.2.1right.bmp,,ACC017,"[2, -2, 2]","[0, 0, -2]",[],non-match,0.29289321881345254,1,0.6182350042918364,-0.20788601267535953,-1.583207960901187,3rd,2nd,1st,0.31208554452620596,-0.23907512590877916,-1.2308113990765117
perc,resp,1907,1,2.2.2left.bmp,1.2.1right.bmp,,ACC017,"[0, 0, 0]","[-2, 0, -2]",[],non-match,0.5917517095361369,3,0.9367769578051901,1.0834101728788865,-1.658981738447368,4th,4th,1st,1.2541459634155447,1.1670627682546828,-1.2308113990765117
perc,resp,1429,1,2.1.1left.bmp,2.1.1right.bmp,,ACC017,"[0, -2, -2]","[0, -2, -2]",[],match,1.0,,0.817898248935855,0.3700743453153253,-1.4837957372893253,4th,3rd,1st,1.2541459634155447,0.3278879091019113,-1.2308113990765117
perc,resp,2426,1,1.2.3left.bmp,2.1.3right.bmp,,ACC017,"[-2, 0, 2]","[0, -2, 2]",[],non-match,0.5917517095361369,3,0.7548237283867275,2.8469878794914583,-1.5945927469103405,4th,4th,1st,1.2541459634155447,1.1670627682546828,-1.2308113990765117
perc,resp,1127,0,2.2.1left.bmp,3.1.3right.bmp,,ACC017,"[0, 0, -2]","[2, -2, 2]",[],non-match,0.29289321881345254,1,0.7087383819411743,0.8467468310184239,-1.820366131322287,3rd,4th,1st,0.31208554452620596,1.1670627682546828,-1.2308113990765117
perc,resp,1538,1,1.1.3left.bmp,2.2.3right.bmp,,ACC017,"[-2, -2, 2]","[0, 0, 2]",[],non-match,0.5917517095361369,3,0.8293942478245292,-0.25983540842119385,-1.7181448145184712,4th,2nd,1st,1.2541459634155447,-0.23907512590877916,-1.2308113990765117
perc,resp,1380,0,3.3.1left.bmp,3.1.1right.bmp,,ACC017,"[2, 2, -2]","[2, -2, -2]",[],non-match,0.42264973081037416,2,-1.029544519504763,-0.36863653309769734,-1.648553037235302,1st,2nd,1st,-1.2310033154929765,-0.23907512590877916,-1.2308113990765117
perc,resp,2407,0,3.1.2left.bmp,3.2.2right.bmp,,ACC017,"[2, -2, 0]","[2, 0, 0]",[],non-match,0.7113248654051871,4,-0.6573822752709549,-1.2773917340416363,-1.495367056603961,2nd,1st,1st,-0.33027445364677105,-1.2506709814620702,-1.2308113990765117
perc,resp,1299,1,2.1.2left.bmp,2.1.2right.bmp,,ACC017,"[0, -2, 0]","[0, -2, 0]",[],match,1.0,,0.5149738953142341,0.19018243337526705,-1.3649523639498997,3rd,3rd,1st,0.31208554452620596,0.3278879091019113,-1.2308113990765117
perc,resp,1520,1,2.3.2left.bmp,2.3.2right.bmp,,ACC017,"[0, 2, 0]","[0, 2, 0]",[],match,1.0,,0.3107452940508686,0.7716451571368856,-1.3166915803345078,3rd,4th,1st,0.31208554452620596,1.1670627682546828,-1.2308113990765117
perc,resp,1229,0,1.3.3left.bmp,1.3.3right.bmp,,ACC017,"[-2, 2, 2]","[-2, 2, 2]",[],match,1.0,,-0.24377200461238657,-0.6202740682086212,-1.3302780452519254,2nd,1st,1st,-0.33027445364677105,-1.2506709814620702,-1.2308113990765117
perc,resp,1078,1,3.2.3left.bmp,3.2.3right.bmp,,ACC017,"[2, 0, 2]","[2, 0, 2]",[],match,1.0,,-0.6851486093057351,-1.8429764075321489,-1.2360397458284285,1st,1st,1st,-1.2310033154929765,-1.2506709814620702,-1.2308113990765117
perc,resp,1287,0,3.2.2left.bmp,3.3.3right.bmp,,ACC017,"[2, 0, 0]","[2, 2, 2]",[],non-match,0.5917517095361369,3,1.6975907386668379,-0.4770591964064661,-1.235228095403258,4th,2nd,1st,1.2541459634155447,-0.23907512590877916,-1.2308113990765117
perc,resp,1226,1,3.1.1left.bmp,1.2.3right.bmp,,ACC017,"[2, -2, -2]","[-2, 0, 2]",[],non-match,0.1339745962155613,1,-0.37616773127149017,0.37780790828763144,-1.0885875149565931,2nd,3rd,1st,-0.33027445364677105,0.3278879091019113,-1.2308113990765117
perc,resp,1113,1,2.3.3left.bmp,2.3.3right.bmp,,ACC017,"[0, 2, 2]","[0, 2, 2]",[],match,1.0,,-0.3768816812809995,-0.4818135533767813,-1.0853802683189022,2nd,2nd,1st,-0.33027445364677105,-0.23907512590877916,-1.2308113990765117
perc,resp,1161,0,1.2.2left.bmp,1.1.3right.bmp,,ACC017,"[-2, 0, 0]","[-2, -2, 2]",[],non-match,0.5917517095361369,3,0.6846397082263335,-0.4246965143804288,-1.1701351196248306,3rd,2nd,1st,0.31208554452620596,-0.23907512590877916,-1.2308113990765117
perc,resp,1412,1,3.3.3left.bmp,2.1.1right.bmp,,ACC017,"[2, 2, 2]","[0, -2, -2]",[],non-match,0.1339745962155613,1,0.6261687683838723,-0.023356810644930084,-1.1010056788189813,3rd,2nd,1st,0.31208554452620596,-0.23907512590877916,-1.2308113990765117
perc,resp,1071,0,1.2.1left.bmp,3.2.3right.bmp,,ACC017,"[-2, 0, -2]","[2, 0, 2]",[],non-match,0.18350341907227385,1,0.008404667823309004,0.21773929168795983,-1.1339045867796056,3rd,3rd,1st,0.31208554452620596,0.3278879091019113,-1.2308113990765117
perc,resp,1310,1,1.3.2left.bmp,1.3.2right.bmp,,ACC017,"[-2, 2, 0]","[-2, 2, 0]",[],match,1.0,,0.48742024686562385,-0.41941852302566884,-0.9982782553819056,3rd,2nd,1st,0.31208554452620596,-0.23907512590877916,-1.2308113990765117
perc,resp,1603,1,3.2.1left.bmp,3.2.1right.bmp,,ACC017,"[2, 0, -2]","[2, 0, -2]",[],match,1.0,,0.3632689660535298,-0.33612851553038975,-0.8778909627716518,3rd,2nd,1st,0.31208554452620596,-0.23907512590877916,-1.2308113990765117
perc,resp,2019,1,1.1.2left.bmp,2.1.2right.bmp,,ACC017,"[-2, -2, 0]","[0, -2, 0]",[],non-match,0.7113248654051871,4,-1.3200999460451195,-0.39241180340686704,-0.6766186593459756,1st,2nd,1st,-1.2310033154929765,-0.23907512590877916,-1.2308113990765117
perc,resp,1411,1,3.3.2left.bmp,1.3.3right.bmp,,ACC017,"[2, 2, 0]","[-2, 2, 2]",[],non-match,0.3545027756320971,2,-3.9129521557839344,-5.332204876986632,-0.6912007334396149,1st,1st,1st,-1.2310033154929765,-1.2506709814620702,-1.2308113990765117
perc,resp,1552,1,2.3.1left.bmp,2.3.1right.bmp,,ACC017,"[0, 2, -2]","[0, 2, -2]",[],match,1.0,,1.542976245992207,-1.1049994292948098,-0.7150378932625815,4th,1st,1st,1.2541459634155447,-1.2506709814620702,-1.2308113990765117
perc,resp,2179,1,1.3.1left.bmp,1.3.1right.bmp,,ACC017,"[-2, 2, -2]","[-2, 2, -2]",[],match,1.0,,1.1388824877856059,1.0335796387153149,-0.8893871276024512,4th,4th,1st,1.2541459634155447,1.1670627682546828,-1.2308113990765117
perc,resp,1380,1,3.1.2left.bmp,1.2.3right.bmp,,ACC017,"[2, -2, 0]","[-2, 0, 2]",[],non-match,0.29289321881345254,1,-0.879643881099749,-0.9631358768175882,-1.3606949635276695,1st,1st,1st,-1.2310033154929765,-1.2506709814620702,-1.2308113990765117
perc,resp,1481,0,3.3.1left.bmp,3.2.2right.bmp,,ACC017,"[2, 2, -2]","[2, 0, 0]",[],non-match,0.5917517095361369,3,-1.075760171760926,0.6112834951281262,-1.7042487475625325,1st,3rd,1st,-1.2310033154929765,0.3278879091019113,-1.2308113990765117
perc,resp,1755,1,2.3.3left.bmp,2.3.3right.bmp,,ACC017,"[0, 2, 2]","[0, 2, 2]",[],match,1.0,,1.3695776299102647,-0.3630666235456666,-1.8245278527615059,4th,2nd,1st,1.2541459634155447,-0.23907512590877916,-1.2308113990765117
perc,resp,2000,1,2.2.3left.bmp,2.2.3right.bmp,,ACC017,"[0, 0, 2]","[0, 0, 2]",[],match,1.0,,0.7965432582114114,-0.11757534435542226,-2.1919962490940548,4th,2nd,1st,1.2541459634155447,-0.23907512590877916,-1.2308113990765117
perc,resp,1664,1,2.2.2left.bmp,1.2.2right.bmp,,ACC017,"[0, 0, 0]","[-2, 0, 0]",[],non-match,0.7113248654051871,4,-1.3746738958380271,-1.3533429196148596,-2.22430861923484,1st,1st,1st,-1.2310033154929765,-1.2506709814620702,-1.2308113990765117
perc,resp,1475,1,1.2.3left.bmp,1.2.3right.bmp,,ACC017,"[-2, 0, 2]","[-2, 0, 2]",[],match,1.0,,-0.6957047467192862,-1.3466170524899874,-2.5236187090541633,1st,1st,1st,-1.2310033154929765,-1.2506709814620702,-1.2308113990765117
perc,resp,1475,1,3.1.3left.bmp,3.3.1right.bmp,,ACC017,"[2, -2, 2]","[2, 2, -2]",[],non-match,0.18350341907227385,1,-1.4405988356379535,-0.626237834468737,-2.735115749923052,1st,1st,1st,-1.2310033154929765,-1.2506709814620702,-1.2308113990765117
perc,resp,1920,1,3.1.1left.bmp,3.1.1right.bmp,,ACC017,"[2, -2, -2]","[2, -2, -2]",[],match,1.0,,-1.1667565001422382,0.41760489275563767,-3.005488362746637,1st,3rd,1st,-1.2310033154929765,0.3278879091019113,-1.2308113990765117
perc,resp,1602,0,3.2.1left.bmp,2.3.2right.bmp,,ACC017,"[2, 0, -2]","[0, 2, 0]",[],non-match,0.5,3,-0.43257790930442636,-0.0488243521903669,-3.186754922682992,2nd,2nd,1st,-0.33027445364677105,-0.23907512590877916,-1.2308113990765117
perc,resp,1333,1,1.3.2left.bmp,1.3.2right.bmp,,ACC017,"[-2, 2, 0]","[-2, 2, 0]",[],match,1.0,,-0.09876719903784979,0.2575233428835337,-2.830828797710102,2nd,3rd,1st,-0.33027445364677105,0.3278879091019113,-1.2308113990765117
