mode,type,rt,acc,item_1,item_2,item_cue,subj_idx,item_1_number,item_2_number,item_cue_number,trial_type,similarity,similarity_bin,ams,pams,slps,ams_quantile,pams_quantile,slps_quantile,ams_bin,pam_bin,slp_bin
perc,resp,1795,1,1.3.3left.bmp,1.3.3right.bmp,,ACC026,"[-2, 2, 2]","[-2, 2, 2]",[],match,1.0,,-0.5928575384512386,-0.2803949580574946,-0.3289924148728883,2nd,2nd,2nd,-0.3565949619983757,-0.3190259278282245,-0.3608881493066015
perc,resp,1124,1,3.2.2left.bmp,3.2.2right.bmp,,ACC026,"[2, 0, 0]","[2, 0, 0]",[],match,1.0,,-1.2828821477124015,-0.45467162562156677,-0.21104009862790438,1st,2nd,2nd,-1.2686500760183241,-0.3190259278282245,-0.3608881493066015
perc,resp,1070,1,3.1.3left.bmp,1.3.2right.bmp,,ACC026,"[2, -2, 2]","[-2, 2, 0]",[],non-match,0.1339745962155613,1,1.5810847524759752,0.0944446238678963,-0.23347228952188837,4th,3rd,2nd,1.3039358516690727,0.3119934256344425,-0.3608881493066015
perc,resp,867,1,3.2.1left.bmp,2.3.3right.bmp,,ACC026,"[2, 0, -2]","[0, 2, 2]",[],non-match,0.29289321881345254,1,-0.42484704813465296,-0.9222268382254349,-0.553114412972554,2nd,1st,2nd,-0.3565949619983757,-1.2567155538844959,-0.3608881493066015
perc,resp,944,1,1.3.1left.bmp,1.3.1right.bmp,,ACC026,"[-2, 2, -2]","[-2, 2, -2]",[],match,1.0,,-1.436476546267703,0.05840825189882401,-0.28849208879398824,1st,3rd,2nd,-1.2686500760183241,0.3119934256344425,-0.3608881493066015
perc,resp,1049,0,2.1.2left.bmp,3.1.2right.bmp,,ACC026,"[0, -2, 0]","[2, -2, 0]",[],non-match,0.7113248654051871,4,-1.2640898113931438,0.7134166857026275,-0.2612497859292372,1st,4th,2nd,-1.2686500760183241,1.2636517204317879,-0.3608881493066015
perc,resp,998,1,2.2.3left.bmp,2.2.3right.bmp,,ACC026,"[0, 0, 2]","[0, 0, 2]",[],match,1.0,,0.5601887651323334,-0.11906285422912415,-0.5537322353992814,3rd,2nd,2nd,0.32081910613025566,-0.3190259278282245,-0.3608881493066015
perc,resp,1134,0,1.2.1left.bmp,1.2.1right.bmp,,ACC026,"[-2, 0, -2]","[-2, 0, -2]",[],match,1.0,,-1.0582677276511456,-0.4987311975770966,-0.3584838111294739,1st,2nd,2nd,-1.2686500760183241,-0.3190259278282245,-0.3608881493066015
perc,resp,1113,1,3.1.1left.bmp,3.1.1right.bmp,,ACC026,"[2, -2, -2]","[2, -2, -2]",[],match,1.0,,-1.3745970296401195,-1.5358060105030458,-0.34158060301575416,1st,1st,2nd,-1.2686500760183241,-1.2567155538844959,-0.3608881493066015
perc,resp,920,0,2.2.1left.bmp,1.1.2right.bmp,,ACC026,"[0, 0, -2]","[-2, -2, 0]",[],non-match,0.5,3,-0.38026097467223663,-0.07429663426053384,-0.22368620506079603,2nd,2nd,2nd,-0.3565949619983757,-0.3190259278282245,-0.3608881493066015
perc,resp,897,0,2.1.1left.bmp,1.1.1right.bmp,,ACC026,"[0, -2, -2]","[-2, -2, -2]",[],non-match,0.7113248654051871,4,-0.1595287053103463,1.2872171503478653,-0.05669839997726515,2nd,4th,2nd,-0.3565949619983757,1.2636517204317879,-0.3608881493066015
perc,resp,1720,1,2.3.3left.bmp,2.3.3right.bmp,,ACC026,"[0, 2, 2]","[0, 2, 2]",[],match,1.0,,-1.3405095116981742,-0.0847162753931536,-0.28219231578898074,1st,2nd,2nd,-1.2686500760183241,-0.3190259278282245,-0.3608881493066015
perc,resp,1884,0,1.1.3left.bmp,1.3.1right.bmp,,ACC026,"[-2, -2, 2]","[-2, 2, -2]",[],non-match,0.18350341907227385,1,-0.30866124060526207,-0.4086885621027618,-0.08722528024785496,2nd,2nd,2nd,-0.3565949619983757,-0.3190259278282245,-0.3608881493066015
perc,resp,1506,1,1.1.2left.bmp,1.1.2right.bmp,,ACC026,"[-2, -2, 0]","[-2, -2, 0]",[],match,1.0,,-0.7651290978352572,0.4512773245823326,-0.13637578710558082,1st,3rd,2nd,-1.2686500760183241,0.3119934256344425,-0.3608881493066015
perc,resp,1307,1,3.1.2left.bmp,3.1.2right.bmp,,ACC026,"[2, -2, 0]","[2, -2, 0]",[],match,1.0,,-1.032120110541643,-0.4832472456842093,0.059807861427704,1st,2nd,3rd,-1.2686500760183241,-0.3190259278282245,0.29804768694965894
perc,resp,804,1,1.2.2left.bmp,2.3.1right.bmp,,ACC026,"[-2, 0, 0]","[0, 2, -2]",[],non-match,0.5,3,-1.0411826598297385,-0.2804063767330765,0.18369196300438217,1st,2nd,3rd,-1.2686500760183241,-0.3190259278282245,0.29804768694965894
perc,resp,951,0,3.2.3left.bmp,3.2.3right.bmp,,ACC026,"[2, 0, 2]","[2, 0, 2]",[],match,1.0,,-1.0151756447520164,0.8897790128036362,0.25147941602240315,1st,4th,3rd,-1.2686500760183241,1.2636517204317879,0.29804768694965894
perc,resp,1170,0,3.3.3left.bmp,1.3.3right.bmp,,ACC026,"[2, 2, 2]","[-2, 2, 2]",[],non-match,0.42264973081037416,2,-0.8634612959492663,1.5661179312511961,0.30025175244587127,1st,4th,3rd,-1.2686500760183241,1.2636517204317879,0.29804768694965894
perc,resp,1246,1,1.1.1left.bmp,3.1.2right.bmp,,ACC026,"[-2, -2, -2]","[2, -2, 0]",[],non-match,0.3545027756320971,2,-1.9359055185212306,-2.047171762575411,0.24373950304779207,1st,1st,3rd,-1.2686500760183241,-1.2567155538844959,0.29804768694965894
perc,resp,1427,1,1.3.2left.bmp,1.3.2right.bmp,,ACC026,"[-2, 2, 0]","[-2, 2, 0]",[],match,1.0,,-1.176588638163187,-0.7360581468396993,0.24563559578952499,1st,1st,3rd,-1.2686500760183241,-1.2567155538844959,0.29804768694965894
perc,resp,1126,1,3.3.1left.bmp,3.3.1right.bmp,,ACC026,"[2, 2, -2]","[2, 2, -2]",[],match,1.0,,0.2244893312883779,0.7919334353369208,0.27288029471722836,3rd,4th,3rd,0.32081910613025566,1.2636517204317879,0.29804768694965894
perc,resp,843,1,3.3.2left.bmp,3.3.2right.bmp,,ACC026,"[2, 2, 0]","[2, 2, 0]",[],match,1.0,,1.0415899946570326,0.2963962883741609,0.3679393757229148,4th,3rd,3rd,1.3039358516690727,0.3119934256344425,0.29804768694965894
perc,resp,1019,1,2.3.2left.bmp,1.1.2right.bmp,,ACC026,"[0, 2, 0]","[-2, -2, 0]",[],non-match,0.3545027756320971,2,1.5188613910758564,0.40658491311027073,0.24292269214730428,4th,3rd,3rd,1.3039358516690727,0.3119934256344425,0.29804768694965894
perc,resp,826,1,2.1.3left.bmp,3.2.1right.bmp,,ACC026,"[0, -2, 2]","[2, 0, -2]",[],non-match,0.29289321881345254,1,-0.22101242976338437,-0.10714733811979234,0.3185776139382072,2nd,2nd,3rd,-0.3565949619983757,-0.3190259278282245,0.29804768694965894
perc,resp,1074,0,2.2.2left.bmp,2.2.2right.bmp,,ACC026,"[0, 0, 0]","[0, 0, 0]",[],match,1.0,,0.3327337110649604,-0.08704978568386502,0.4723721149764996,3rd,2nd,3rd,0.32081910613025566,-0.3190259278282245,0.29804768694965894
perc,resp,1011,0,3.3.3left.bmp,3.2.2right.bmp,,ACC026,"[2, 2, 2]","[2, 0, 0]",[],non-match,0.5917517095361369,3,-1.355059112380864,0.582437471806628,0.6138819568581091,1st,3rd,4th,-1.2686500760183241,0.3119934256344425,1.291806416336322
perc,resp,1372,1,2.3.3left.bmp,2.3.3right.bmp,,ACC026,"[0, 2, 2]","[0, 2, 2]",[],match,1.0,,-0.3882754704954484,-0.140667956596848,0.3620784494577849,2nd,2nd,3rd,-0.3565949619983757,-0.3190259278282245,0.29804768694965894
perc,resp,889,1,1.3.1left.bmp,1.3.1right.bmp,,ACC026,"[-2, 2, -2]","[-2, 2, -2]",[],match,1.0,,0.31512080325515984,-0.21615981079547839,0.17633168351456213,3rd,2nd,3rd,0.32081910613025566,-0.3190259278282245,0.29804768694965894
perc,resp,974,1,2.1.1left.bmp,1.1.3right.bmp,,ACC026,"[0, -2, -2]","[-2, -2, 2]",[],non-match,0.3545027756320971,2,-0.6142917824697084,-1.1591423592233414,0.3412063516107749,2nd,1st,3rd,-0.3565949619983757,-1.2567155538844959,0.29804768694965894
perc,resp,1174,0,1.2.2left.bmp,2.2.1right.bmp,,ACC026,"[-2, 0, 0]","[0, 0, -2]",[],non-match,0.5917517095361369,3,0.1364410278379474,-0.6979680078939192,0.4550048280619673,3rd,1st,3rd,0.32081910613025566,-1.2567155538844959,0.29804768694965894
perc,resp,933,1,1.3.2left.bmp,2.1.2right.bmp,,ACC026,"[-2, 2, 0]","[0, -2, 0]",[],non-match,0.3545027756320971,2,-1.1490133672582246,0.9916766539493699,0.5007929070095417,1st,4th,3rd,-1.2686500760183241,1.2636517204317879,0.29804768694965894
perc,resp,1013,1,3.1.1left.bmp,3.1.1right.bmp,,ACC026,"[2, -2, -2]","[2, -2, -2]",[],match,1.0,,-1.929842196014486,-0.6199103972249143,0.3710905277357744,1st,2nd,3rd,-1.2686500760183241,-0.3190259278282245,0.29804768694965894
perc,resp,1031,1,2.2.1left.bmp,2.2.2right.bmp,,ACC026,"[0, 0, -2]","[0, 0, 0]",[],non-match,0.7113248654051871,4,-1.371568808160621,0.573591899374281,0.26989963913922865,1st,3rd,3rd,-1.2686500760183241,0.3119934256344425,0.29804768694965894
perc,resp,937,1,2.1.3left.bmp,3.1.2right.bmp,,ACC026,"[0, -2, 2]","[2, -2, 0]",[],non-match,0.5917517095361369,3,1.115107885823989,1.0909151389840606,0.14368725952728795,4th,4th,3rd,1.3039358516690727,1.2636517204317879,0.29804768694965894
perc,resp,924,1,2.2.3left.bmp,2.3.2right.bmp,,ACC026,"[0, 0, 2]","[0, 2, 0]",[],non-match,0.5917517095361369,3,-0.5523744573941172,-0.3593996638632821,0.2805928266999768,2nd,2nd,3rd,-0.3565949619983757,-0.3190259278282245,0.29804768694965894
perc,resp,879,1,3.3.1left.bmp,3.3.1right.bmp,,ACC026,"[2, 2, -2]","[2, 2, -2]",[],match,1.0,,0.23168045026129402,0.49044708364284406,0.1778341600290949,3rd,3rd,3rd,0.32081910613025566,0.3119934256344425,0.29804768694965894
perc,resp,1098,0,2.3.1left.bmp,2.3.1right.bmp,,ACC026,"[0, 2, -2]","[0, 2, -2]",[],match,1.0,,-0.9589003237809637,0.6728410911970478,0.3701427449533016,1st,4th,3rd,-1.2686500760183241,1.2636517204317879,0.29804768694965894
perc,resp,1045,1,3.1.3left.bmp,3.1.3right.bmp,,ACC026,"[2, -2, 2]","[2, -2, 2]",[],match,1.0,,-0.5515007833830426,-0.7588270713762577,0.45258225166602867,2nd,1st,3rd,-0.3565949619983757,-1.2567155538844959,0.29804768694965894
perc,resp,884,0,2.3.2left.bmp,2.3.3right.bmp,,ACC026,"[0, 2, 0]","[0, 2, 2]",[],non-match,0.7113248654051871,4,0.025927886223291594,-1.4446601060110598,0.5412693348787706,3rd,1st,3rd,0.32081910613025566,-1.2567155538844959,0.29804768694965894
perc,resp,961,1,1.1.3left.bmp,1.2.1right.bmp,,ACC026,"[-2, -2, 2]","[-2, 0, -2]",[],non-match,0.3545027756320971,2,1.578200452366984,-1.2376275295279082,0.26604978918543376,4th,1st,3rd,1.3039358516690727,-1.2567155538844959,0.29804768694965894
perc,resp,990,1,3.2.3left.bmp,3.2.3right.bmp,,ACC026,"[2, 0, 2]","[2, 0, 2]",[],match,1.0,,0.778155400480718,-0.5608947237237772,0.12159515650756551,4th,2nd,3rd,1.3039358516690727,-0.3190259278282245,0.29804768694965894
perc,resp,1239,0,1.2.3left.bmp,2.2.3right.bmp,,ACC026,"[-2, 0, 2]","[0, 0, 2]",[],non-match,0.7113248654051871,4,-1.1602239460941797,-1.1010530364570883,-0.13312644453325173,1st,1st,2nd,-1.2686500760183241,-1.2567155538844959,-0.3608881493066015
perc,resp,694,1,2.2.2left.bmp,3.3.1right.bmp,,ACC026,"[0, 0, 0]","[2, 2, -2]",[],non-match,0.5,3,-0.24376183189954131,-0.5810592220606838,0.2644995646012145,2nd,2nd,3rd,-0.3565949619983757,-0.3190259278282245,0.29804768694965894
perc,resp,798,1,1.2.1left.bmp,2.2.1right.bmp,,ACC026,"[-2, 0, -2]","[0, 0, -2]",[],non-match,0.7113248654051871,4,0.8048036284113338,-0.3211574087954125,0.5944865053708901,4th,2nd,3rd,1.3039358516690727,-0.3190259278282245,0.29804768694965894
perc,resp,1278,1,3.3.2left.bmp,2.1.1right.bmp,,ACC026,"[2, 2, 0]","[0, -2, -2]",[],non-match,0.29289321881345254,1,-1.0432286312854202,-0.20266436003283161,0.6918657810802211,1st,2nd,4th,-1.2686500760183241,-0.3190259278282245,1.291806416336322
perc,resp,1037,0,3.2.1left.bmp,3.2.1right.bmp,,ACC026,"[2, 0, -2]","[2, 0, -2]",[],match,1.0,,0.11254754635562746,0.2182509162135283,0.6432632510771988,3rd,3rd,4th,0.32081910613025566,0.3119934256344425,1.291806416336322
perc,resp,1196,1,3.2.2left.bmp,3.2.2right.bmp,,ACC026,"[2, 0, 0]","[2, 0, 0]",[],match,1.0,,1.7156870559903936,0.010148942320217772,0.8356042652799249,4th,3rd,4th,1.3039358516690727,0.3119934256344425,1.291806416336322
perc,resp,871,1,3.1.2left.bmp,3.1.3right.bmp,,ACC026,"[2, -2, 0]","[2, -2, 2]",[],non-match,0.7113248654051871,4,1.2758769472578122,0.29522788164979347,0.8219264792493464,4th,3rd,4th,1.3039358516690727,0.3119934256344425,1.291806416336322
perc,resp,1089,1,1.1.2left.bmp,1.1.2right.bmp,,ACC026,"[-2, -2, 0]","[-2, -2, 0]",[],match,1.0,,-0.9103408896065904,-0.6886164258229481,0.6576410942869996,1st,1st,4th,-1.2686500760183241,-1.2567155538844959,1.291806416336322
perc,resp,989,0,2.1.2left.bmp,2.1.2right.bmp,,ACC026,"[0, -2, 0]","[0, -2, 0]",[],match,1.0,,0.6666281811412945,-0.031367197957097394,0.6892739840207512,4th,2nd,4th,1.3039358516690727,-0.3190259278282245,1.291806416336322
perc,resp,1007,1,1.1.1left.bmp,3.2.1right.bmp,,ACC026,"[-2, -2, -2]","[2, 0, -2]",[],non-match,0.3545027756320971,2,-0.33758156748657164,-1.3797356380778572,0.7145340522074428,2nd,1st,4th,-0.3565949619983757,-1.2567155538844959,1.291806416336322
perc,resp,912,1,1.2.3left.bmp,1.2.3right.bmp,,ACC026,"[-2, 0, 2]","[-2, 0, 2]",[],match,1.0,,-0.35924683066863183,-0.9192889639183958,0.4966105465363927,2nd,1st,3rd,-0.3565949619983757,-1.2567155538844959,0.29804768694965894
perc,resp,889,1,1.1.3left.bmp,1.1.3right.bmp,,ACC026,"[-2, -2, 2]","[-2, -2, 2]",[],match,1.0,,-0.5588368623135072,-0.7627997168852075,0.2841302646823838,2nd,1st,3rd,-0.3565949619983757,-1.2567155538844959,0.29804768694965894
perc,resp,866,1,2.1.2left.bmp,2.1.2right.bmp,,ACC026,"[0, -2, 0]","[0, -2, 0]",[],match,1.0,,-0.0745383626518255,-0.09205913872873894,0.47424599331819733,2nd,2nd,3rd,-0.3565949619983757,-0.3190259278282245,0.29804768694965894
perc,resp,731,1,1.1.2left.bmp,3.2.2right.bmp,,ACC026,"[-2, -2, 0]","[2, 0, 0]",[],non-match,0.3545027756320971,2,0.3721652776480681,-0.9841577480109497,0.7128791289416723,3rd,1st,4th,0.32081910613025566,-1.2567155538844959,1.291806416336322
perc,resp,967,1,1.3.3left.bmp,1.3.3right.bmp,,ACC026,"[-2, 2, 2]","[-2, 2, 2]",[],match,1.0,,-1.4589682984046943,1.0144128601361937,0.8534739592443406,1st,4th,4th,-1.2686500760183241,1.2636517204317879,1.291806416336322
perc,resp,804,1,1.2.1left.bmp,1.3.2right.bmp,,ACC026,"[-2, 0, -2]","[-2, 2, 0]",[],non-match,0.5917517095361369,3,0.18108732448735065,-0.48095177866177036,0.8568377425752852,3rd,2nd,4th,0.32081910613025566,-0.3190259278282245,1.291806416336322
perc,resp,818,0,2.1.3left.bmp,2.1.3right.bmp,,ACC026,"[0, -2, 2]","[0, -2, 2]",[],match,1.0,,0.07745488962456763,1.0460836531690028,0.9328811254347775,3rd,4th,4th,0.32081910613025566,1.2636517204317879,1.291806416336322
perc,resp,1166,1,2.1.1left.bmp,1.1.1right.bmp,,ACC026,"[0, -2, -2]","[-2, -2, -2]",[],non-match,0.7113248654051871,4,0.22973255569214726,1.9534440769670092,0.6872142212395134,3rd,4th,4th,0.32081910613025566,1.2636517204317879,1.291806416336322
perc,resp,993,1,2.3.2left.bmp,2.3.2right.bmp,,ACC026,"[0, 2, 0]","[0, 2, 0]",[],match,1.0,,-0.585511938116548,0.05700913667180422,0.5777363122039384,2nd,3rd,3rd,-0.3565949619983757,0.3119934256344425,0.29804768694965894
perc,resp,798,1,2.2.3left.bmp,3.1.1right.bmp,,ACC026,"[0, 0, 2]","[2, -2, -2]",[],non-match,0.29289321881345254,1,-0.27219782194672343,-1.249352758107128,0.3673998865205586,2nd,1st,3rd,-0.3565949619983757,-1.2567155538844959,0.29804768694965894
perc,resp,895,0,3.3.3left.bmp,3.3.3right.bmp,,ACC026,"[2, 2, 2]","[2, 2, 2]",[],match,1.0,,0.9478640501232272,-0.4472114147496409,0.46158874637714187,4th,2nd,3rd,1.3039358516690727,-0.3190259278282245,0.29804768694965894
perc,resp,1004,1,3.1.3left.bmp,1.1.3right.bmp,,ACC026,"[2, -2, 2]","[-2, -2, 2]",[],non-match,0.42264973081037416,2,0.41779731823649263,-1.9570413845189591,0.44292892829123015,3rd,1st,3rd,0.32081910613025566,-1.2567155538844959,0.29804768694965894
perc,resp,911,1,3.2.3left.bmp,3.2.3right.bmp,,ACC026,"[2, 0, 2]","[2, 0, 2]",[],match,1.0,,0.36551514603453256,0.02779953807262173,0.29887964815715173,3rd,3rd,3rd,0.32081910613025566,0.3119934256344425,0.29804768694965894
perc,resp,897,1,3.2.2left.bmp,3.2.2right.bmp,,ACC026,"[2, 0, 0]","[2, 0, 0]",[],match,1.0,,-1.0841162679512601,2.1385536221226604,0.3676259070133765,1st,4th,3rd,-1.2686500760183241,1.2636517204317879,0.29804768694965894
perc,resp,694,1,3.3.1left.bmp,3.3.1right.bmp,,ACC026,"[2, 2, -2]","[2, 2, -2]",[],match,1.0,,0.20126102711660246,0.8484291694475113,-0.04508301579108514,3rd,4th,3rd,0.32081910613025566,1.2636517204317879,0.29804768694965894
perc,resp,739,1,2.3.1left.bmp,3.2.1right.bmp,,ACC026,"[0, 2, -2]","[2, 0, -2]",[],non-match,0.5917517095361369,3,-0.37504174832926285,0.06794617764312953,-0.20473591169915875,2nd,3rd,2nd,-0.3565949619983757,0.3119934256344425,-0.3608881493066015
perc,resp,935,0,2.2.2left.bmp,2.2.2right.bmp,,ACC026,"[0, 0, 0]","[0, 0, 0]",[],match,1.0,,0.5321537273115788,-0.5764350855825683,-0.18862907542930682,3rd,2nd,2nd,0.32081910613025566,-0.3190259278282245,-0.3608881493066015
perc,resp,1032,1,2.2.1left.bmp,2.2.1right.bmp,,ACC026,"[0, 0, -2]","[0, 0, -2]",[],match,1.0,,-1.4449575364269245,0.7193122532648483,-0.3418538508916245,1st,4th,2nd,-1.2686500760183241,1.2636517204317879,-0.3608881493066015
perc,resp,1672,1,3.3.3left.bmp,3.3.3right.bmp,,ACC026,"[2, 2, 2]","[2, 2, 2]",[],match,1.0,,-0.4275705044940598,0.9439305298354386,-0.16861317949938776,2nd,4th,2nd,-0.3565949619983757,1.2636517204317879,-0.3608881493066015
perc,resp,797,1,1.1.2left.bmp,1.1.2right.bmp,,ACC026,"[-2, -2, 0]","[-2, -2, 0]",[],match,1.0,,-1.3112791110844881,-0.4822929462458752,-0.2852594223138266,1st,2nd,2nd,-1.2686500760183241,-0.3190259278282245,-0.3608881493066015
perc,resp,844,1,2.1.3left.bmp,2.3.3right.bmp,,ACC026,"[0, -2, 2]","[0, 2, 2]",[],non-match,0.42264973081037416,2,-1.5081103117810704,2.471076617460003,-0.1806484204276358,1st,4th,2nd,-1.2686500760183241,1.2636517204317879,-0.3608881493066015
perc,resp,983,1,2.2.3left.bmp,3.1.3right.bmp,,ACC026,"[0, 0, 2]","[2, -2, 2]",[],non-match,0.5917517095361369,3,-0.5780195612516673,0.5035333414675606,-0.21496861829264677,2nd,3rd,2nd,-0.3565949619983757,0.3119934256344425,-0.3608881493066015
perc,resp,897,1,2.2.2left.bmp,2.2.2right.bmp,,ACC026,"[0, 0, 0]","[0, 0, 0]",[],match,1.0,,-1.4522305371818547,0.732494530476253,-0.09050667418794935,1st,4th,2nd,-1.2686500760183241,1.2636517204317879,-0.3608881493066015
perc,resp,873,1,3.3.1left.bmp,1.1.2right.bmp,,ACC026,"[2, 2, -2]","[-2, -2, 0]",[],non-match,0.1339745962155613,1,1.0923837335537994,-2.008753536035156,-0.01832434270635818,4th,1st,3rd,1.3039358516690727,-1.2567155538844959,0.29804768694965894
perc,resp,1332,1,3.2.1left.bmp,3.2.1right.bmp,,ACC026,"[2, 0, -2]","[2, 0, -2]",[],match,1.0,,0.4832520177068296,-0.2971669707266064,-0.6333840240660388,3rd,2nd,1st,0.32081910613025566,-0.3190259278282245,-1.2298267822308437
perc,resp,911,1,2.3.2left.bmp,2.1.1right.bmp,,ACC026,"[0, 2, 0]","[0, -2, -2]",[],non-match,0.3545027756320971,2,1.05328392956427,1.063001346497157,-0.9830334392182747,4th,4th,1st,1.3039358516690727,1.2636517204317879,-1.2298267822308437
perc,resp,1108,1,2.2.1left.bmp,2.2.1right.bmp,,ACC026,"[0, 0, -2]","[0, 0, -2]",[],match,1.0,,-0.17627027217788516,0.8648013291427594,-0.7019117650968417,2nd,4th,1st,-0.3565949619983757,1.2636517204317879,-1.2298267822308437
perc,resp,865,1,1.3.1left.bmp,1.2.3right.bmp,,ACC026,"[-2, 2, -2]","[-2, 0, 2]",[],non-match,0.3545027756320971,2,0.15139062050460053,1.754648295197345,-0.6520959777411162,3rd,4th,1st,0.32081910613025566,1.2636517204317879,-1.2298267822308437
perc,resp,902,1,1.3.2left.bmp,2.1.2right.bmp,,ACC026,"[-2, 2, 0]","[0, -2, 0]",[],non-match,0.3545027756320971,2,-0.4930626990340982,-1.10664847224716,-0.630592689079297,2nd,1st,2nd,-0.3565949619983757,-1.2567155538844959,-0.3608881493066015
perc,resp,1051,1,1.1.3left.bmp,3.2.3right.bmp,,ACC026,"[-2, -2, 2]","[2, 0, 2]",[],non-match,0.3545027756320971,2,-0.715511399416875,-1.412424458718456,-0.6155448005464675,1st,1st,2nd,-1.2686500760183241,-1.2567155538844959,-0.3608881493066015
perc,resp,807,1,1.1.1left.bmp,1.1.1right.bmp,,ACC026,"[-2, -2, -2]","[-2, -2, -2]",[],match,1.0,,-0.6236029006051113,0.69831669745449,-0.5390814549427733,2nd,4th,2nd,-0.3565949619983757,1.2636517204317879,-0.3608881493066015
perc,resp,932,0,3.3.2left.bmp,3.3.2right.bmp,,ACC026,"[2, 2, 0]","[2, 2, 0]",[],match,1.0,,0.6807126568032517,1.8363358487303458,-0.28982435667234063,4th,4th,2nd,1.3039358516690727,1.2636517204317879,-0.3608881493066015
perc,resp,819,1,3.1.2left.bmp,1.3.3right.bmp,,ACC026,"[2, -2, 0]","[-2, 2, 2]",[],non-match,0.1339745962155613,1,-1.7898425333044585,-1.2107995790525317,-0.3333945247476627,1st,1st,2nd,-1.2686500760183241,-1.2567155538844959,-0.3608881493066015
perc,resp,1197,0,3.2.2left.bmp,3.3.3right.bmp,,ACC026,"[2, 0, 0]","[2, 2, 2]",[],non-match,0.5917517095361369,3,-0.742103662944787,-0.44883226869674847,-0.06795649550933584,1st,2nd,2nd,-1.2686500760183241,-0.3190259278282245,-0.3608881493066015
perc,resp,1004,1,3.2.3left.bmp,3.2.3right.bmp,,ACC026,"[2, 0, 2]","[2, 0, 2]",[],match,1.0,,-0.5062342692504102,0.9165353901092504,-0.20636209885876627,2nd,4th,2nd,-0.3565949619983757,1.2636517204317879,-0.3608881493066015
perc,resp,1185,1,1.2.2left.bmp,1.2.2right.bmp,,ACC026,"[-2, 0, 0]","[-2, 0, 0]",[],match,1.0,,1.3266122152429116,1.9507444856456764,-0.22720353792450448,4th,4th,2nd,1.3039358516690727,1.2636517204317879,-0.3608881493066015
perc,resp,1032,1,2.1.2left.bmp,2.1.2right.bmp,,ACC026,"[0, -2, 0]","[0, -2, 0]",[],match,1.0,,-0.1977181566494173,-0.1493781565012256,-0.28443106103305515,2nd,2nd,2nd,-0.3565949619983757,-0.3190259278282245,-0.3608881493066015
perc,resp,979,1,2.3.1left.bmp,1.2.3right.bmp,,ACC026,"[0, 2, -2]","[-2, 0, 2]",[],non-match,0.29289321881345254,1,1.9066066747272536,-0.12517090597386693,-0.6325280574890012,4th,2nd,1st,1.3039358516690727,-0.3190259278282245,-1.2298267822308437
perc,resp,957,0,1.3.3left.bmp,3.3.2right.bmp,,ACC026,"[-2, 2, 2]","[2, 2, 0]",[],non-match,0.3545027756320971,2,-1.075693431541304,0.698214470408758,-0.5173260488497292,1st,4th,2nd,-1.2686500760183241,1.2636517204317879,-0.3608881493066015
perc,resp,862,0,3.1.1left.bmp,3.2.1right.bmp,,ACC026,"[2, -2, -2]","[2, 0, -2]",[],non-match,0.7113248654051871,4,-1.2611073378837079,-1.8108498578722243,-0.34023190658583985,1st,1st,2nd,-1.2686500760183241,-1.2567155538844959,-0.3608881493066015
perc,resp,1393,1,1.2.1left.bmp,1.2.1right.bmp,,ACC026,"[-2, 0, -2]","[-2, 0, -2]",[],match,1.0,,0.4411281227233407,0.5499112747476937,-0.281907560438157,3rd,3rd,2nd,0.32081910613025566,0.3119934256344425,-0.3608881493066015
perc,resp,952,1,3.1.3left.bmp,2.3.1right.bmp,,ACC026,"[2, -2, 2]","[0, 2, -2]",[],non-match,0.1339745962155613,1,-2.025536777259473,-0.49881448841519316,-0.23669892555633126,1st,2nd,2nd,-1.2686500760183241,-0.3190259278282245,-0.3608881493066015
perc,resp,1755,1,2.1.1left.bmp,2.1.1right.bmp,,ACC026,"[0, -2, -2]","[0, -2, -2]",[],match,1.0,,0.35718157907577214,0.3916444446142753,-0.31305714859346184,3rd,3rd,2nd,0.32081910613025566,0.3119934256344425,-0.3608881493066015
perc,resp,818,1,1.2.3left.bmp,1.2.3right.bmp,,ACC026,"[-2, 0, 2]","[-2, 0, 2]",[],match,1.0,,-0.9155520580640374,-0.7309124246243487,-0.8366164208863104,1st,1st,1st,-1.2686500760183241,-1.2567155538844959,-1.2298267822308437
perc,resp,975,1,2.3.3left.bmp,2.3.3right.bmp,,ACC026,"[0, 2, 2]","[0, 2, 2]",[],match,1.0,,-2.314082267575758,-0.43380523468013316,-1.085969544441169,1st,2nd,1st,-1.2686500760183241,-0.3190259278282245,-1.2298267822308437
perc,resp,951,1,1.2.1left.bmp,1.1.3right.bmp,,ACC026,"[-2, 0, -2]","[-2, -2, 2]",[],non-match,0.3545027756320971,2,0.1668328112903712,0.05404460929657398,-1.1313761708965027,3rd,3rd,1st,0.32081910613025566,0.3119934256344425,-1.2298267822308437
perc,resp,766,0,1.2.3left.bmp,1.2.3right.bmp,,ACC026,"[-2, 0, 2]","[-2, 0, 2]",[],match,1.0,,-1.3095627264982488,0.9931156918276756,-1.2335633947534772,1st,4th,1st,-1.2686500760183241,1.2636517204317879,-1.2298267822308437
perc,resp,1568,1,2.3.1left.bmp,2.3.1right.bmp,,ACC026,"[0, 2, -2]","[0, 2, -2]",[],match,1.0,,-1.688408671061177,0.775894097288056,-1.654216877235778,1st,4th,1st,-1.2686500760183241,1.2636517204317879,-1.2298267822308437
perc,resp,972,1,2.1.3left.bmp,2.1.3right.bmp,,ACC026,"[0, -2, 2]","[0, -2, 2]",[],match,1.0,,-0.2481378717430489,-0.5109446813205625,-1.407092424660444,2nd,2nd,1st,-0.3565949619983757,-0.3190259278282245,-1.2298267822308437
perc,resp,789,1,3.1.1left.bmp,3.1.1right.bmp,,ACC026,"[2, -2, -2]","[2, -2, -2]",[],match,1.0,,1.5228438163194562,-1.6541584116512442,-0.9569966870983977,4th,1st,1st,1.3039358516690727,-1.2567155538844959,-1.2298267822308437
perc,resp,925,1,2.1.1left.bmp,2.1.1right.bmp,,ACC026,"[0, -2, -2]","[0, -2, -2]",[],match,1.0,,1.2144309625224345,-0.5988738082187618,-0.7399448037938674,4th,2nd,1st,1.3039358516690727,-0.3190259278282245,-1.2298267822308437
perc,resp,1002,1,1.3.1left.bmp,3.2.3right.bmp,,ACC026,"[-2, 2, -2]","[2, 0, 2]",[],non-match,0.1339745962155613,1,0.1574248982929578,-1.787114218801708,-0.7676344951953482,3rd,1st,1st,0.32081910613025566,-1.2567155538844959,-1.2298267822308437
perc,resp,869,1,2.2.3left.bmp,2.2.3right.bmp,,ACC026,"[0, 0, 2]","[0, 0, 2]",[],match,1.0,,-0.7491171402145786,-0.6841431240694131,-0.5685933747404283,1st,1st,2nd,-1.2686500760183241,-1.2567155538844959,-0.3608881493066015
perc,resp,816,1,1.3.2left.bmp,2.2.1right.bmp,,ACC026,"[-2, 2, 0]","[0, 0, -2]",[],non-match,0.5,3,-0.874664304078352,0.6228130543987754,-0.8581896723914747,1st,3rd,1st,-1.2686500760183241,0.3119934256344425,-1.2298267822308437
perc,resp,820,1,3.1.2left.bmp,2.3.1right.bmp,,ACC026,"[2, -2, 0]","[0, 2, -2]",[],non-match,0.29289321881345254,1,-0.4811023818856067,1.7682608372168305,-0.7516039747997505,2nd,4th,1st,-0.3565949619983757,1.2636517204317879,-1.2298267822308437
perc,resp,797,1,1.3.3left.bmp,1.3.3right.bmp,,ACC026,"[-2, 2, 2]","[-2, 2, 2]",[],match,1.0,,-0.3947308517212478,0.08373618421220878,-0.7443642669420826,2nd,3rd,1st,-0.3565949619983757,0.3119934256344425,-1.2298267822308437
perc,resp,1014,1,3.1.3left.bmp,3.1.3right.bmp,,ACC026,"[2, -2, 2]","[2, -2, 2]",[],match,1.0,,-1.5978412330378222,-0.22583641222577705,-0.821226174606936,1st,2nd,1st,-1.2686500760183241,-0.3190259278282245,-1.2298267822308437
perc,resp,900,1,3.3.2left.bmp,3.3.2right.bmp,,ACC026,"[2, 2, 0]","[2, 2, 0]",[],match,1.0,,-1.7340692907896098,-0.3925057075328688,-0.7917686498317187,1st,2nd,1st,-1.2686500760183241,-0.3190259278282245,-1.2298267822308437
perc,resp,876,0,2.2.2left.bmp,3.2.2right.bmp,,ACC026,"[0, 0, 0]","[2, 0, 0]",[],non-match,0.7113248654051871,4,-0.5909701855161487,0.39879840148150764,-0.43689785003713555,2nd,3rd,2nd,-0.3565949619983757,0.3119934256344425,-0.3608881493066015
perc,resp,1427,0,1.1.3left.bmp,1.1.2right.bmp,,ACC026,"[-2, -2, 2]","[-2, -2, 0]",[],non-match,0.7113248654051871,4,-1.3213853784237912,-0.7280873702491171,-0.18773082928561213,1st,1st,2nd,-1.2686500760183241,-1.2567155538844959,-0.3608881493066015
perc,resp,822,1,3.3.1left.bmp,1.3.1right.bmp,,ACC026,"[2, 2, -2]","[-2, 2, -2]",[],non-match,0.42264973081037416,2,1.1721462465971482,-0.7315550597129507,0.1460556874123113,4th,1st,3rd,1.3039358516690727,-1.2567155538844959,0.29804768694965894
perc,resp,937,1,3.2.1left.bmp,3.2.1right.bmp,,ACC026,"[2, 0, -2]","[2, 0, -2]",[],match,1.0,,0.9992525695017245,0.5644122523735414,-0.24378187935961942,4th,3rd,2nd,1.3039358516690727,0.3119934256344425,-0.3608881493066015
perc,resp,944,1,2.2.1left.bmp,1.2.3right.bmp,,ACC026,"[0, 0, -2]","[-2, 0, 2]",[],non-match,0.3545027756320971,2,-0.03493223108075917,-0.5260651719288473,0.029121939021633625,2nd,2nd,3rd,-0.3565949619983757,-0.3190259278282245,0.29804768694965894
perc,resp,729,1,1.1.1left.bmp,1.1.1right.bmp,,ACC026,"[-2, -2, -2]","[-2, -2, -2]",[],match,1.0,,1.9658343568644199,0.9007372395471127,0.04624402053797123,4th,4th,3rd,1.3039358516690727,1.2636517204317879,0.29804768694965894
perc,resp,907,1,2.3.3left.bmp,1.2.2right.bmp,,ACC026,"[0, 2, 2]","[-2, 0, 0]",[],non-match,0.5,3,-1.3616448817473146,0.48718806264450526,0.13616746850948452,1st,3rd,3rd,-1.2686500760183241,0.3119934256344425,0.29804768694965894
perc,resp,812,1,3.3.3left.bmp,2.2.3right.bmp,,ACC026,"[2, 2, 2]","[0, 0, 2]",[],non-match,0.5917517095361369,3,0.48992589949977106,-0.7072195270571732,0.22033566941355248,3rd,1st,3rd,0.32081910613025566,-1.2567155538844959,0.29804768694965894
perc,resp,789,1,1.1.2left.bmp,1.1.2right.bmp,,ACC026,"[-2, -2, 0]","[-2, -2, 0]",[],match,1.0,,0.777431494190128,-1.3019084796320024,0.23960182627049384,4th,1st,3rd,1.3039358516690727,-1.2567155538844959,0.29804768694965894
perc,resp,711,1,3.2.2left.bmp,3.2.2right.bmp,,ACC026,"[2, 0, 0]","[2, 0, 0]",[],match,1.0,,-0.02307721467908485,-1.3191646897065819,0.16380878104292018,2nd,1st,3rd,-0.3565949619983757,-1.2567155538844959,0.29804768694965894
perc,resp,718,1,1.2.2left.bmp,1.2.2right.bmp,,ACC026,"[-2, 0, 0]","[-2, 0, 0]",[],match,1.0,,0.6485898221665649,-0.07509747922826938,0.4209423400432019,3rd,2nd,3rd,0.32081910613025566,-0.3190259278282245,0.29804768694965894
perc,resp,1066,1,2.1.2left.bmp,2.1.2right.bmp,,ACC026,"[0, -2, 0]","[0, -2, 0]",[],match,1.0,,-0.9563714265917447,-1.6829615118067034,0.47728751715618684,1st,1st,3rd,-1.2686500760183241,-1.2567155538844959,0.29804768694965894
perc,resp,980,1,2.3.2left.bmp,1.1.1right.bmp,,ACC026,"[0, 2, 0]","[-2, -2, -2]",[],non-match,0.29289321881345254,1,0.25498889174734785,1.4058451729814128,0.43290605127415166,3rd,4th,3rd,0.32081910613025566,1.2636517204317879,0.29804768694965894
perc,resp,799,1,3.2.3left.bmp,3.2.3right.bmp,,ACC026,"[2, 0, 2]","[2, 0, 2]",[],match,1.0,,0.2966732158542129,-0.430443474077058,0.3591214728229323,3rd,2nd,3rd,0.32081910613025566,-0.3190259278282245,0.29804768694965894
perc,resp,1066,1,3.3.3left.bmp,3.3.3right.bmp,,ACC026,"[2, 2, 2]","[2, 2, 2]",[],match,1.0,,0.3942953259799238,-1.753583669271491,0.17834061399505102,3rd,1st,3rd,0.32081910613025566,-1.2567155538844959,0.29804768694965894
perc,resp,763,1,3.1.2left.bmp,1.3.2right.bmp,,ACC026,"[2, -2, 0]","[-2, 2, 0]",[],non-match,0.18350341907227385,1,-0.3997017029721412,0.09326408658044212,0.05274720013958218,2nd,3rd,3rd,-0.3565949619983757,0.3119934256344425,0.29804768694965894
perc,resp,1050,1,3.1.1left.bmp,2.3.2right.bmp,,ACC026,"[2, -2, -2]","[0, 2, 0]",[],non-match,0.29289321881345254,1,0.26427672283835046,1.758350565831859,0.1208926185413156,3rd,4th,3rd,0.32081910613025566,1.2636517204317879,0.29804768694965894
perc,resp,1078,1,1.2.3left.bmp,2.2.1right.bmp,,ACC026,"[-2, 0, 2]","[0, 0, -2]",[],non-match,0.3545027756320971,2,0.26074435548623226,0.012644819913092077,0.5665531524897673,3rd,3rd,3rd,0.32081910613025566,0.3119934256344425,0.29804768694965894
perc,resp,945,1,2.2.3left.bmp,1.1.3right.bmp,,ACC026,"[0, 0, 2]","[-2, -2, 2]",[],non-match,0.5917517095361369,3,0.904857297625508,-0.558167909824249,0.9081790947683164,4th,2nd,4th,1.3039358516690727,-0.3190259278282245,1.291806416336322
perc,resp,1154,0,2.1.3left.bmp,2.1.3right.bmp,,ACC026,"[0, -2, 2]","[0, -2, 2]",[],match,1.0,,0.5553871333605264,1.16607872761634,0.7913158304524331,3rd,4th,4th,0.32081910613025566,1.2636517204317879,1.291806416336322
perc,resp,1453,1,2.2.2left.bmp,3.3.2right.bmp,,ACC026,"[0, 0, 0]","[2, 2, 0]",[],non-match,0.5917517095361369,3,-0.36265507825342735,0.5511704613667113,0.7918273153359825,2nd,3rd,4th,-0.3565949619983757,0.3119934256344425,1.291806416336322
perc,resp,1160,1,3.2.2left.bmp,3.2.2right.bmp,,ACC026,"[2, 0, 0]","[2, 0, 0]",[],match,1.0,,-0.374608138808346,0.180641045054187,0.6003239210719662,2nd,3rd,4th,-0.3565949619983757,0.3119934256344425,1.291806416336322
perc,resp,1067,1,1.1.1left.bmp,2.1.2right.bmp,,ACC026,"[-2, -2, -2]","[0, -2, 0]",[],non-match,0.5917517095361369,3,0.34226187357892673,-1.1009300222962073,0.35424329095885887,3rd,1st,3rd,0.32081910613025566,-1.2567155538844959,0.29804768694965894
perc,resp,833,1,1.2.2left.bmp,1.2.2right.bmp,,ACC026,"[-2, 0, 0]","[-2, 0, 0]",[],match,1.0,,0.400676049828063,0.6431651778065258,0.5377576815188329,3rd,3rd,3rd,0.32081910613025566,0.3119934256344425,0.29804768694965894
perc,resp,830,0,3.2.3left.bmp,3.3.3right.bmp,,ACC026,"[2, 0, 2]","[2, 2, 2]",[],non-match,0.7113248654051871,4,1.3114791798279906,-0.3551533403218723,0.19200513586493845,4th,2nd,3rd,1.3039358516690727,-0.3190259278282245,0.29804768694965894
perc,resp,723,1,2.3.2left.bmp,2.3.2right.bmp,,ACC026,"[0, 2, 0]","[0, 2, 0]",[],match,1.0,,0.39724975317754496,-0.165714437066217,0.3556856048279617,3rd,2nd,3rd,0.32081910613025566,-0.3190259278282245,0.29804768694965894
perc,resp,817,0,3.3.1left.bmp,2.2.2right.bmp,,ACC026,"[2, 2, -2]","[0, 0, 0]",[],non-match,0.5,3,1.0220423937278345,0.0681869664728539,0.29993226592706035,4th,3rd,3rd,1.3039358516690727,0.3119934256344425,0.29804768694965894
perc,resp,1216,1,2.1.1left.bmp,2.1.1right.bmp,,ACC026,"[0, -2, -2]","[0, -2, -2]",[],match,1.0,,-1.4074836697385025,0.23503967247675958,0.1853214045132084,1st,3rd,3rd,-1.2686500760183241,0.3119934256344425,0.29804768694965894
perc,resp,873,1,3.1.3left.bmp,1.3.3right.bmp,,ACC026,"[2, -2, 2]","[-2, 2, 2]",[],non-match,0.18350341907227385,1,0.6820964503017265,-0.2125663165717441,0.45409036338288195,4th,2nd,3rd,1.3039358516690727,-0.3190259278282245,0.29804768694965894
perc,resp,889,1,3.3.2left.bmp,2.1.3right.bmp,,ACC026,"[2, 2, 0]","[0, -2, 2]",[],non-match,0.29289321881345254,1,0.41084063350219546,-0.24537556010270511,0.49512608731519453,3rd,2nd,3rd,0.32081910613025566,-0.3190259278282245,0.29804768694965894
perc,resp,1015,1,1.3.2left.bmp,1.3.2right.bmp,,ACC026,"[-2, 2, 0]","[-2, 2, 0]",[],match,1.0,,1.0621276223704568,-1.085485765250604,0.6171530082318077,4th,1st,4th,1.3039358516690727,-1.2567155538844959,1.291806416336322
perc,resp,681,1,2.3.1left.bmp,3.3.1right.bmp,,ACC026,"[0, 2, -2]","[2, 2, -2]",[],non-match,0.7113248654051871,4,0.8010730145199786,-0.5561443553532573,0.9260453189236678,4th,2nd,4th,1.3039358516690727,-0.3190259278282245,1.291806416336322
perc,resp,796,1,2.2.1left.bmp,2.3.2right.bmp,,ACC026,"[0, 0, -2]","[0, 2, 0]",[],non-match,0.5917517095361369,3,0.6911211080816262,-0.9631134990952425,0.9585294087148627,4th,1st,4th,1.3039358516690727,-1.2567155538844959,1.291806416336322
perc,resp,1367,1,1.3.3left.bmp,2.1.1right.bmp,,ACC026,"[-2, 2, 2]","[0, -2, -2]",[],non-match,0.1339745962155613,1,-0.620405661275945,0.5561832884226103,0.9882353058841946,2nd,3rd,4th,-0.3565949619983757,0.3119934256344425,1.291806416336322
perc,resp,1176,1,3.2.1left.bmp,3.2.1right.bmp,,ACC026,"[2, 0, -2]","[2, 0, -2]",[],match,1.0,,1.501496133094995,1.8959952109135927,1.1716329384313435,4th,4th,4th,1.3039358516690727,1.2636517204317879,1.291806416336322
perc,resp,959,0,1.2.2left.bmp,1.3.3right.bmp,,ACC026,"[-2, 0, 0]","[-2, 2, 2]",[],non-match,0.5917517095361369,3,-0.5655933135645409,1.0484373241138578,1.3449728698691905,2nd,4th,4th,-0.3565949619983757,1.2636517204317879,1.291806416336322
perc,resp,836,0,2.3.1left.bmp,2.3.1right.bmp,,ACC026,"[0, 2, -2]","[0, 2, -2]",[],match,1.0,,-0.2119851299667526,0.7044830100726499,1.5314439405034483,2nd,4th,4th,-0.3565949619983757,1.2636517204317879,1.291806416336322
perc,resp,952,1,1.1.2left.bmp,1.1.2right.bmp,,ACC026,"[-2, -2, 0]","[-2, -2, 0]",[],match,1.0,,0.21170334417075812,-0.8606706375471042,1.690445884174139,3rd,1st,4th,0.32081910613025566,-1.2567155538844959,1.291806416336322
perc,resp,959,1,1.2.1left.bmp,1.2.1right.bmp,,ACC026,"[-2, 0, -2]","[-2, 0, -2]",[],match,1.0,,0.02688061616827544,-0.7077048919581492,1.7897304754123442,3rd,1st,4th,0.32081910613025566,-1.2567155538844959,1.291806416336322
perc,resp,894,1,3.3.2left.bmp,3.3.2right.bmp,,ACC026,"[2, 2, 0]","[2, 2, 0]",[],match,1.0,,-0.30622062639461656,0.5177214872481686,1.352803341532681,2nd,3rd,4th,-0.3565949619983757,0.3119934256344425,1.291806416336322
perc,resp,910,1,1.2.3left.bmp,1.2.3right.bmp,,ACC026,"[-2, 0, 2]","[-2, 0, 2]",[],match,1.0,,0.6293901016200086,1.9142287571061716,2.0378590647247266,3rd,4th,4th,0.32081910613025566,1.2636517204317879,1.291806416336322
perc,resp,1118,1,2.1.1left.bmp,2.1.1right.bmp,,ACC026,"[0, -2, -2]","[0, -2, -2]",[],match,1.0,,0.3039959820470167,0.17723076219876446,1.774889239360111,3rd,3rd,4th,0.32081910613025566,0.3119934256344425,1.291806416336322
perc,resp,1006,1,2.1.2left.bmp,2.1.2right.bmp,,ACC026,"[0, -2, 0]","[0, -2, 0]",[],match,1.0,,-0.4729555015715537,1.0171109707315158,1.6352997241923648,2nd,4th,4th,-0.3565949619983757,1.2636517204317879,1.291806416336322
perc,resp,1314,1,2.2.2left.bmp,1.2.2right.bmp,,ACC026,"[0, 0, 0]","[-2, 0, 0]",[],non-match,0.7113248654051871,4,0.6570279956500656,2.293168184599924,1.5154907042303967,3rd,4th,4th,0.32081910613025566,1.2636517204317879,1.291806416336322
perc,resp,1860,1,2.2.1left.bmp,3.2.3right.bmp,,ACC026,"[0, 0, -2]","[2, 0, 2]",[],non-match,0.3545027756320971,2,-1.16335983230705,0.5796394122055897,1.9283254454582717,1st,3rd,4th,-1.2686500760183241,0.3119934256344425,1.291806416336322
perc,resp,987,1,3.1.1left.bmp,1.1.1right.bmp,,ACC026,"[2, -2, -2]","[-2, -2, -2]",[],non-match,0.42264973081037416,2,-0.3549521436606437,0.7110158023784339,1.7957232428816723,2nd,4th,4th,-0.3565949619983757,1.2636517204317879,1.291806416336322
perc,resp,936,1,2.3.3left.bmp,2.3.3right.bmp,,ACC026,"[0, 2, 2]","[0, 2, 2]",[],match,1.0,,1.145196394098406,0.0012853733717419452,2.112695986799734,4th,2nd,4th,1.3039358516690727,-0.3190259278282245,1.291806416336322
perc,resp,871,1,3.3.1left.bmp,1.2.3right.bmp,,ACC026,"[2, 2, -2]","[-2, 0, 2]",[],non-match,0.1339745962155613,1,0.9403779965610843,-2.6517543354864674,1.5244402401084034,4th,1st,4th,1.3039358516690727,-1.2567155538844959,1.291806416336322
perc,resp,988,0,1.3.3left.bmp,2.2.2right.bmp,,ACC026,"[-2, 2, 2]","[0, 0, 0]",[],non-match,0.5,3,-1.0267909780984992,1.4462424539047154,1.17162203120049,1st,4th,4th,-1.2686500760183241,1.2636517204317879,1.291806416336322
perc,resp,1026,0,1.3.1left.bmp,1.1.2right.bmp,,ACC026,"[-2, 2, -2]","[-2, -2, 0]",[],non-match,0.3545027756320971,2,-0.3039720506962572,0.29647072333169444,1.3121640146240896,2nd,3rd,4th,-0.3565949619983757,0.3119934256344425,1.291806416336322
perc,resp,961,1,3.1.3left.bmp,1.2.2right.bmp,,ACC026,"[2, -2, 2]","[-2, 0, 0]",[],non-match,0.29289321881345254,1,-0.5552292251318973,-2.3805641861227302,1.438736301089647,2nd,1st,4th,-0.3565949619983757,-1.2567155538844959,1.291806416336322
perc,resp,1030,1,1.1.1left.bmp,1.1.1right.bmp,,ACC026,"[-2, -2, -2]","[-2, -2, -2]",[],match,1.0,,0.19962562092368427,-0.7117358837670169,1.2021665155982002,3rd,1st,4th,0.32081910613025566,-1.2567155538844959,1.291806416336322
perc,resp,1056,1,3.2.3left.bmp,1.3.2right.bmp,,ACC026,"[2, 0, 2]","[-2, 2, 0]",[],non-match,0.29289321881345254,1,-0.1006417711611297,-1.2626472145515855,0.9755487049147927,2nd,1st,4th,-0.3565949619983757,-1.2567155538844959,1.291806416336322
perc,resp,1387,1,3.3.3left.bmp,2.1.3right.bmp,,ACC026,"[2, 2, 2]","[0, -2, 2]",[],non-match,0.3545027756320971,2,-1.1324711269313192,-0.6441643475726074,0.8927796960427233,1st,1st,4th,-1.2686500760183241,-1.2567155538844959,1.291806416336322
perc,resp,932,1,1.1.3left.bmp,3.3.2right.bmp,,ACC026,"[-2, -2, 2]","[2, 2, 0]",[],non-match,0.1339745962155613,1,1.4571589515828844,1.1391727969836545,1.1591870905024324,4th,4th,4th,1.3039358516690727,1.2636517204317879,1.291806416336322
perc,resp,1073,0,3.2.1left.bmp,3.3.1right.bmp,,ACC026,"[2, 0, -2]","[2, 2, -2]",[],non-match,0.7113248654051871,4,1.4676530695098466,0.7038219228599156,1.3128395490148752,4th,4th,4th,1.3039358516690727,1.2636517204317879,1.291806416336322
perc,resp,1050,1,2.3.2left.bmp,2.3.2right.bmp,,ACC026,"[0, 2, 0]","[0, 2, 0]",[],match,1.0,,1.4474395008509973,-1.3187374005882717,1.2374673476774918,4th,1st,4th,1.3039358516690727,-1.2567155538844959,1.291806416336322
perc,resp,1077,1,1.3.2left.bmp,1.3.2right.bmp,,ACC026,"[-2, 2, 0]","[-2, 2, 0]",[],match,1.0,,0.7445108112112884,0.9933422429072976,1.2786187031044867,4th,4th,4th,1.3039358516690727,1.2636517204317879,1.291806416336322
perc,resp,854,1,3.1.2left.bmp,3.1.2right.bmp,,ACC026,"[2, -2, 0]","[2, -2, 0]",[],match,1.0,,-0.948423777965315,-0.33767268635468584,1.7370452256828284,1st,2nd,4th,-1.2686500760183241,-0.3190259278282245,1.291806416336322
perc,resp,1202,1,3.2.2left.bmp,1.3.1right.bmp,,ACC026,"[2, 0, 0]","[-2, 2, -2]",[],non-match,0.29289321881345254,1,-0.4093855689382036,0.7615704650774783,1.976469433043398,2nd,4th,4th,-0.3565949619983757,1.2636517204317879,1.291806416336322
perc,resp,959,1,2.1.3left.bmp,2.1.3right.bmp,,ACC026,"[0, -2, 2]","[0, -2, 2]",[],match,1.0,,0.6200736193533368,0.30377713802701856,1.9527187833626705,3rd,3rd,4th,0.32081910613025566,0.3119934256344425,1.291806416336322
perc,resp,824,1,2.2.3left.bmp,2.2.3right.bmp,,ACC026,"[0, 0, 2]","[0, 0, 2]",[],match,1.0,,-2.105450357710683,0.2283784556650557,1.7592185668179254,1st,3rd,4th,-1.2686500760183241,0.3119934256344425,1.291806416336322
perc,resp,681,1,3.2.2left.bmp,3.2.2right.bmp,,ACC026,"[2, 0, 0]","[2, 0, 0]",[],match,1.0,,0.36444491681303587,-0.6259580239582241,1.7265509115349456,3rd,2nd,4th,0.32081910613025566,-0.3190259278282245,1.291806416336322
perc,resp,866,1,2.2.1left.bmp,2.2.1right.bmp,,ACC026,"[0, 0, -2]","[0, 0, -2]",[],match,1.0,,1.6012866159660815,-0.6263137968577719,1.9285074016564216,4th,2nd,4th,1.3039358516690727,-0.3190259278282245,1.291806416336322
perc,resp,921,1,3.1.1left.bmp,3.1.1right.bmp,,ACC026,"[2, -2, -2]","[2, -2, -2]",[],match,1.0,,1.7915858821794746,0.45849256072600375,1.7044107145535288,4th,3rd,4th,1.3039358516690727,0.3119934256344425,1.291806416336322
perc,resp,756,1,1.1.3left.bmp,1.3.1right.bmp,,ACC026,"[-2, -2, 2]","[-2, 2, -2]",[],non-match,0.18350341907227385,1,0.17657773652162645,1.3123564609478988,1.6154069166864469,3rd,4th,4th,0.32081910613025566,1.2636517204317879,1.291806416336322
perc,resp,1549,1,3.1.3left.bmp,3.1.3right.bmp,,ACC026,"[2, -2, 2]","[2, -2, 2]",[],match,1.0,,0.7182864594068544,0.4583552518640208,1.64442556963614,4th,3rd,4th,1.3039358516690727,0.3119934256344425,1.291806416336322
perc,resp,884,1,1.3.2left.bmp,1.3.2right.bmp,,ACC026,"[-2, 2, 0]","[-2, 2, 0]",[],match,1.0,,-0.5593468264887489,-0.8630816866248708,1.2786646393813146,2nd,1st,4th,-0.3565949619983757,-1.2567155538844959,1.291806416336322
perc,resp,887,0,2.1.3left.bmp,2.2.1right.bmp,,ACC026,"[0, -2, 2]","[0, 0, -2]",[],non-match,0.3545027756320971,2,-0.7368719410229897,0.17527757068877642,1.455624233088867,1st,3rd,4th,-1.2686500760183241,0.3119934256344425,1.291806416336322
perc,resp,780,1,2.3.2left.bmp,3.1.2right.bmp,,ACC026,"[0, 2, 0]","[2, -2, 0]",[],non-match,0.3545027756320971,2,0.11078374410211499,0.10604935836800311,1.3016167812224053,3rd,3rd,4th,0.32081910613025566,0.3119934256344425,1.291806416336322
perc,resp,1036,1,1.2.3left.bmp,3.3.1right.bmp,,ACC026,"[-2, 0, 2]","[2, 2, -2]",[],non-match,0.1339745962155613,1,-1.336182914272636,-0.6521991086121478,1.176215121040542,1st,1st,4th,-1.2686500760183241,-1.2567155538844959,1.291806416336322
perc,resp,1577,1,2.2.2left.bmp,2.2.2right.bmp,,ACC026,"[0, 0, 0]","[0, 0, 0]",[],match,1.0,,0.02353181010727582,0.22799335300029755,1.3155939472478984,3rd,3rd,4th,0.32081910613025566,0.3119934256344425,1.291806416336322
perc,resp,1458,0,2.3.3left.bmp,2.2.3right.bmp,,ACC026,"[0, 2, 2]","[0, 0, 2]",[],non-match,0.7113248654051871,4,0.22752549179400205,0.2665449089513823,1.706593962322928,3rd,3rd,4th,0.32081910613025566,0.3119934256344425,1.291806416336322
perc,resp,1176,0,3.3.2left.bmp,3.2.1right.bmp,,ACC026,"[2, 2, 0]","[2, 0, -2]",[],non-match,0.5917517095361369,3,0.45351366573992424,1.885999513028009,1.3539627245539851,3rd,4th,4th,0.32081910613025566,1.2636517204317879,1.291806416336322
perc,resp,773,0,3.2.3left.bmp,2.2.1right.bmp,,ACC026,"[2, 0, 2]","[0, 0, -2]",[],non-match,0.3545027756320971,2,-0.24380133438418838,0.08349642050049161,1.2617484880771812,2nd,3rd,4th,-0.3565949619983757,0.3119934256344425,1.291806416336322
perc,resp,846,1,1.3.1left.bmp,1.3.1right.bmp,,ACC026,"[-2, 2, -2]","[-2, 2, -2]",[],match,1.0,,0.5225566057466736,1.5466261096556073,1.5231881809610426,3rd,4th,4th,0.32081910613025566,1.2636517204317879,1.291806416336322
perc,resp,1539,1,2.1.1left.bmp,1.2.1right.bmp,,ACC026,"[0, -2, -2]","[-2, 0, -2]",[],non-match,0.5917517095361369,3,-1.0586985531627715,-0.8885625323743502,1.4693243768255064,1st,1st,4th,-1.2686500760183241,-1.2567155538844959,1.291806416336322
perc,resp,854,1,3.2.1left.bmp,1.2.2right.bmp,,ACC026,"[2, 0, -2]","[-2, 0, 0]",[],non-match,0.3545027756320971,2,-0.5573227601898644,-1.7316107399690392,1.6311547041342502,2nd,1st,4th,-0.3565949619983757,-1.2567155538844959,1.291806416336322
perc,resp,779,1,2.3.1left.bmp,1.2.3right.bmp,,ACC026,"[0, 2, -2]","[-2, 0, 2]",[],non-match,0.29289321881345254,1,2.670217050312665,2.222890194488632,1.7955381423470276,4th,4th,4th,1.3039358516690727,1.2636517204317879,1.291806416336322
perc,resp,1057,0,3.3.3left.bmp,3.1.3right.bmp,,ACC026,"[2, 2, 2]","[2, -2, 2]",[],non-match,0.42264973081037416,2,0.5779207514464114,0.3183006682490281,1.7018530690202194,3rd,3rd,4th,0.32081910613025566,0.3119934256344425,1.291806416336322
perc,resp,1143,1,3.1.2left.bmp,3.1.2right.bmp,,ACC026,"[2, -2, 0]","[2, -2, 0]",[],match,1.0,,-1.7725267716105315,-1.1609132078677733,1.6568291420160066,1st,1st,4th,-1.2686500760183241,-1.2567155538844959,1.291806416336322
perc,resp,1214,1,2.1.2left.bmp,3.2.2right.bmp,,ACC026,"[0, -2, 0]","[2, 0, 0]",[],non-match,0.5917517095361369,3,-0.24007894627273835,0.3303957508626464,1.8375390821917215,2nd,3rd,4th,-0.3565949619983757,0.3119934256344425,1.291806416336322
perc,resp,1041,1,3.3.1left.bmp,1.1.3right.bmp,,ACC026,"[2, 2, -2]","[-2, -2, 2]",[],non-match,0.0,1,0.2816973015147297,0.04571011514188745,1.4293404933565104,3rd,3rd,4th,0.32081910613025566,0.3119934256344425,1.291806416336322
perc,resp,1886,1,1.2.1left.bmp,3.3.3right.bmp,,ACC026,"[-2, 0, -2]","[2, 2, 2]",[],non-match,0.1339745962155613,1,-0.8562630790853232,-0.4912214108593157,1.1641876458858258,1st,2nd,4th,-1.2686500760183241,-0.3190259278282245,1.291806416336322
perc,resp,1901,1,2.2.3left.bmp,1.1.1right.bmp,,ACC026,"[0, 0, 2]","[-2, -2, -2]",[],non-match,0.29289321881345254,1,0.8978468518908139,-0.6320830186255875,0.9139747597221091,4th,2nd,4th,1.3039358516690727,-0.3190259278282245,1.291806416336322
perc,resp,1280,1,1.2.2left.bmp,2.3.1right.bmp,,ACC026,"[-2, 0, 0]","[0, 2, -2]",[],non-match,0.5,3,-0.5540518196063898,0.4387507242386241,0.8043960798550018,2nd,3rd,4th,-0.3565949619983757,0.3119934256344425,1.291806416336322
perc,resp,1147,1,1.3.3left.bmp,1.3.3right.bmp,,ACC026,"[-2, 2, 2]","[-2, 2, 2]",[],match,1.0,,-0.0552897576073886,0.3458716157134755,0.4239814808131411,2nd,3rd,3rd,-0.3565949619983757,0.3119934256344425,0.29804768694965894
perc,resp,1750,0,1.1.2left.bmp,1.1.2right.bmp,,ACC026,"[-2, -2, 0]","[-2, -2, 0]",[],match,1.0,,-0.7663500708524992,-0.19016577958132383,0.45650884736153313,1st,2nd,3rd,-1.2686500760183241,-0.3190259278282245,0.29804768694965894
perc,resp,806,0,2.3.3left.bmp,2.3.3right.bmp,,ACC026,"[0, 2, 2]","[0, 2, 2]",[],match,1.0,,-0.3402404911813452,0.3870066968470618,0.3071539856102189,2nd,3rd,3rd,-0.3565949619983757,0.3119934256344425,0.29804768694965894
perc,resp,892,0,3.3.2left.bmp,3.2.2right.bmp,,ACC026,"[2, 2, 0]","[2, 0, 0]",[],non-match,0.7113248654051871,4,-2.179047341502379,-1.3717581270314767,0.41441663856202565,1st,1st,3rd,-1.2686500760183241,-1.2567155538844959,0.29804768694965894
perc,resp,1233,1,1.3.2left.bmp,1.2.1right.bmp,,ACC026,"[-2, 2, 0]","[-2, 0, -2]",[],non-match,0.5917517095361369,3,-0.7089004763959957,0.0014592447759872145,0.5516777672075259,1st,2nd,3rd,-1.2686500760183241,-0.3190259278282245,0.29804768694965894
perc,resp,788,1,2.2.1left.bmp,2.2.1right.bmp,,ACC026,"[0, 0, -2]","[0, 0, -2]",[],match,1.0,,-0.5704044087056737,-0.05942781012305174,0.22637558056214707,2nd,2nd,3rd,-0.3565949619983757,-0.3190259278282245,0.29804768694965894
perc,resp,763,1,2.1.2left.bmp,2.1.2right.bmp,,ACC026,"[0, -2, 0]","[0, -2, 0]",[],match,1.0,,2.17575253261772,-0.2948431421059645,0.21549767698897473,4th,2nd,3rd,1.3039358516690727,-0.3190259278282245,0.29804768694965894
perc,resp,1009,1,1.1.2left.bmp,2.1.1right.bmp,,ACC026,"[-2, -2, 0]","[0, -2, -2]",[],non-match,0.5917517095361369,3,1.6006362100943954,0.06563829530260179,0.02532230400198986,4th,3rd,3rd,1.3039358516690727,0.3119934256344425,0.29804768694965894
perc,resp,1318,1,2.2.3left.bmp,2.2.3right.bmp,,ACC026,"[0, 0, 2]","[0, 0, 2]",[],match,1.0,,-0.8290003192215984,0.03635767880591073,0.008636830134616266,1st,3rd,3rd,-1.2686500760183241,0.3119934256344425,0.29804768694965894
perc,resp,1371,1,3.2.1left.bmp,2.3.2right.bmp,,ACC026,"[2, 0, -2]","[0, 2, 0]",[],non-match,0.5,3,0.3273439699568923,-1.5690136974706104,-0.38576457973179956,3rd,1st,2nd,0.32081910613025566,-1.2567155538844959,-0.3608881493066015
perc,resp,1029,0,2.3.1left.bmp,3.3.3right.bmp,,ACC026,"[0, 2, -2]","[2, 2, 2]",[],non-match,0.3545027756320971,2,1.1069916345485924,2.9012139692024066,-0.1447644089179467,4th,4th,2nd,1.3039358516690727,1.2636517204317879,-0.3608881493066015
perc,resp,1014,1,3.1.2left.bmp,3.1.2right.bmp,,ACC026,"[2, -2, 0]","[2, -2, 0]",[],match,1.0,,0.24868661093679717,0.20979950165500358,-0.5576750389435025,3rd,3rd,2nd,0.32081910613025566,0.3119934256344425,-0.3608881493066015
perc,resp,1283,1,1.1.1left.bmp,1.1.1right.bmp,,ACC026,"[-2, -2, -2]","[-2, -2, -2]",[],match,1.0,,-0.4914793036047108,-1.0758635520256952,-0.534982825261109,2nd,1st,2nd,-0.3565949619983757,-1.2567155538844959,-0.3608881493066015
perc,resp,1092,1,2.2.2left.bmp,2.2.2right.bmp,,ACC026,"[0, 0, 0]","[0, 0, 0]",[],match,1.0,,0.07231656335111193,-0.011159502286380863,-0.6777747061426852,3rd,2nd,1st,0.32081910613025566,-0.3190259278282245,-1.2298267822308437
perc,resp,727,1,1.3.3left.bmp,1.3.3right.bmp,,ACC026,"[-2, 2, 2]","[-2, 2, 2]",[],match,1.0,,0.20181033657426264,-0.473822054445211,-0.7357253794791776,3rd,2nd,1st,0.32081910613025566,-0.3190259278282245,-1.2298267822308437
perc,resp,1054,1,3.3.3left.bmp,3.3.3right.bmp,,ACC026,"[2, 2, 2]","[2, 2, 2]",[],match,1.0,,2.4644250556561897,-0.5595816329828734,-0.8066927886800479,4th,2nd,1st,1.3039358516690727,-0.3190259278282245,-1.2298267822308437
perc,resp,891,1,3.3.1left.bmp,1.2.3right.bmp,,ACC026,"[2, 2, -2]","[-2, 0, 2]",[],non-match,0.1339745962155613,1,1.3637189037298714,0.3022054043177626,-0.5565401784462011,4th,3rd,2nd,1.3039358516690727,0.3119934256344425,-0.3608881493066015
perc,resp,1262,1,3.1.3left.bmp,3.1.3right.bmp,,ACC026,"[2, -2, 2]","[2, -2, 2]",[],match,1.0,,1.449965263054262,0.5738715287862832,-0.4105773843578604,4th,3rd,2nd,1.3039358516690727,0.3119934256344425,-0.3608881493066015
perc,resp,929,0,1.3.1left.bmp,2.3.2right.bmp,,ACC026,"[-2, 2, -2]","[0, 2, 0]",[],non-match,0.5917517095361369,3,1.0042900105438,-1.874386314243768,-0.5120342914342702,4th,1st,2nd,1.3039358516690727,-1.2567155538844959,-0.3608881493066015
perc,resp,1418,1,3.1.1left.bmp,2.1.2right.bmp,,ACC026,"[2, -2, -2]","[0, -2, 0]",[],non-match,0.5917517095361369,3,-0.316923838228081,0.11275254806700767,-0.7842439295813458,2nd,3rd,1st,-0.3565949619983757,0.3119934256344425,-1.2298267822308437
perc,resp,995,1,1.2.3left.bmp,3.2.3right.bmp,,ACC026,"[-2, 0, 2]","[2, 0, 2]",[],non-match,0.42264973081037416,2,-0.21194940040022037,1.0220342708147738,-0.9877224939422738,2nd,4th,1st,-0.3565949619983757,1.2636517204317879,-1.2298267822308437
perc,resp,952,1,2.3.1left.bmp,3.3.2right.bmp,,ACC026,"[0, 2, -2]","[2, 2, 0]",[],non-match,0.5917517095361369,3,-0.364178709826293,1.2419854698529411,-0.9165858899334866,2nd,4th,1st,-0.3565949619983757,1.2636517204317879,-1.2298267822308437
perc,resp,839,0,1.1.1left.bmp,1.3.1right.bmp,,ACC026,"[-2, -2, -2]","[-2, 2, -2]",[],non-match,0.42264973081037416,2,-0.9114959796395843,0.41941067705912144,-1.1751210430501011,1st,3rd,1st,-1.2686500760183241,0.3119934256344425,-1.2298267822308437
perc,resp,683,1,2.3.3left.bmp,2.3.3right.bmp,,ACC026,"[0, 2, 2]","[0, 2, 2]",[],match,1.0,,-0.37589078634342393,-0.36458687488242997,-1.1219088259618446,2nd,2nd,1st,-0.3565949619983757,-0.3190259278282245,-1.2298267822308437
perc,resp,888,1,3.1.2left.bmp,3.1.2right.bmp,,ACC026,"[2, -2, 0]","[2, -2, 0]",[],match,1.0,,0.6172270240105548,0.035866020819389235,-1.324539829755195,3rd,3rd,1st,0.32081910613025566,0.3119934256344425,-1.2298267822308437
perc,resp,924,0,2.2.3left.bmp,1.1.3right.bmp,,ACC026,"[0, 0, 2]","[-2, -2, 2]",[],non-match,0.5917517095361369,3,1.8084224109054376,-0.00037440658414414395,-1.1743533743743615,4th,2nd,1st,1.3039358516690727,-0.3190259278282245,-1.2298267822308437
perc,resp,808,1,3.1.1left.bmp,3.1.1right.bmp,,ACC026,"[2, -2, -2]","[2, -2, -2]",[],match,1.0,,1.1930544624338864,-0.3878268696188617,-1.1977758689190332,4th,2nd,1st,1.3039358516690727,-0.3190259278282245,-1.2298267822308437
perc,resp,783,1,1.2.1left.bmp,1.2.1right.bmp,,ACC026,"[-2, 0, -2]","[-2, 0, -2]",[],match,1.0,,-0.14546152851141425,0.7038381538950311,-1.2679967325508799,2nd,4th,1st,-0.3565949619983757,1.2636517204317879,-1.2298267822308437
perc,resp,810,1,1.3.2left.bmp,1.1.1right.bmp,,ACC026,"[-2, 2, 0]","[-2, -2, -2]",[],non-match,0.3545027756320971,2,1.610565399574978,0.8638543479079777,-1.1520002293294673,4th,4th,1st,1.3039358516690727,1.2636517204317879,-1.2298267822308437
perc,resp,874,1,3.2.1left.bmp,3.2.1right.bmp,,ACC026,"[2, 0, -2]","[2, 0, -2]",[],match,1.0,,-2.0155854235895565,-3.00772991652589,-0.8204262878148408,1st,1st,1st,-1.2686500760183241,-1.2567155538844959,-1.2298267822308437
perc,resp,679,1,3.1.3left.bmp,3.1.3right.bmp,,ACC026,"[2, -2, 2]","[2, -2, 2]",[],match,1.0,,1.485030075846159,-1.0948432132746169,-0.524040778560502,4th,1st,2nd,1.3039358516690727,-1.2567155538844959,-0.3608881493066015
perc,resp,764,1,2.1.3left.bmp,2.1.3right.bmp,,ACC026,"[0, -2, 2]","[0, -2, 2]",[],match,1.0,,1.4938049162591078,-0.16129224883554777,-0.5507452673558755,4th,2nd,2nd,1.3039358516690727,-0.3190259278282245,-0.3608881493066015
perc,resp,880,1,1.1.3left.bmp,1.1.3right.bmp,,ACC026,"[-2, -2, 2]","[-2, -2, 2]",[],match,1.0,,0.6181987150504606,0.0027107999609499744,-0.34761134546924777,3rd,2nd,2nd,0.32081910613025566,-0.3190259278282245,-0.3608881493066015
perc,resp,1209,1,3.2.3left.bmp,3.2.2right.bmp,,ACC026,"[2, 0, 2]","[2, 0, 0]",[],non-match,0.7113248654051871,4,0.5247454303032856,1.3780117383560848,-0.4163384097471757,3rd,4th,2nd,0.32081910613025566,1.2636517204317879,-0.3608881493066015
perc,resp,904,0,2.3.2left.bmp,3.2.1right.bmp,,ACC026,"[0, 2, 0]","[2, 0, -2]",[],non-match,0.5,3,-0.05012820311976569,0.6632928573216691,-0.5971684427799432,2nd,3rd,2nd,-0.3565949619983757,0.3119934256344425,-0.3608881493066015
perc,resp,913,1,1.3.3left.bmp,1.3.3right.bmp,,ACC026,"[-2, 2, 2]","[-2, 2, 2]",[],match,1.0,,0.21272856139001378,-1.328961906236869,-0.5614938350997427,3rd,1st,2nd,0.32081910613025566,-1.2567155538844959,-0.3608881493066015
perc,resp,748,1,1.1.2left.bmp,1.1.2right.bmp,,ACC026,"[-2, -2, 0]","[-2, -2, 0]",[],match,1.0,,-0.622673546008242,-1.1468740459042326,-0.3940227715519795,2nd,1st,2nd,-0.3565949619983757,-1.2567155538844959,-0.3608881493066015
perc,resp,651,1,1.2.2left.bmp,2.2.2right.bmp,,ACC026,"[-2, 0, 0]","[0, 0, 0]",[],non-match,0.7113248654051871,4,-1.7214332879960463,1.4176465592859278,-0.5001735086430481,1st,4th,2nd,-1.2686500760183241,1.2636517204317879,-0.3608881493066015
perc,resp,1098,1,2.1.2left.bmp,3.1.2right.bmp,,ACC026,"[0, -2, 0]","[2, -2, 0]",[],non-match,0.7113248654051871,4,-0.5132193512310611,-0.7799815489532541,0.009393118361820024,2nd,1st,3rd,-0.3565949619983757,-1.2567155538844959,0.29804768694965894
perc,resp,1219,1,3.2.2left.bmp,2.1.3right.bmp,,ACC026,"[2, 0, 0]","[0, -2, 2]",[],non-match,0.5,3,0.5303917902805486,2.343506376546417,-0.23068650180285416,3rd,4th,2nd,0.32081910613025566,1.2636517204317879,-0.3608881493066015
perc,resp,1076,0,3.3.1left.bmp,3.1.3right.bmp,,ACC026,"[2, 2, -2]","[2, -2, 2]",[],non-match,0.18350341907227385,1,0.3103487356372136,-0.9952136457201258,-0.16943802614256837,3rd,1st,2nd,0.32081910613025566,-1.2567155538844959,-0.3608881493066015
perc,resp,903,1,2.1.1left.bmp,2.1.1right.bmp,,ACC026,"[0, -2, -2]","[0, -2, -2]",[],match,1.0,,-0.9788251193690283,0.35822525586894555,-0.27779640767969316,1st,3rd,2nd,-1.2686500760183241,0.3119934256344425,-0.3608881493066015
perc,resp,578,0,3.3.3left.bmp,3.1.1right.bmp,,ACC026,"[2, 2, 2]","[2, -2, -2]",[],non-match,0.18350341907227385,1,0.5116223209334118,-0.23343538421019658,-0.754943353674261,3rd,2nd,1st,0.32081910613025566,-0.3190259278282245,-1.2298267822308437
perc,resp,1024,1,2.2.1left.bmp,2.2.1right.bmp,,ACC026,"[0, 0, -2]","[0, 0, -2]",[],match,1.0,,0.3133424353746297,-0.5558565534726966,-0.7188652017265352,3rd,2nd,1st,0.32081910613025566,-0.3190259278282245,-1.2298267822308437
perc,resp,1063,1,1.3.1left.bmp,1.3.1right.bmp,,ACC026,"[-2, 2, -2]","[-2, 2, -2]",[],match,1.0,,-0.3167644240956367,0.9816179682573347,-0.7137334744151246,2nd,4th,1st,-0.3565949619983757,1.2636517204317879,-1.2298267822308437
perc,resp,918,1,2.2.2left.bmp,2.3.1right.bmp,,ACC026,"[0, 0, 0]","[0, 2, -2]",[],non-match,0.5917517095361369,3,0.44350670858171287,0.6424628011184957,-0.8107186254184603,3rd,3rd,1st,0.32081910613025566,0.3119934256344425,-1.2298267822308437
perc,resp,1309,0,3.3.2left.bmp,2.1.3right.bmp,,ACC026,"[2, 2, 0]","[0, -2, 2]",[],non-match,0.29289321881345254,1,-1.8821233519179754,-0.28617275095087213,-0.9252461706434723,1st,2nd,1st,-1.2686500760183241,-0.3190259278282245,-1.2298267822308437
perc,resp,1198,1,2.2.3left.bmp,1.1.2right.bmp,,ACC026,"[0, 0, 2]","[-2, -2, 0]",[],non-match,0.5,3,0.38820071624775276,-0.3482314587813014,-0.7576176993614748,3rd,2nd,1st,0.32081910613025566,-0.3190259278282245,-1.2298267822308437
perc,resp,1549,1,1.1.1left.bmp,2.3.3right.bmp,,ACC026,"[-2, -2, -2]","[0, 2, 2]",[],non-match,0.1339745962155613,1,0.43006935492490767,-0.10585084859550734,-0.5424102350064932,3rd,2nd,2nd,0.32081910613025566,-0.3190259278282245,-0.3608881493066015
perc,resp,1357,1,3.1.3left.bmp,2.2.1right.bmp,,ACC026,"[2, -2, 2]","[0, 0, -2]",[],non-match,0.29289321881345254,1,0.9720983804138117,-1.3903602743364447,-0.36730136467399527,4th,1st,2nd,1.3039358516690727,-1.2567155538844959,-0.3608881493066015
perc,resp,1269,1,2.2.2left.bmp,1.2.1right.bmp,,ACC026,"[0, 0, 0]","[-2, 0, -2]",[],non-match,0.5917517095361369,3,-1.3374095800664156,-1.1065430559454046,-0.28399501919735276,1st,1st,2nd,-1.2686500760183241,-1.2567155538844959,-0.3608881493066015
perc,resp,1178,0,2.1.1left.bmp,2.1.1right.bmp,,ACC026,"[0, -2, -2]","[0, -2, -2]",[],match,1.0,,0.13705351774758895,-0.07117930735120916,-0.32620937033493225,3rd,2nd,2nd,0.32081910613025566,-0.3190259278282245,-0.3608881493066015
perc,resp,1137,1,1.2.3left.bmp,2.1.3right.bmp,,ACC026,"[-2, 0, 2]","[0, -2, 2]",[],non-match,0.5917517095361369,3,0.34821094764728466,2.309659030180022,-0.5489444936959643,3rd,4th,2nd,0.32081910613025566,1.2636517204317879,-0.3608881493066015
perc,resp,1164,0,2.2.1left.bmp,3.1.3right.bmp,,ACC026,"[0, 0, -2]","[2, -2, 2]",[],non-match,0.29289321881345254,1,0.2611116522542866,0.18003605457685434,-0.5657442353980695,3rd,3rd,2nd,0.32081910613025566,0.3119934256344425,-0.3608881493066015
perc,resp,759,0,1.1.3left.bmp,2.2.3right.bmp,,ACC026,"[-2, -2, 2]","[0, 0, 2]",[],non-match,0.5917517095361369,3,0.014316891872120933,1.6013572739695607,-1.041782799899379,3rd,4th,1st,0.32081910613025566,1.2636517204317879,-1.2298267822308437
perc,resp,865,0,3.3.1left.bmp,3.1.1right.bmp,,ACC026,"[2, 2, -2]","[2, -2, -2]",[],non-match,0.42264973081037416,2,-1.5795078182851807,-1.399248474592597,-0.9297164950024246,1st,1st,1st,-1.2686500760183241,-1.2567155538844959,-1.2298267822308437
perc,resp,810,0,3.1.2left.bmp,3.2.2right.bmp,,ACC026,"[2, -2, 0]","[2, 0, 0]",[],non-match,0.7113248654051871,4,-0.013733875917286744,-0.34173619718478626,-1.1523292425927776,2nd,2nd,1st,-0.3565949619983757,-0.3190259278282245,-1.2298267822308437
perc,resp,1179,1,2.1.2left.bmp,2.1.2right.bmp,,ACC026,"[0, -2, 0]","[0, -2, 0]",[],match,1.0,,-0.6698013784922595,-1.2042246430064456,-1.0299345146074772,1st,1st,1st,-1.2686500760183241,-1.2567155538844959,-1.2298267822308437
perc,resp,1280,0,2.3.2left.bmp,2.3.2right.bmp,,ACC026,"[0, 2, 0]","[0, 2, 0]",[],match,1.0,,-0.7925821005659053,1.0577672648046736,-1.308077664533512,1st,4th,1st,-1.2686500760183241,1.2636517204317879,-1.2298267822308437
perc,resp,925,1,1.3.3left.bmp,1.3.3right.bmp,,ACC026,"[-2, 2, 2]","[-2, 2, 2]",[],match,1.0,,0.8761172068935779,1.6217494908815984,-1.1961464427715143,4th,4th,1st,1.3039358516690727,1.2636517204317879,-1.2298267822308437
perc,resp,762,1,3.2.3left.bmp,3.2.3right.bmp,,ACC026,"[2, 0, 2]","[2, 0, 2]",[],match,1.0,,1.2378383040065328,0.9583611160247825,-1.0222161662105338,4th,4th,1st,1.3039358516690727,1.2636517204317879,-1.2298267822308437
perc,resp,716,0,3.2.2left.bmp,3.3.3right.bmp,,ACC026,"[2, 0, 0]","[2, 2, 2]",[],non-match,0.5917517095361369,3,1.1733101082365915,0.8604964030219306,-1.299326972179447,4th,4th,1st,1.3039358516690727,1.2636517204317879,-1.2298267822308437
perc,resp,728,1,3.1.1left.bmp,1.2.3right.bmp,,ACC026,"[2, -2, -2]","[-2, 0, 2]",[],non-match,0.1339745962155613,1,1.1767166363090347,0.43302783210963963,-1.1470357439569794,4th,3rd,1st,1.3039358516690727,0.3119934256344425,-1.2298267822308437
perc,resp,986,1,2.3.3left.bmp,2.3.3right.bmp,,ACC026,"[0, 2, 2]","[0, 2, 2]",[],match,1.0,,1.0578842457694395,0.07202609036134752,-0.8139442560603625,4th,3rd,1st,1.3039358516690727,0.3119934256344425,-1.2298267822308437
perc,resp,1245,1,1.2.2left.bmp,1.1.3right.bmp,,ACC026,"[-2, 0, 0]","[-2, -2, 2]",[],non-match,0.5917517095361369,3,2.5735200184015223,-0.6284030158322336,-0.6251411239978478,4th,2nd,2nd,1.3039358516690727,-0.3190259278282245,-0.3608881493066015
perc,resp,1142,1,3.3.3left.bmp,2.1.1right.bmp,,ACC026,"[2, 2, 2]","[0, -2, -2]",[],non-match,0.1339745962155613,1,0.3810507042486298,0.9884596627893315,-0.49722870179712636,3rd,4th,2nd,0.32081910613025566,1.2636517204317879,-0.3608881493066015
perc,resp,1283,1,1.2.1left.bmp,3.2.3right.bmp,,ACC026,"[-2, 0, -2]","[2, 0, 2]",[],non-match,0.18350341907227385,1,1.1908565417723667,1.1350074577648241,-0.41416650684764644,4th,4th,2nd,1.3039358516690727,1.2636517204317879,-0.3608881493066015
perc,resp,910,1,1.3.2left.bmp,1.3.2right.bmp,,ACC026,"[-2, 2, 0]","[-2, 2, 0]",[],match,1.0,,-0.38405995750324406,1.4289795805630885,-0.4704538782952139,2nd,4th,2nd,-0.3565949619983757,1.2636517204317879,-0.3608881493066015
perc,resp,795,1,3.2.1left.bmp,3.2.1right.bmp,,ACC026,"[2, 0, -2]","[2, 0, -2]",[],match,1.0,,-0.1598724555899475,0.9694855257874493,-0.3863073069091882,2nd,4th,2nd,-0.3565949619983757,1.2636517204317879,-0.3608881493066015
perc,resp,859,1,1.1.2left.bmp,2.1.2right.bmp,,ACC026,"[-2, -2, 0]","[0, -2, 0]",[],non-match,0.7113248654051871,4,1.8801423176846044,0.617055706914544,-0.8021138481615153,4th,3rd,1st,1.3039358516690727,0.3119934256344425,-1.2298267822308437
perc,resp,1017,1,3.3.2left.bmp,1.3.3right.bmp,,ACC026,"[2, 2, 0]","[-2, 2, 2]",[],non-match,0.3545027756320971,2,-0.5834409321382046,-1.2955611980911719,-0.6264336510689038,2nd,1st,2nd,-0.3565949619983757,-1.2567155538844959,-0.3608881493066015
perc,resp,1025,1,2.3.1left.bmp,2.3.1right.bmp,,ACC026,"[0, 2, -2]","[0, 2, -2]",[],match,1.0,,2.1696431135134002,-0.29880431198833224,-0.6805514670453882,4th,2nd,1st,1.3039358516690727,-0.3190259278282245,-1.2298267822308437
perc,resp,1364,1,1.3.1left.bmp,1.3.1right.bmp,,ACC026,"[-2, 2, -2]","[-2, 2, -2]",[],match,1.0,,-0.18306613414164669,1.1020381819227172,-0.7038390484736397,2nd,4th,1st,-0.3565949619983757,1.2636517204317879,-1.2298267822308437
perc,resp,950,0,2.1.3left.bmp,2.1.3right.bmp,,ACC026,"[0, -2, 2]","[0, -2, 2]",[],match,1.0,,-0.2697665683201681,-0.9454286757915937,-0.6124629924485,2nd,1st,2nd,-0.3565949619983757,-1.2567155538844959,-0.3608881493066015
perc,resp,827,1,3.1.2left.bmp,1.2.3right.bmp,,ACC026,"[2, -2, 0]","[-2, 0, 2]",[],non-match,0.29289321881345254,1,0.7119155315341464,-1.905325250437101,-0.9964071675083006,4th,1st,1st,1.3039358516690727,-1.2567155538844959,-1.2298267822308437
perc,resp,1558,0,3.3.1left.bmp,3.2.2right.bmp,,ACC026,"[2, 2, -2]","[2, 0, 0]",[],non-match,0.5917517095361369,3,-1.2713924065034812,-0.903813469249069,-1.0153447871505277,1st,1st,1st,-1.2686500760183241,-1.2567155538844959,-1.2298267822308437
perc,resp,795,1,2.3.3left.bmp,2.3.3right.bmp,,ACC026,"[0, 2, 2]","[0, 2, 2]",[],match,1.0,,0.01138350567045328,-0.6840053026484259,-1.184670678304469,3rd,1st,1st,0.32081910613025566,-1.2567155538844959,-1.2298267822308437
perc,resp,1160,1,2.2.3left.bmp,2.2.3right.bmp,,ACC026,"[0, 0, 2]","[0, 0, 2]",[],match,1.0,,0.9392495625465691,0.3780054773306008,-1.132802079593118,4th,3rd,1st,1.3039358516690727,0.3119934256344425,-1.2298267822308437
perc,resp,935,1,2.2.2left.bmp,1.2.2right.bmp,,ACC026,"[0, 0, 0]","[-2, 0, 0]",[],non-match,0.7113248654051871,4,-1.191359975662129,-1.7916430244218322,-1.2615658573939175,1st,1st,1st,-1.2686500760183241,-1.2567155538844959,-1.2298267822308437
perc,resp,924,1,1.2.3left.bmp,1.2.3right.bmp,,ACC026,"[-2, 0, 2]","[-2, 0, 2]",[],match,1.0,,-1.3676578927245298,-2.003215634993247,-1.495561443998476,1st,1st,1st,-1.2686500760183241,-1.2567155538844959,-1.2298267822308437
perc,resp,1001,0,3.1.3left.bmp,3.3.1right.bmp,,ACC026,"[2, -2, 2]","[2, 2, -2]",[],non-match,0.18350341907227385,1,-0.21249348346428779,1.3337513571731174,-1.7467599630145811,2nd,4th,1st,-0.3565949619983757,1.2636517204317879,-1.2298267822308437
perc,resp,1572,1,3.1.1left.bmp,3.1.1right.bmp,,ACC026,"[2, -2, -2]","[2, -2, -2]",[],match,1.0,,1.816118851622298,1.0647818625739083,-1.9030094618456532,4th,4th,1st,1.3039358516690727,1.2636517204317879,-1.2298267822308437
perc,resp,707,0,3.2.1left.bmp,2.3.2right.bmp,,ACC026,"[2, 0, -2]","[0, 2, 0]",[],non-match,0.5,3,-0.030587970376072405,0.9390624152715757,-1.8064427629119733,2nd,4th,1st,-0.3565949619983757,1.2636517204317879,-1.2298267822308437
perc,resp,994,1,1.3.2left.bmp,1.3.2right.bmp,,ACC026,"[-2, 2, 0]","[-2, 2, 0]",[],match,1.0,,1.2904156285712092,-0.8033411123150422,-1.9312858558872408,4th,1st,1st,1.3039358516690727,-1.2567155538844959,-1.2298267822308437
perc,resp,877,1,1.3.1left.bmp,1.3.1right.bmp,,ACC026,"[-2, 2, -2]","[-2, 2, -2]",[],match,1.0,,1.3001843710338412,0.4676412263825215,-2.120732828239414,4th,3rd,1st,1.3039358516690727,0.3119934256344425,-1.2298267822308437
perc,resp,864,1,1.2.2left.bmp,1.2.2right.bmp,,ACC026,"[-2, 0, 0]","[-2, 0, 0]",[],match,1.0,,1.988221385464474,0.05189146282415468,-1.9014242006039677,4th,3rd,1st,1.3039358516690727,0.3119934256344425,-1.2298267822308437
perc,resp,963,1,3.2.3left.bmp,3.2.3right.bmp,,ACC026,"[2, 0, 2]","[2, 0, 2]",[],match,1.0,,-1.3077186663537712,0.5527597359840928,-1.692008918839711,1st,3rd,1st,-1.2686500760183241,0.3119934256344425,-1.2298267822308437
perc,resp,880,0,1.1.2left.bmp,2.3.2right.bmp,,ACC026,"[-2, -2, 0]","[0, 2, 0]",[],non-match,0.3545027756320971,2,-0.4198371080526732,-0.09262249802477354,-2.0466410028381796,2nd,2nd,1st,-0.3565949619983757,-0.3190259278282245,-1.2298267822308437
perc,resp,994,0,1.2.1left.bmp,1.3.3right.bmp,,ACC026,"[-2, 0, -2]","[-2, 2, 2]",[],non-match,0.3545027756320971,2,1.139134303014944,0.8603213356466769,-2.3288829203024894,4th,4th,1st,1.3039358516690727,1.2636517204317879,-1.2298267822308437
perc,resp,671,1,2.3.1left.bmp,2.3.1right.bmp,,ACC026,"[0, 2, -2]","[0, 2, -2]",[],match,1.0,,1.1264416453013526,0.13831443509006766,-2.559349674405275,4th,3rd,1st,1.3039358516690727,0.3119934256344425,-1.2298267822308437
perc,resp,1138,1,3.3.2left.bmp,1.3.2right.bmp,,ACC026,"[2, 2, 0]","[-2, 2, 0]",[],non-match,0.42264973081037416,2,-0.07471093599828149,1.1426127513102897,-2.508808882989936,2nd,4th,1st,-0.3565949619983757,1.2636517204317879,-1.2298267822308437
perc,resp,885,1,1.1.1left.bmp,1.1.1right.bmp,,ACC026,"[-2, -2, -2]","[-2, -2, -2]",[],match,1.0,,0.8348227429596659,-1.7761499532500042,-2.80352783823188,4th,1st,1st,1.3039358516690727,-1.2567155538844959,-1.2298267822308437
perc,resp,792,0,2.3.2left.bmp,2.3.3right.bmp,,ACC026,"[0, 2, 0]","[0, 2, 2]",[],non-match,0.7113248654051871,4,1.382778222716596,-1.0910560429362455,-2.8857162141309294,4th,1st,1st,1.3039358516690727,-1.2567155538844959,-1.2298267822308437
perc,resp,866,1,3.3.3left.bmp,1.3.1right.bmp,,ACC026,"[2, 2, 2]","[-2, 2, -2]",[],non-match,0.18350341907227385,1,0.01864333048168255,0.1995105630683199,-2.517436466344908,3rd,3rd,1st,0.32081910613025566,0.3119934256344425,-1.2298267822308437
perc,resp,933,1,2.2.1left.bmp,2.2.1right.bmp,,ACC026,"[0, 0, -2]","[0, 0, -2]",[],match,1.0,,-1.4000217604939937,0.581564925529379,-2.604452710923086,1st,3rd,1st,-1.2686500760183241,0.3119934256344425,-1.2298267822308437
