mode,type,rt,acc,item_1,item_2,item_cue,subj_idx,item_1_number,item_2_number,item_cue_number,trial_type,similarity,similarity_bin,ams,pams,slps,ams_quantile,pams_quantile,slps_quantile,ams_bin,pam_bin,slp_bin
perc,resp,1603,1,1.3.3left.bmp,1.3.3right.bmp,,ACC022,"[-2, 2, 2]","[-2, 2, 2]",[],match,1.0,,-1.5234070414494487,1.828436340349976,-0.3831158315526547,1st,4th,2nd,-1.2505536033097449,1.27697607716485,-0.2967337373597371
perc,resp,995,1,3.2.2left.bmp,3.2.2right.bmp,,ACC022,"[2, 0, 0]","[2, 0, 0]",[],match,1.0,,1.5606062276536918,-1.1311036235509118,-0.3448308592322408,4th,1st,2nd,1.2940067078399402,-1.1847102424963298,-0.2967337373597371
perc,resp,956,0,2.3.1left.bmp,3.3.1right.bmp,,ACC022,"[0, 2, -2]","[2, 2, -2]",[],non-match,0.7113248654051871,4,-0.34898771267986606,-0.19670744544185143,-0.3484699028796764,2nd,2nd,2nd,-0.39493105355380387,-0.35796048020515303,-0.2967337373597371
perc,resp,1077,1,3.1.3left.bmp,1.3.2right.bmp,,ACC022,"[2, -2, 2]","[-2, 2, 0]",[],non-match,0.1339745962155613,1,0.4928047919462721,-0.1997345881214761,-0.43146752814161315,3rd,2nd,2nd,0.35147794902360857,-0.35796048020515303,-0.2967337373597371
perc,resp,1180,1,3.2.1left.bmp,2.3.3right.bmp,,ACC022,"[2, 0, -2]","[0, 2, 2]",[],non-match,0.29289321881345254,1,0.6147762251400553,1.536688306101458,-0.9177268935103813,3rd,4th,1st,0.35147794902360857,1.27697607716485,-1.368265897666624
perc,resp,1113,1,1.3.1left.bmp,1.3.1right.bmp,,ACC022,"[-2, 2, -2]","[-2, 2, -2]",[],match,1.0,,-1.3003441297356848,-0.49813058037126745,-0.6230292336769986,1st,2nd,2nd,-1.2505536033097449,-0.35796048020515303,-0.2967337373597371
perc,resp,1274,0,2.1.2left.bmp,3.1.2right.bmp,,ACC022,"[0, -2, 0]","[2, -2, 0]",[],non-match,0.7113248654051871,4,-0.6411014097285255,0.6185409006212018,-0.9141272295313189,2nd,4th,1st,-0.39493105355380387,1.27697607716485,-1.368265897666624
perc,resp,1306,1,1.2.1left.bmp,1.2.1right.bmp,,ACC022,"[-2, 0, -2]","[-2, 0, -2]",[],match,1.0,,-1.5078038584633175,0.20611738390440562,-0.8522280202983405,1st,3rd,1st,-1.2505536033097449,0.2656946455366328,-1.368265897666624
perc,resp,938,1,3.1.1left.bmp,3.1.1right.bmp,,ACC022,"[2, -2, -2]","[2, -2, -2]",[],match,1.0,,1.36538164501748,1.1098760230928586,-0.9406347302165873,4th,4th,1st,1.2940067078399402,1.27697607716485,-1.368265897666624
perc,resp,1029,1,2.2.1left.bmp,1.1.2right.bmp,,ACC022,"[0, 0, -2]","[-2, -2, 0]",[],non-match,0.5,3,0.5713886005881289,0.03281412326614142,-0.767349613986028,3rd,3rd,1st,0.35147794902360857,0.2656946455366328,-1.368265897666624
perc,resp,1261,1,2.1.1left.bmp,1.1.1right.bmp,,ACC022,"[0, -2, -2]","[-2, -2, -2]",[],non-match,0.7113248654051871,4,-0.8868899067089188,-0.23089935089334057,-0.8288430012031197,1st,2nd,1st,-1.2505536033097449,-0.35796048020515303,-1.368265897666624
perc,resp,848,1,2.3.3left.bmp,2.3.3right.bmp,,ACC022,"[0, 2, 2]","[0, 2, 2]",[],match,1.0,,-0.9781787745669001,-0.94110699357258,-0.5298468010574293,1st,1st,2nd,-1.2505536033097449,-1.1847102424963298,-0.2967337373597371
perc,resp,1089,0,1.1.3left.bmp,1.3.1right.bmp,,ACC022,"[-2, -2, 2]","[-2, 2, -2]",[],non-match,0.18350341907227385,1,-0.7720360477264251,-1.1450121055963944,-0.33216137360034736,1st,1st,2nd,-1.2505536033097449,-1.1847102424963298,-0.2967337373597371
perc,resp,1050,1,1.1.2left.bmp,1.1.2right.bmp,,ACC022,"[-2, -2, 0]","[-2, -2, 0]",[],match,1.0,,-0.6163126940618641,-0.004038420877483048,-0.027373592662508463,2nd,3rd,2nd,-0.39493105355380387,0.2656946455366328,-0.2967337373597371
perc,resp,909,1,3.1.2left.bmp,3.1.2right.bmp,,ACC022,"[2, -2, 0]","[2, -2, 0]",[],match,1.0,,-0.4538384903781758,0.004615260564719147,-0.14612976651796372,2nd,3rd,2nd,-0.39493105355380387,0.2656946455366328,-0.2967337373597371
perc,resp,1254,0,1.2.2left.bmp,2.3.1right.bmp,,ACC022,"[-2, 0, 0]","[0, 2, -2]",[],non-match,0.5,3,-0.2782449884759154,-1.0581137414564492,0.025840128753612555,2nd,1st,2nd,-0.39493105355380387,-1.1847102424963298,-0.2967337373597371
perc,resp,895,1,3.2.3left.bmp,3.2.3right.bmp,,ACC022,"[2, 0, 2]","[2, 0, 2]",[],match,1.0,,0.7599414855930737,-1.47164214425864,0.028261719518807356,4th,1st,2nd,1.2940067078399402,-1.1847102424963298,-0.2967337373597371
perc,resp,974,1,3.3.3left.bmp,1.3.3right.bmp,,ACC022,"[2, 2, 2]","[-2, 2, 2]",[],non-match,0.42264973081037416,2,-0.012832463697560597,1.1290844819624708,0.02819051048946059,3rd,4th,2nd,0.35147794902360857,1.27697607716485,-0.2967337373597371
perc,resp,953,0,1.2.3left.bmp,1.2.1right.bmp,,ACC022,"[-2, 0, 2]","[-2, 0, -2]",[],non-match,0.42264973081037416,2,-1.0246024330059407,-1.5464519226997189,0.07546024984174399,1st,1st,2nd,-1.2505536033097449,-1.1847102424963298,-0.2967337373597371
perc,resp,1244,1,1.1.1left.bmp,3.1.2right.bmp,,ACC022,"[-2, -2, -2]","[2, -2, 0]",[],non-match,0.3545027756320971,2,-0.08655963441282478,-0.5627719304409402,0.09766952906049241,2nd,2nd,2nd,-0.39493105355380387,-0.35796048020515303,-0.2967337373597371
perc,resp,935,1,1.3.2left.bmp,1.3.2right.bmp,,ACC022,"[-2, 2, 0]","[-2, 2, 0]",[],match,1.0,,-1.6797615515558877,-1.657224072204069,0.1122971918788997,1st,1st,3rd,-1.2505536033097449,-1.1847102424963298,0.47303708113182286
perc,resp,1258,1,3.3.1left.bmp,3.3.1right.bmp,,ACC022,"[2, 2, -2]","[2, 2, -2]",[],match,1.0,,0.7203638711729379,0.21905200210104694,0.2215304609965761,4th,3rd,3rd,1.2940067078399402,0.2656946455366328,0.47303708113182286
perc,resp,990,1,3.3.2left.bmp,3.3.2right.bmp,,ACC022,"[2, 2, 0]","[2, 2, 0]",[],match,1.0,,-1.9560934258724816,0.6424860330654992,0.31231700144749197,1st,4th,3rd,-1.2505536033097449,1.27697607716485,0.47303708113182286
perc,resp,959,1,2.3.2left.bmp,1.1.2right.bmp,,ACC022,"[0, 2, 0]","[-2, -2, 0]",[],non-match,0.3545027756320971,2,0.8955913581329045,-0.04027378059128098,0.2869277826878832,4th,2nd,3rd,1.2940067078399402,-0.35796048020515303,0.47303708113182286
perc,resp,1382,1,2.1.3left.bmp,3.2.1right.bmp,,ACC022,"[0, -2, 2]","[2, 0, -2]",[],non-match,0.29289321881345254,1,-0.6547234380378166,0.5403066582768529,0.37483569016729273,2nd,3rd,3rd,-0.39493105355380387,0.2656946455366328,0.47303708113182286
perc,resp,1639,1,2.2.2left.bmp,2.2.2right.bmp,,ACC022,"[0, 0, 0]","[0, 0, 0]",[],match,1.0,,-0.38666357674613433,-0.30382110478362184,0.5759037457322719,2nd,2nd,3rd,-0.39493105355380387,-0.35796048020515303,0.47303708113182286
perc,resp,868,1,2.3.3left.bmp,2.3.3right.bmp,,ACC022,"[0, 2, 2]","[0, 2, 2]",[],match,1.0,,-0.5077103606938009,0.02780745599485258,0.4935772886137236,2nd,3rd,3rd,-0.39493105355380387,0.2656946455366328,0.47303708113182286
perc,resp,1310,1,1.3.1left.bmp,1.3.1right.bmp,,ACC022,"[-2, 2, -2]","[-2, 2, -2]",[],match,1.0,,-0.6842666964332815,-1.2713525574042184,0.40183394030613473,2nd,1st,3rd,-0.39493105355380387,-1.1847102424963298,0.47303708113182286
perc,resp,868,1,2.1.1left.bmp,1.1.3right.bmp,,ACC022,"[0, -2, -2]","[-2, -2, 2]",[],non-match,0.3545027756320971,2,0.6398649534734462,-0.12904371103056125,0.23490969200508485,3rd,2nd,3rd,0.35147794902360857,-0.35796048020515303,0.47303708113182286
perc,resp,1018,0,1.2.2left.bmp,2.2.1right.bmp,,ACC022,"[-2, 0, 0]","[0, 0, -2]",[],non-match,0.5917517095361369,3,-1.2297425919088287,-1.6086668562681317,0.015506631633672663,1st,1st,2nd,-1.2505536033097449,-1.1847102424963298,-0.2967337373597371
perc,resp,817,0,1.3.2left.bmp,2.1.2right.bmp,,ACC022,"[-2, 2, 0]","[0, -2, 0]",[],non-match,0.3545027756320971,2,-0.805053306098042,0.3735592678042997,-0.0022402797905482406,1st,3rd,2nd,-1.2505536033097449,0.2656946455366328,-0.2967337373597371
perc,resp,1136,1,1.3.3left.bmp,1.3.3right.bmp,,ACC022,"[-2, 2, 2]","[-2, 2, 2]",[],match,1.0,,-1.7213232064821384,-1.4107781028506228,0.18079175607335304,1st,1st,3rd,-1.2505536033097449,-1.1847102424963298,0.47303708113182286
perc,resp,1719,1,3.1.1left.bmp,3.1.1right.bmp,,ACC022,"[2, -2, -2]","[2, -2, -2]",[],match,1.0,,-0.8940144309005037,-0.9879525513564658,0.2994979890825374,1st,1st,3rd,-1.2505536033097449,-1.1847102424963298,0.47303708113182286
perc,resp,1179,1,2.2.1left.bmp,2.2.2right.bmp,,ACC022,"[0, 0, -2]","[0, 0, 0]",[],non-match,0.7113248654051871,4,0.1504553137110923,1.3434339499816919,0.5639128152921106,3rd,4th,3rd,0.35147794902360857,1.27697607716485,0.47303708113182286
perc,resp,1522,1,2.1.3left.bmp,3.1.2right.bmp,,ACC022,"[0, -2, 2]","[2, -2, 0]",[],non-match,0.5917517095361369,3,-0.8433619219277567,0.6037515382495934,0.6912300594828403,1st,4th,3rd,-1.2505536033097449,1.27697607716485,0.47303708113182286
perc,resp,1515,0,2.2.3left.bmp,2.3.2right.bmp,,ACC022,"[0, 0, 2]","[0, 2, 0]",[],non-match,0.5917517095361369,3,1.1608155294638876,0.48076630253191527,0.5553202424342537,4th,3rd,3rd,1.2940067078399402,0.2656946455366328,0.47303708113182286
perc,resp,944,1,3.3.1left.bmp,3.3.1right.bmp,,ACC022,"[2, 2, -2]","[2, 2, -2]",[],match,1.0,,-0.3115716044439931,0.4040012110425655,0.7198748619314341,2nd,3rd,3rd,-0.39493105355380387,0.2656946455366328,0.47303708113182286
perc,resp,1185,0,2.3.1left.bmp,2.3.1right.bmp,,ACC022,"[0, 2, -2]","[0, 2, -2]",[],match,1.0,,-0.6839387511525197,-0.5948060135765936,0.774432931002587,2nd,2nd,3rd,-0.39493105355380387,-0.35796048020515303,0.47303708113182286
perc,resp,1428,1,3.1.3left.bmp,3.1.3right.bmp,,ACC022,"[2, -2, 2]","[2, -2, 2]",[],match,1.0,,-1.5409499202874064,-0.709776640636731,0.8347253754305297,1st,1st,4th,-1.2505536033097449,-1.1847102424963298,1.1919625538945382
perc,resp,1169,1,2.3.2left.bmp,2.3.3right.bmp,,ACC022,"[0, 2, 0]","[0, 2, 2]",[],non-match,0.7113248654051871,4,-0.21796772052415958,0.21899529390808442,0.7670129865122947,2nd,3rd,3rd,-0.39493105355380387,0.2656946455366328,0.47303708113182286
perc,resp,1340,1,1.1.3left.bmp,1.2.1right.bmp,,ACC022,"[-2, -2, 2]","[-2, 0, -2]",[],non-match,0.3545027756320971,2,0.7021861744088069,-0.4203577288723269,0.8444475827194187,3rd,2nd,4th,0.35147794902360857,-0.35796048020515303,1.1919625538945382
perc,resp,1231,1,3.2.3left.bmp,3.2.3right.bmp,,ACC022,"[2, 0, 2]","[2, 0, 2]",[],match,1.0,,-0.5841229242678713,-2.2417910151660787,0.8283669640816879,2nd,1st,4th,-0.39493105355380387,-1.1847102424963298,1.1919625538945382
perc,resp,1200,0,1.2.3left.bmp,2.2.3right.bmp,,ACC022,"[-2, 0, 2]","[0, 0, 2]",[],non-match,0.7113248654051871,4,-0.7485830739644785,-1.6723685465421718,1.034589945009041,2nd,1st,4th,-0.39493105355380387,-1.1847102424963298,1.1919625538945382
perc,resp,1119,1,2.2.2left.bmp,3.3.1right.bmp,,ACC022,"[0, 0, 0]","[2, 2, -2]",[],non-match,0.5,3,1.2666923386671187,-0.6701583265212241,0.8027764176010693,4th,2nd,3rd,1.2940067078399402,-0.35796048020515303,0.47303708113182286
perc,resp,1202,0,1.2.1left.bmp,2.2.1right.bmp,,ACC022,"[-2, 0, -2]","[0, 0, -2]",[],non-match,0.7113248654051871,4,-0.45374945643570985,-0.625241631024332,1.149500018136975,2nd,2nd,4th,-0.39493105355380387,-0.35796048020515303,1.1919625538945382
perc,resp,871,0,3.3.2left.bmp,2.1.1right.bmp,,ACC022,"[2, 2, 0]","[0, -2, -2]",[],non-match,0.29289321881345254,1,-0.14321759647659377,0.44362260408266496,1.0937733026398224,2nd,3rd,4th,-0.39493105355380387,0.2656946455366328,1.1919625538945382
perc,resp,1077,1,3.2.1left.bmp,3.2.1right.bmp,,ACC022,"[2, 0, -2]","[2, 0, -2]",[],match,1.0,,-0.9140401987266366,0.6524713214040537,1.0617562645783793,1st,4th,4th,-1.2505536033097449,1.27697607716485,1.1919625538945382
perc,resp,1014,0,3.2.2left.bmp,3.2.2right.bmp,,ACC022,"[2, 0, 0]","[2, 0, 0]",[],match,1.0,,0.2750499739785153,3.671920608177044,1.4212137087458319,3rd,4th,4th,0.35147794902360857,1.27697607716485,1.1919625538945382
perc,resp,1317,1,3.1.2left.bmp,3.1.3right.bmp,,ACC022,"[2, -2, 0]","[2, -2, 2]",[],non-match,0.7113248654051871,4,-0.6667940777618865,-0.6122878115343181,1.4532161011682532,2nd,2nd,4th,-0.39493105355380387,-0.35796048020515303,1.1919625538945382
perc,resp,1448,1,1.1.2left.bmp,1.1.2right.bmp,,ACC022,"[-2, -2, 0]","[-2, -2, 0]",[],match,1.0,,-0.7219638763453334,-1.6432008302419292,1.3069297179959463,2nd,1st,4th,-0.39493105355380387,-1.1847102424963298,1.1919625538945382
perc,resp,1844,0,2.1.2left.bmp,2.1.2right.bmp,,ACC022,"[0, -2, 0]","[0, -2, 0]",[],match,1.0,,0.1522785743272563,-2.4154962539014364,1.2102421469919122,3rd,1st,4th,0.35147794902360857,-1.1847102424963298,1.1919625538945382
perc,resp,983,1,1.1.1left.bmp,3.2.1right.bmp,,ACC022,"[-2, -2, -2]","[2, 0, -2]",[],non-match,0.3545027756320971,2,1.1313924217835432,0.544821817222166,1.1753868255630773,4th,3rd,4th,1.2940067078399402,0.2656946455366328,1.1919625538945382
perc,resp,1142,1,1.2.3left.bmp,1.2.3right.bmp,,ACC022,"[-2, 0, 2]","[-2, 0, 2]",[],match,1.0,,-0.9927985499023084,-0.8358840178528466,1.1120876516058682,1st,1st,4th,-1.2505536033097449,-1.1847102424963298,1.1919625538945382
perc,resp,1275,1,1.1.3left.bmp,1.1.3right.bmp,,ACC022,"[-2, -2, 2]","[-2, -2, 2]",[],match,1.0,,-0.21111765128962148,1.2812705744051047,0.9797176402467926,2nd,4th,4th,-0.39493105355380387,1.27697607716485,1.1919625538945382
perc,resp,1376,1,2.1.2left.bmp,2.1.2right.bmp,,ACC022,"[0, -2, 0]","[0, -2, 0]",[],match,1.0,,-1.9085225430253656,-1.2058344135810617,1.118743809951103,1st,1st,4th,-1.2505536033097449,-1.1847102424963298,1.1919625538945382
perc,resp,651,1,1.1.2left.bmp,3.2.2right.bmp,,ACC022,"[-2, -2, 0]","[2, 0, 0]",[],non-match,0.3545027756320971,2,-0.03314391064927675,-0.9594545851259232,1.533136093880463,2nd,1st,4th,-0.39493105355380387,-1.1847102424963298,1.1919625538945382
perc,resp,1132,1,1.3.3left.bmp,1.3.3right.bmp,,ACC022,"[-2, 2, 2]","[-2, 2, 2]",[],match,1.0,,-1.5080305005893146,-1.1056065451702808,1.1919770551549573,1st,1st,4th,-1.2505536033097449,-1.1847102424963298,1.1919625538945382
perc,resp,1462,1,1.2.1left.bmp,1.3.2right.bmp,,ACC022,"[-2, 0, -2]","[-2, 2, 0]",[],non-match,0.5917517095361369,3,-1.0333341780346013,-0.7271545948649923,1.1745041353396115,1st,1st,4th,-1.2505536033097449,-1.1847102424963298,1.1919625538945382
perc,resp,1081,1,2.1.3left.bmp,2.1.3right.bmp,,ACC022,"[0, -2, 2]","[0, -2, 2]",[],match,1.0,,0.39443065652031006,0.03956262215049513,1.1215045667766421,3rd,3rd,4th,0.35147794902360857,0.2656946455366328,1.1919625538945382
perc,resp,950,1,2.1.1left.bmp,1.1.1right.bmp,,ACC022,"[0, -2, -2]","[-2, -2, -2]",[],non-match,0.7113248654051871,4,1.1996102300152314,1.483250490861214,1.1532251606381436,4th,4th,4th,1.2940067078399402,1.27697607716485,1.1919625538945382
perc,resp,862,1,2.3.2left.bmp,2.3.2right.bmp,,ACC022,"[0, 2, 0]","[0, 2, 0]",[],match,1.0,,-0.9834498023855828,-0.9593819225055222,1.0721766277974323,1st,1st,4th,-1.2505536033097449,-1.1847102424963298,1.1919625538945382
perc,resp,709,1,2.2.3left.bmp,3.1.1right.bmp,,ACC022,"[0, 0, 2]","[2, -2, -2]",[],non-match,0.29289321881345254,1,1.3608531311896601,1.031017038958318,1.3449828138235795,4th,4th,4th,1.2940067078399402,1.27697607716485,1.1919625538945382
perc,resp,1270,1,3.3.3left.bmp,3.3.3right.bmp,,ACC022,"[2, 2, 2]","[2, 2, 2]",[],match,1.0,,0.40085987152172803,1.6502007544742379,1.1322189516441346,3rd,4th,4th,0.35147794902360857,1.27697607716485,1.1919625538945382
perc,resp,1049,1,3.1.3left.bmp,1.1.3right.bmp,,ACC022,"[2, -2, 2]","[-2, -2, 2]",[],non-match,0.42264973081037416,2,1.8325929048501441,0.7193410851334185,0.8336339570196114,4th,4th,4th,1.2940067078399402,1.27697607716485,1.1919625538945382
perc,resp,1098,1,3.2.3left.bmp,3.2.3right.bmp,,ACC022,"[2, 0, 2]","[2, 0, 2]",[],match,1.0,,0.4565817371344287,1.0325793412773745,0.4267245056318067,3rd,4th,3rd,0.35147794902360857,1.27697607716485,0.47303708113182286
perc,resp,1049,1,3.2.2left.bmp,3.2.2right.bmp,,ACC022,"[2, 0, 0]","[2, 0, 0]",[],match,1.0,,-1.1428527255318914,0.6875885276664816,0.7639935644203708,1st,4th,3rd,-1.2505536033097449,1.27697607716485,0.47303708113182286
perc,resp,975,1,3.3.3left.bmp,3.3.3right.bmp,,ACC022,"[2, 2, 2]","[2, 2, 2]",[],match,1.0,,1.8781865712033503,1.0185690028083019,0.47534782990475666,4th,4th,3rd,1.2940067078399402,1.27697607716485,0.47303708113182286
perc,resp,874,1,1.1.2left.bmp,1.1.2right.bmp,,ACC022,"[-2, -2, 0]","[-2, -2, 0]",[],match,1.0,,-0.515031622306009,1.2203295878724791,0.5113833968401142,2nd,4th,3rd,-0.39493105355380387,1.27697607716485,0.47303708113182286
perc,resp,1416,0,2.1.3left.bmp,2.3.3right.bmp,,ACC022,"[0, -2, 2]","[0, 2, 2]",[],non-match,0.42264973081037416,2,1.287204762634364,0.03821354935463228,0.28394874702161277,4th,3rd,3rd,1.2940067078399402,0.2656946455366328,0.47303708113182286
perc,resp,1769,0,2.2.3left.bmp,3.1.3right.bmp,,ACC022,"[0, 0, 2]","[2, -2, 2]",[],non-match,0.5917517095361369,3,0.3805947886014568,0.5144810866323468,-0.04042639417908362,3rd,3rd,2nd,0.35147794902360857,0.2656946455366328,-0.2967337373597371
perc,resp,1542,1,2.2.2left.bmp,2.2.2right.bmp,,ACC022,"[0, 0, 0]","[0, 0, 0]",[],match,1.0,,0.3766566846760161,-1.2258881492124127,-0.2444589775689909,3rd,1st,2nd,0.35147794902360857,-1.1847102424963298,-0.2967337373597371
perc,resp,949,1,3.3.1left.bmp,1.1.2right.bmp,,ACC022,"[2, 2, -2]","[-2, -2, 0]",[],non-match,0.1339745962155613,1,1.5153524807166,1.1299481483010987,-0.10676792564648183,4th,4th,2nd,1.2940067078399402,1.27697607716485,-0.2967337373597371
perc,resp,1270,1,3.2.1left.bmp,3.2.1right.bmp,,ACC022,"[2, 0, -2]","[2, 0, -2]",[],match,1.0,,-0.40456406330796724,0.16460693067523652,-0.13174190577843106,2nd,3rd,2nd,-0.39493105355380387,0.2656946455366328,-0.2967337373597371
perc,resp,1159,1,2.3.2left.bmp,2.1.1right.bmp,,ACC022,"[0, 2, 0]","[0, -2, -2]",[],non-match,0.3545027756320971,2,0.4373302972637185,0.6560467925635108,-0.2372812566730683,3rd,4th,2nd,0.35147794902360857,1.27697607716485,-0.2967337373597371
perc,resp,1674,0,2.2.1left.bmp,2.2.1right.bmp,,ACC022,"[0, 0, -2]","[0, 0, -2]",[],match,1.0,,-1.100940952948618,0.12181262187113386,-0.345688339745894,1st,3rd,2nd,-1.2505536033097449,0.2656946455366328,-0.2967337373597371
perc,resp,1094,1,1.3.1left.bmp,1.2.3right.bmp,,ACC022,"[-2, 2, -2]","[-2, 0, 2]",[],non-match,0.3545027756320971,2,0.7126595299922778,0.5896010247408583,-0.34240259378876065,3rd,3rd,2nd,0.35147794902360857,0.2656946455366328,-0.2967337373597371
perc,resp,1043,1,1.3.2left.bmp,2.1.2right.bmp,,ACC022,"[-2, 2, 0]","[0, -2, 0]",[],non-match,0.3545027756320971,2,1.29865062707363,1.0794301612232917,-0.5392929220198814,4th,4th,2nd,1.2940067078399402,1.27697607716485,-0.2967337373597371
perc,resp,940,1,1.1.3left.bmp,3.2.3right.bmp,,ACC022,"[-2, -2, 2]","[2, 0, 2]",[],non-match,0.3545027756320971,2,0.20559432367914876,-0.7378686926449902,-0.857869340031606,3rd,1st,1st,0.35147794902360857,-1.1847102424963298,-1.368265897666624
perc,resp,1078,1,1.1.1left.bmp,1.1.1right.bmp,,ACC022,"[-2, -2, -2]","[-2, -2, -2]",[],match,1.0,,-0.3119344002862395,0.8271126266900931,-0.6513713589179356,2nd,4th,2nd,-0.39493105355380387,1.27697607716485,-0.2967337373597371
perc,resp,821,1,3.1.2left.bmp,1.3.3right.bmp,,ACC022,"[2, -2, 0]","[-2, 2, 2]",[],non-match,0.1339745962155613,1,1.700294199791285,0.7681090114724278,-0.4970965043920485,4th,4th,2nd,1.2940067078399402,1.27697607716485,-0.2967337373597371
perc,resp,1000,1,3.2.2left.bmp,3.3.3right.bmp,,ACC022,"[2, 0, 0]","[2, 2, 2]",[],non-match,0.5917517095361369,3,0.8846914612415561,0.5206887584167867,-0.5256413779650332,4th,3rd,2nd,1.2940067078399402,0.2656946455366328,-0.2967337373597371
perc,resp,988,1,3.2.3left.bmp,3.2.3right.bmp,,ACC022,"[2, 0, 2]","[2, 0, 2]",[],match,1.0,,-1.7929570071117371,-0.22407678987740734,-0.654502677066669,1st,2nd,2nd,-1.2505536033097449,-0.35796048020515303,-0.2967337373597371
perc,resp,767,1,1.2.2left.bmp,1.2.2right.bmp,,ACC022,"[-2, 0, 0]","[-2, 0, 0]",[],match,1.0,,1.6571507119470195,0.5046219782216679,-0.7336048287634855,4th,3rd,1st,1.2940067078399402,0.2656946455366328,-1.368265897666624
perc,resp,1243,0,2.1.2left.bmp,2.1.2right.bmp,,ACC022,"[0, -2, 0]","[0, -2, 0]",[],match,1.0,,-0.030382396154342014,-0.5397779057937179,-0.5840008017925394,3rd,2nd,2nd,0.35147794902360857,-0.35796048020515303,-0.2967337373597371
perc,resp,740,1,2.3.1left.bmp,1.2.3right.bmp,,ACC022,"[0, 2, -2]","[-2, 0, 2]",[],non-match,0.29289321881345254,1,-0.10523272917389431,0.42252648453516173,-0.6357522269800443,2nd,3rd,2nd,-0.39493105355380387,0.2656946455366328,-0.2967337373597371
perc,resp,767,1,1.3.3left.bmp,3.3.2right.bmp,,ACC022,"[-2, 2, 2]","[2, 2, 0]",[],non-match,0.3545027756320971,2,0.22300187689898246,-0.6525255492975371,-0.8225632778888599,3rd,2nd,1st,0.35147794902360857,-0.35796048020515303,-1.368265897666624
perc,resp,1357,1,3.1.1left.bmp,3.2.1right.bmp,,ACC022,"[2, -2, -2]","[2, 0, -2]",[],non-match,0.7113248654051871,4,-0.042306541635100746,-0.25238940484743705,-0.8418600704937728,2nd,2nd,1st,-0.39493105355380387,-0.35796048020515303,-1.368265897666624
perc,resp,1086,1,1.2.1left.bmp,1.2.1right.bmp,,ACC022,"[-2, 0, -2]","[-2, 0, -2]",[],match,1.0,,-0.1927077987804489,-0.3131962622286911,-1.012276973658465,2nd,2nd,1st,-0.39493105355380387,-0.35796048020515303,-1.368265897666624
perc,resp,915,1,3.1.3left.bmp,2.3.1right.bmp,,ACC022,"[2, -2, 2]","[0, 2, -2]",[],non-match,0.1339745962155613,1,0.777758728658252,0.04523584860599599,-1.3409992302868294,4th,3rd,1st,1.2940067078399402,0.2656946455366328,-1.368265897666624
perc,resp,1062,1,2.1.1left.bmp,2.1.1right.bmp,,ACC022,"[0, -2, -2]","[0, -2, -2]",[],match,1.0,,-0.3613561802780388,-0.37841197168612084,-1.4941704920639656,2nd,2nd,1st,-0.39493105355380387,-0.35796048020515303,-1.368265897666624
perc,resp,737,0,1.2.3left.bmp,1.2.3right.bmp,,ACC022,"[-2, 0, 2]","[-2, 0, 2]",[],match,1.0,,-0.23763759270236176,0.9642243043242313,-1.374393321447579,2nd,4th,1st,-0.39493105355380387,1.27697607716485,-1.368265897666624
perc,resp,1135,1,2.3.3left.bmp,2.3.3right.bmp,,ACC022,"[0, 2, 2]","[0, 2, 2]",[],match,1.0,,-0.20640698786864722,0.2671830388928333,-1.0557067842108645,2nd,3rd,1st,-0.39493105355380387,0.2656946455366328,-1.368265897666624
perc,resp,982,1,1.2.1left.bmp,1.1.3right.bmp,,ACC022,"[-2, 0, -2]","[-2, -2, 2]",[],non-match,0.3545027756320971,2,2.1554474053660355,-0.18709549070533865,-0.4653966110017843,4th,2nd,2nd,1.2940067078399402,-0.35796048020515303,-0.2967337373597371
perc,resp,799,1,1.2.3left.bmp,1.2.3right.bmp,,ACC022,"[-2, 0, 2]","[-2, 0, 2]",[],match,1.0,,0.17778286690074294,0.9778702100823579,-0.7135940197872586,3rd,4th,2nd,0.35147794902360857,1.27697607716485,-0.2967337373597371
perc,resp,1018,1,2.3.1left.bmp,2.3.1right.bmp,,ACC022,"[0, 2, -2]","[0, 2, -2]",[],match,1.0,,-1.0407548796774246,-0.11775200699687154,-0.7071616555903567,1st,2nd,2nd,-1.2505536033097449,-0.35796048020515303,-0.2967337373597371
perc,resp,973,1,2.1.3left.bmp,2.1.3right.bmp,,ACC022,"[0, -2, 2]","[0, -2, 2]",[],match,1.0,,-0.8749808882308513,0.1234550322100612,-1.2355372092872483,1st,3rd,1st,-1.2505536033097449,0.2656946455366328,-1.368265897666624
perc,resp,949,1,3.1.1left.bmp,3.1.1right.bmp,,ACC022,"[2, -2, -2]","[2, -2, -2]",[],match,1.0,,-1.141561854475377,0.013802211746471449,-1.355110173940969,1st,3rd,1st,-1.2505536033097449,0.2656946455366328,-1.368265897666624
perc,resp,958,0,2.1.1left.bmp,2.1.1right.bmp,,ACC022,"[0, -2, -2]","[0, -2, -2]",[],match,1.0,,0.6365600307346773,-0.43811545445405276,-1.3511234545431832,3rd,2nd,1st,0.35147794902360857,-0.35796048020515303,-1.368265897666624
perc,resp,885,0,1.3.1left.bmp,3.2.3right.bmp,,ACC022,"[-2, 2, -2]","[2, 0, 2]",[],non-match,0.1339745962155613,1,-1.825142918944784,-0.7633851402603353,-1.6634974503194633,1st,1st,1st,-1.2505536033097449,-1.1847102424963298,-1.368265897666624
perc,resp,832,1,2.2.3left.bmp,2.2.3right.bmp,,ACC022,"[0, 0, 2]","[0, 0, 2]",[],match,1.0,,0.40312992181672525,0.16667025799628363,-1.687706050498086,3rd,3rd,1st,0.35147794902360857,0.2656946455366328,-1.368265897666624
perc,resp,818,1,1.3.2left.bmp,2.2.1right.bmp,,ACC022,"[-2, 2, 0]","[0, 0, -2]",[],non-match,0.5,3,1.0179693926997857,0.24213363614805902,-1.4775044530475145,4th,3rd,1st,1.2940067078399402,0.2656946455366328,-1.368265897666624
perc,resp,873,1,3.1.2left.bmp,2.3.1right.bmp,,ACC022,"[2, -2, 0]","[0, 2, -2]",[],non-match,0.29289321881345254,1,0.44056634303546827,0.9476498374539111,-1.434022575354722,3rd,4th,1st,0.35147794902360857,1.27697607716485,-1.368265897666624
perc,resp,831,1,1.3.3left.bmp,1.3.3right.bmp,,ACC022,"[-2, 2, 2]","[-2, 2, 2]",[],match,1.0,,-0.7146576121901921,-1.389713220392629,-0.8587723530523313,2nd,1st,1st,-0.39493105355380387,-1.1847102424963298,-1.368265897666624
perc,resp,1342,0,3.1.3left.bmp,3.1.3right.bmp,,ACC022,"[2, -2, 2]","[2, -2, 2]",[],match,1.0,,-0.8032192585953585,-0.8505567169725948,-0.5826269979966396,1st,1st,2nd,-1.2505536033097449,-1.1847102424963298,-0.2967337373597371
perc,resp,1061,1,3.3.2left.bmp,3.3.2right.bmp,,ACC022,"[2, 2, 0]","[2, 2, 0]",[],match,1.0,,-1.4154536588074162,0.836061772932353,-0.7662104084037494,1st,4th,1st,-1.2505536033097449,1.27697607716485,-1.368265897666624
perc,resp,928,0,2.2.2left.bmp,3.2.2right.bmp,,ACC022,"[0, 0, 0]","[2, 0, 0]",[],non-match,0.7113248654051871,4,-0.49836031801232783,0.03328066431268718,-1.0575995621637466,2nd,3rd,1st,-0.39493105355380387,0.2656946455366328,-1.368265897666624
perc,resp,892,0,1.1.3left.bmp,1.1.2right.bmp,,ACC022,"[-2, -2, 2]","[-2, -2, 0]",[],non-match,0.7113248654051871,4,-0.7976310424088346,0.366162571322398,-0.6668451567494886,1st,3rd,2nd,-1.2505536033097449,0.2656946455366328,-0.2967337373597371
perc,resp,789,1,3.3.1left.bmp,1.3.1right.bmp,,ACC022,"[2, 2, -2]","[-2, 2, -2]",[],non-match,0.42264973081037416,2,1.950686695245981,1.0177269449222754,-0.31588005280448067,4th,4th,2nd,1.2940067078399402,1.27697607716485,-0.2967337373597371
perc,resp,1035,1,3.2.1left.bmp,3.2.1right.bmp,,ACC022,"[2, 0, -2]","[2, 0, -2]",[],match,1.0,,-0.7568789959344419,0.18468112716002033,-0.11936999545803731,2nd,3rd,2nd,-0.39493105355380387,0.2656946455366328,-0.2967337373597371
perc,resp,742,1,2.2.1left.bmp,1.2.3right.bmp,,ACC022,"[0, 0, -2]","[-2, 0, 2]",[],non-match,0.3545027756320971,2,1.3416813462559463,1.1008711203252386,-0.23473460381619188,4th,4th,2nd,1.2940067078399402,1.27697607716485,-0.2967337373597371
perc,resp,769,1,1.1.1left.bmp,1.1.1right.bmp,,ACC022,"[-2, -2, -2]","[-2, -2, -2]",[],match,1.0,,-0.8291258250420406,0.47907490930173174,-0.18617052211251797,1st,3rd,2nd,-1.2505536033097449,0.2656946455366328,-0.2967337373597371
perc,resp,1170,1,2.3.3left.bmp,1.2.2right.bmp,,ACC022,"[0, 2, 2]","[-2, 0, 0]",[],non-match,0.5,3,1.243381860619412,1.6434472733300876,-0.3721433634216893,4th,4th,2nd,1.2940067078399402,1.27697607716485,-0.2967337373597371
perc,resp,837,1,3.3.3left.bmp,2.2.3right.bmp,,ACC022,"[2, 2, 2]","[0, 0, 2]",[],non-match,0.5917517095361369,3,0.9486610220522188,-0.6422205566253096,-0.7433913249429631,4th,2nd,1st,1.2940067078399402,-0.35796048020515303,-1.368265897666624
perc,resp,801,1,1.1.2left.bmp,1.1.2right.bmp,,ACC022,"[-2, -2, 0]","[-2, -2, 0]",[],match,1.0,,-0.26427378153212533,-0.9771391722534475,-0.3929667486639191,2nd,1st,2nd,-0.39493105355380387,-1.1847102424963298,-0.2967337373597371
perc,resp,1100,1,3.2.2left.bmp,3.2.2right.bmp,,ACC022,"[2, 0, 0]","[2, 0, 0]",[],match,1.0,,-0.4538939398839964,-0.16649479811511056,-0.3591296140240123,2nd,2nd,2nd,-0.39493105355380387,-0.35796048020515303,-0.2967337373597371
perc,resp,1029,1,1.2.2left.bmp,1.2.2right.bmp,,ACC022,"[-2, 0, 0]","[-2, 0, 0]",[],match,1.0,,-0.7199111442024884,0.22143385816637615,-0.17571665052824187,2nd,3rd,2nd,-0.39493105355380387,0.2656946455366328,-0.2967337373597371
perc,resp,1542,1,2.1.2left.bmp,2.1.2right.bmp,,ACC022,"[0, -2, 0]","[0, -2, 0]",[],match,1.0,,0.14569357851817194,0.2944741226632736,-0.3922347130739897,3rd,3rd,2nd,0.35147794902360857,0.2656946455366328,-0.2967337373597371
perc,resp,987,0,2.3.2left.bmp,1.1.1right.bmp,,ACC022,"[0, 2, 0]","[-2, -2, -2]",[],non-match,0.29289321881345254,1,0.6231267421963266,1.51790361921677,-0.09274791295626673,3rd,4th,2nd,0.35147794902360857,1.27697607716485,-0.2967337373597371
perc,resp,854,1,3.2.3left.bmp,3.2.3right.bmp,,ACC022,"[2, 0, 2]","[2, 0, 2]",[],match,1.0,,0.2553361892333162,-0.1744705563423299,-0.06161934692548688,3rd,2nd,2nd,0.35147794902360857,-0.35796048020515303,-0.2967337373597371
perc,resp,718,0,3.3.3left.bmp,3.3.3right.bmp,,ACC022,"[2, 2, 2]","[2, 2, 2]",[],match,1.0,,1.4847199873580432,-0.30198931259198597,0.20208882531311612,4th,2nd,3rd,1.2940067078399402,-0.35796048020515303,0.47303708113182286
perc,resp,724,1,3.1.2left.bmp,1.3.2right.bmp,,ACC022,"[2, -2, 0]","[-2, 2, 0]",[],non-match,0.18350341907227385,1,0.8849729462247038,-1.295661870647449,0.8599838492605045,4th,1st,4th,1.2940067078399402,-1.1847102424963298,1.1919625538945382
perc,resp,741,1,3.1.1left.bmp,2.3.2right.bmp,,ACC022,"[2, -2, -2]","[0, 2, 0]",[],non-match,0.29289321881345254,1,1.3670795228611683,-0.7908222210369419,1.0612125628693216,4th,1st,4th,1.2940067078399402,-1.1847102424963298,1.1919625538945382
perc,resp,1049,1,1.2.3left.bmp,2.2.1right.bmp,,ACC022,"[-2, 0, 2]","[0, 0, -2]",[],non-match,0.3545027756320971,2,-0.34646277825988947,-0.8280807913637435,1.1176601310455798,2nd,1st,4th,-0.39493105355380387,-1.1847102424963298,1.1919625538945382
perc,resp,1026,1,2.2.3left.bmp,1.1.3right.bmp,,ACC022,"[0, 0, 2]","[-2, -2, 2]",[],non-match,0.5917517095361369,3,1.0404267521866164,2.559761767009766,1.097686008398494,4th,4th,4th,1.2940067078399402,1.27697607716485,1.1919625538945382
perc,resp,643,0,2.1.3left.bmp,2.1.3right.bmp,,ACC022,"[0, -2, 2]","[0, -2, 2]",[],match,1.0,,0.1984353078220595,-0.22856071173321105,1.120844192309947,3rd,2nd,4th,0.35147794902360857,-0.35796048020515303,1.1919625538945382
perc,resp,788,1,2.2.2left.bmp,3.3.2right.bmp,,ACC022,"[0, 0, 0]","[2, 2, 0]",[],non-match,0.5917517095361369,3,-0.8426222932274824,-1.251724021259194,1.285601734168276,1st,1st,4th,-1.2505536033097449,-1.1847102424963298,1.1919625538945382
perc,resp,996,1,3.2.2left.bmp,3.2.2right.bmp,,ACC022,"[2, 0, 0]","[2, 0, 0]",[],match,1.0,,-0.8153594827350026,-0.16362608010091995,1.1761423822376482,1st,2nd,4th,-1.2505536033097449,-0.35796048020515303,1.1919625538945382
perc,resp,1073,0,1.1.1left.bmp,2.1.2right.bmp,,ACC022,"[-2, -2, -2]","[0, -2, 0]",[],non-match,0.5917517095361369,3,0.0534019879356324,1.4849134460242455,1.0285237759165207,3rd,4th,4th,0.35147794902360857,1.27697607716485,1.1919625538945382
perc,resp,1054,1,1.2.2left.bmp,1.2.2right.bmp,,ACC022,"[-2, 0, 0]","[-2, 0, 0]",[],match,1.0,,-0.25555516778952436,-0.641198913464826,1.1929732210018547,2nd,2nd,4th,-0.39493105355380387,-0.35796048020515303,1.1919625538945382
perc,resp,696,1,3.2.3left.bmp,3.3.3right.bmp,,ACC022,"[2, 0, 2]","[2, 2, 2]",[],non-match,0.7113248654051871,4,-1.3534266019490915,1.1419271802648927,0.8940907760759288,1st,4th,4th,-1.2505536033097449,1.27697607716485,1.1919625538945382
perc,resp,1233,1,2.3.2left.bmp,2.3.2right.bmp,,ACC022,"[0, 2, 0]","[0, 2, 0]",[],match,1.0,,-0.004797459924180094,0.11168581496218417,0.691023081109226,3rd,3rd,3rd,0.35147794902360857,0.2656946455366328,0.47303708113182286
perc,resp,708,1,3.3.1left.bmp,2.2.2right.bmp,,ACC022,"[2, 2, -2]","[0, 0, 0]",[],non-match,0.5,3,-0.09599027609819032,1.3103237547104787,0.7472905819131987,2nd,4th,3rd,-0.39493105355380387,1.27697607716485,0.47303708113182286
perc,resp,967,1,2.1.1left.bmp,2.1.1right.bmp,,ACC022,"[0, -2, -2]","[0, -2, -2]",[],match,1.0,,0.5374245893836986,1.1462830188576174,0.7924889974713307,3rd,4th,3rd,0.35147794902360857,1.27697607716485,0.47303708113182286
perc,resp,714,1,3.1.3left.bmp,1.3.3right.bmp,,ACC022,"[2, -2, 2]","[-2, 2, 2]",[],non-match,0.18350341907227385,1,-0.10939516635251839,1.3836513108621484,1.0233895618840814,2nd,4th,4th,-0.39493105355380387,1.27697607716485,1.1919625538945382
perc,resp,1050,1,3.3.2left.bmp,2.1.3right.bmp,,ACC022,"[2, 2, 0]","[0, -2, 2]",[],non-match,0.29289321881345254,1,1.2562833197004597,-0.07945779839779948,0.6542593174257892,4th,2nd,3rd,1.2940067078399402,-0.35796048020515303,0.47303708113182286
perc,resp,1079,1,1.3.2left.bmp,1.3.2right.bmp,,ACC022,"[-2, 2, 0]","[-2, 2, 0]",[],match,1.0,,-0.2002974510839417,-1.2932443550372854,0.5705047162840922,2nd,1st,3rd,-0.39493105355380387,-1.1847102424963298,0.47303708113182286
perc,resp,958,0,2.3.1left.bmp,3.3.1right.bmp,,ACC022,"[0, 2, -2]","[2, 2, -2]",[],non-match,0.7113248654051871,4,0.3983883516944855,-0.6595711923953621,0.46349622513293787,3rd,2nd,3rd,0.35147794902360857,-0.35796048020515303,0.47303708113182286
perc,resp,1239,0,2.2.1left.bmp,2.3.2right.bmp,,ACC022,"[0, 0, -2]","[0, 2, 0]",[],non-match,0.5917517095361369,3,-1.4678422459179887,0.515060596221241,0.33012457846143817,1st,3rd,3rd,-1.2505536033097449,0.2656946455366328,0.47303708113182286
perc,resp,663,1,1.3.3left.bmp,2.1.1right.bmp,,ACC022,"[-2, 2, 2]","[0, -2, -2]",[],non-match,0.1339745962155613,1,0.36849214634642136,0.6129158733306967,0.6531957165037612,3rd,4th,3rd,0.35147794902360857,1.27697607716485,0.47303708113182286
perc,resp,1020,0,1.2.2left.bmp,1.3.3right.bmp,,ACC022,"[-2, 0, 0]","[-2, 2, 2]",[],non-match,0.5917517095361369,3,0.3161700427226713,-0.4414752889310886,0.9314157885758382,3rd,2nd,4th,0.35147794902360857,-0.35796048020515303,1.1919625538945382
perc,resp,1069,0,2.3.1left.bmp,2.3.1right.bmp,,ACC022,"[0, 2, -2]","[0, 2, -2]",[],match,1.0,,1.1625652228196877,0.6047592982591841,1.105375858970466,4th,4th,4th,1.2940067078399402,1.27697607716485,1.1919625538945382
perc,resp,834,1,1.1.2left.bmp,1.1.2right.bmp,,ACC022,"[-2, -2, 0]","[-2, -2, 0]",[],match,1.0,,-0.48793547804981857,-0.7085517884530932,1.0928013498236708,2nd,1st,4th,-0.39493105355380387,-1.1847102424963298,1.1919625538945382
perc,resp,841,1,1.2.1left.bmp,1.2.1right.bmp,,ACC022,"[-2, 0, -2]","[-2, 0, -2]",[],match,1.0,,-2.0428767713031926,-0.08382981533975092,0.8970795607511893,1st,2nd,4th,-1.2505536033097449,-0.35796048020515303,1.1919625538945382
perc,resp,848,1,3.3.2left.bmp,3.3.2right.bmp,,ACC022,"[2, 2, 0]","[2, 2, 0]",[],match,1.0,,0.7208274797044022,-0.5955428842024264,0.36451829868253605,4th,2nd,3rd,1.2940067078399402,-0.35796048020515303,0.47303708113182286
perc,resp,754,1,1.2.3left.bmp,1.2.3right.bmp,,ACC022,"[-2, 0, 2]","[-2, 0, 2]",[],match,1.0,,0.13229383699089317,0.25284997314594326,0.7337418033761254,3rd,3rd,3rd,0.35147794902360857,0.2656946455366328,0.47303708113182286
perc,resp,861,1,2.1.1left.bmp,2.1.1right.bmp,,ACC022,"[0, -2, -2]","[0, -2, -2]",[],match,1.0,,-0.2739090024725709,0.7614946977198915,0.7347310175382148,2nd,4th,3rd,-0.39493105355380387,1.27697607716485,0.47303708113182286
perc,resp,666,1,2.1.2left.bmp,2.1.2right.bmp,,ACC022,"[0, -2, 0]","[0, -2, 0]",[],match,1.0,,0.049873511165125346,-2.414572035087578,0.9698919839389847,3rd,1st,4th,0.35147794902360857,-1.1847102424963298,1.1919625538945382
perc,resp,932,1,2.2.2left.bmp,1.2.2right.bmp,,ACC022,"[0, 0, 0]","[-2, 0, 0]",[],non-match,0.7113248654051871,4,0.7690975805793286,-1.1618560623392942,1.2350053187380385,4th,1st,4th,1.2940067078399402,-1.1847102424963298,1.1919625538945382
perc,resp,979,1,3.1.1left.bmp,1.1.1right.bmp,,ACC022,"[2, -2, -2]","[-2, -2, -2]",[],non-match,0.42264973081037416,2,1.7013776200618385,0.8019466166739062,1.1882503162477074,4th,4th,4th,1.2940067078399402,1.27697607716485,1.1919625538945382
perc,resp,895,1,2.3.3left.bmp,2.3.3right.bmp,,ACC022,"[0, 2, 2]","[0, 2, 2]",[],match,1.0,,-0.9569731933567044,-2.325335258333375,1.170063953640468,1st,1st,4th,-1.2505536033097449,-1.1847102424963298,1.1919625538945382
perc,resp,669,1,3.3.1left.bmp,1.2.3right.bmp,,ACC022,"[2, 2, -2]","[-2, 0, 2]",[],non-match,0.1339745962155613,1,1.1670029872555046,0.09287683256343296,1.0716549853640036,4th,3rd,4th,1.2940067078399402,0.2656946455366328,1.1919625538945382
perc,resp,1218,1,1.3.3left.bmp,2.2.2right.bmp,,ACC022,"[-2, 2, 2]","[0, 0, 0]",[],non-match,0.5,3,0.4950472799888394,-0.5161137951941125,1.1412836776506592,3rd,2nd,4th,0.35147794902360857,-0.35796048020515303,1.1919625538945382
perc,resp,1069,1,1.3.1left.bmp,1.1.2right.bmp,,ACC022,"[-2, 2, -2]","[-2, -2, 0]",[],non-match,0.3545027756320971,2,1.162518106767053,-0.5381024669909716,1.4060919220850712,4th,2nd,4th,1.2940067078399402,-0.35796048020515303,1.1919625538945382
perc,resp,794,1,3.1.3left.bmp,1.2.2right.bmp,,ACC022,"[2, -2, 2]","[-2, 0, 0]",[],non-match,0.29289321881345254,1,0.6860490769283595,0.6568112615497886,0.7679256152532421,3rd,4th,3rd,0.35147794902360857,1.27697607716485,0.47303708113182286
perc,resp,962,1,1.1.1left.bmp,1.1.1right.bmp,,ACC022,"[-2, -2, -2]","[-2, -2, -2]",[],match,1.0,,0.32957430089211537,0.9494208348799411,0.5199958968458054,3rd,4th,3rd,0.35147794902360857,1.27697607716485,0.47303708113182286
perc,resp,707,1,3.2.3left.bmp,1.3.2right.bmp,,ACC022,"[2, 0, 2]","[-2, 2, 0]",[],non-match,0.29289321881345254,1,1.2108792823702197,-0.15337869130880968,1.0105990916868146,4th,2nd,4th,1.2940067078399402,-0.35796048020515303,1.1919625538945382
perc,resp,804,1,3.3.3left.bmp,2.1.3right.bmp,,ACC022,"[2, 2, 2]","[0, -2, 2]",[],non-match,0.3545027756320971,2,-0.29581329652700655,-0.7319663941997522,1.1665861831364452,2nd,1st,4th,-0.39493105355380387,-1.1847102424963298,1.1919625538945382
perc,resp,738,1,1.1.3left.bmp,3.3.2right.bmp,,ACC022,"[-2, -2, 2]","[2, 2, 0]",[],non-match,0.1339745962155613,1,-0.5126634865233582,-0.1143265634357764,0.9299678104684554,2nd,2nd,4th,-0.39493105355380387,-0.35796048020515303,1.1919625538945382
perc,resp,735,1,3.2.1left.bmp,3.3.1right.bmp,,ACC022,"[2, 0, -2]","[2, 2, -2]",[],non-match,0.7113248654051871,4,-0.10116031281325782,-0.2610114013565527,0.8527163194328803,2nd,2nd,4th,-0.39493105355380387,-0.35796048020515303,1.1919625538945382
perc,resp,1124,1,2.3.2left.bmp,2.3.2right.bmp,,ACC022,"[0, 2, 0]","[0, 2, 0]",[],match,1.0,,-1.369859119279466,-0.3223300319856504,1.0246183920544352,1st,2nd,4th,-1.2505536033097449,-0.35796048020515303,1.1919625538945382
perc,resp,1201,1,1.3.2left.bmp,1.3.2right.bmp,,ACC022,"[-2, 2, 0]","[-2, 2, 0]",[],match,1.0,,-2.510197193770903,-0.1581225863611774,1.0454310601234855,1st,2nd,4th,-1.2505536033097449,-0.35796048020515303,1.1919625538945382
perc,resp,624,0,3.1.2left.bmp,3.1.2right.bmp,,ACC022,"[2, -2, 0]","[2, -2, 0]",[],match,1.0,,-0.12108010385002746,-0.9371755427496975,1.0528523040646043,2nd,1st,4th,-0.39493105355380387,-1.1847102424963298,1.1919625538945382
perc,resp,700,1,3.2.2left.bmp,1.3.1right.bmp,,ACC022,"[2, 0, 0]","[-2, 2, -2]",[],non-match,0.29289321881345254,1,0.7138098764232657,-1.3305024775205097,1.2846713478561134,3rd,1st,4th,0.35147794902360857,-1.1847102424963298,1.1919625538945382
perc,resp,747,1,2.1.3left.bmp,2.1.3right.bmp,,ACC022,"[0, -2, 2]","[0, -2, 2]",[],match,1.0,,-0.022209566933066586,0.693955407842616,1.3826979154689951,3rd,4th,4th,0.35147794902360857,1.27697607716485,1.1919625538945382
perc,resp,761,1,2.2.3left.bmp,2.2.3right.bmp,,ACC022,"[0, 0, 2]","[0, 0, 2]",[],match,1.0,,-0.9303284263454986,-0.6920204265270783,1.065653337501568,1st,1st,4th,-1.2505536033097449,-1.1847102424963298,1.1919625538945382
perc,resp,1102,1,3.2.2left.bmp,3.2.2right.bmp,,ACC022,"[2, 0, 0]","[2, 0, 0]",[],match,1.0,,0.9955087510680011,0.00013229037651780426,1.1868937976062637,4th,3rd,4th,1.2940067078399402,0.2656946455366328,1.1919625538945382
perc,resp,1069,0,2.2.1left.bmp,2.2.1right.bmp,,ACC022,"[0, 0, -2]","[0, 0, -2]",[],match,1.0,,-0.6868764382520666,-1.1258408737241365,1.1956225917344299,2nd,1st,4th,-0.39493105355380387,-1.1847102424963298,1.1919625538945382
perc,resp,806,1,3.1.1left.bmp,3.1.1right.bmp,,ACC022,"[2, -2, -2]","[2, -2, -2]",[],match,1.0,,0.5970583909909237,0.2935803388440803,1.2986896331469893,3rd,3rd,4th,0.35147794902360857,0.2656946455366328,1.1919625538945382
perc,resp,791,1,1.1.3left.bmp,1.3.1right.bmp,,ACC022,"[-2, -2, 2]","[-2, 2, -2]",[],non-match,0.18350341907227385,1,0.5308211459677691,-0.27535818231299486,0.9543287687370897,3rd,2nd,4th,0.35147794902360857,-0.35796048020515303,1.1919625538945382
perc,resp,776,1,3.1.3left.bmp,3.1.3right.bmp,,ACC022,"[2, -2, 2]","[2, -2, 2]",[],match,1.0,,0.5409454622685366,0.12869995226441905,0.729371127872806,3rd,3rd,3rd,0.35147794902360857,0.2656946455366328,0.47303708113182286
perc,resp,702,0,1.1.1left.bmp,2.1.2right.bmp,,ACC022,"[-2, -2, -2]","[0, -2, 0]",[],non-match,0.5917517095361369,3,1.1932044397012842,0.5595781511299557,0.6612149601680086,4th,3rd,3rd,1.2940067078399402,0.2656946455366328,0.47303708113182286
perc,resp,1039,1,1.3.2left.bmp,1.3.2right.bmp,,ACC022,"[-2, 2, 0]","[-2, 2, 0]",[],match,1.0,,-0.7614810269344032,-1.4777670489519694,0.15516131971016156,1st,1st,3rd,-1.2505536033097449,-1.1847102424963298,0.47303708113182286
perc,resp,898,1,2.1.3left.bmp,2.2.1right.bmp,,ACC022,"[0, -2, 2]","[0, 0, -2]",[],non-match,0.3545027756320971,2,0.36172563698198595,0.3719970214656904,0.2617468383086609,3rd,3rd,3rd,0.35147794902360857,0.2656946455366328,0.47303708113182286
perc,resp,743,1,2.3.2left.bmp,3.1.2right.bmp,,ACC022,"[0, 2, 0]","[2, -2, 0]",[],non-match,0.3545027756320971,2,2.4522058197521197,-0.1307058264868854,0.050040972006511544,4th,2nd,2nd,1.2940067078399402,-0.35796048020515303,-0.2967337373597371
perc,resp,759,1,1.2.3left.bmp,3.3.1right.bmp,,ACC022,"[-2, 0, 2]","[2, 2, -2]",[],non-match,0.1339745962155613,1,0.2304350601404001,-0.21563622599750354,-0.049334839373222396,3rd,2nd,2nd,0.35147794902360857,-0.35796048020515303,-0.2967337373597371
perc,resp,794,1,2.2.2left.bmp,2.2.2right.bmp,,ACC022,"[0, 0, 0]","[0, 0, 0]",[],match,1.0,,-0.13959698982665417,0.03406814126274324,-0.06511294329812886,2nd,3rd,2nd,-0.39493105355380387,0.2656946455366328,-0.2967337373597371
perc,resp,871,1,2.3.3left.bmp,2.2.3right.bmp,,ACC022,"[0, 2, 2]","[0, 0, 2]",[],non-match,0.7113248654051871,4,1.3645799010857396,0.36170652772927475,0.04591114595134792,4th,3rd,2nd,1.2940067078399402,0.2656946455366328,-0.2967337373597371
perc,resp,857,0,3.3.2left.bmp,3.2.1right.bmp,,ACC022,"[2, 2, 0]","[2, 0, -2]",[],non-match,0.5917517095361369,3,-1.3427014472522727,0.8061462698190827,0.11305341615161865,1st,4th,3rd,-1.2505536033097449,1.27697607716485,0.47303708113182286
perc,resp,824,0,3.2.3left.bmp,2.2.1right.bmp,,ACC022,"[2, 0, 2]","[0, 0, -2]",[],non-match,0.3545027756320971,2,-0.10241371482405906,-1.305619420674441,0.38255491847320705,2nd,1st,3rd,-0.39493105355380387,-1.1847102424963298,0.47303708113182286
perc,resp,907,1,1.3.1left.bmp,1.3.1right.bmp,,ACC022,"[-2, 2, -2]","[-2, 2, -2]",[],match,1.0,,0.6647662155944908,-0.046572644524127835,0.3430906227343566,3rd,2nd,3rd,0.35147794902360857,-0.35796048020515303,0.47303708113182286
perc,resp,843,1,2.1.1left.bmp,1.2.1right.bmp,,ACC022,"[0, -2, -2]","[-2, 0, -2]",[],non-match,0.5917517095361369,3,1.6658601467145775,0.23677059735021538,0.07631074322579437,4th,3rd,2nd,1.2940067078399402,0.2656946455366328,-0.2967337373597371
perc,resp,820,1,3.2.1left.bmp,1.2.2right.bmp,,ACC022,"[2, 0, -2]","[-2, 0, 0]",[],non-match,0.3545027756320971,2,0.9098780957149798,-0.9061116567435972,0.4871514330569398,4th,1st,3rd,1.2940067078399402,-1.1847102424963298,0.47303708113182286
perc,resp,927,0,2.3.1left.bmp,1.2.3right.bmp,,ACC022,"[0, 2, -2]","[-2, 0, 2]",[],non-match,0.29289321881345254,1,0.39127709594452076,2.263502828329918,0.5133119809754761,3rd,4th,3rd,0.35147794902360857,1.27697607716485,0.47303708113182286
perc,resp,985,1,3.3.3left.bmp,3.1.3right.bmp,,ACC022,"[2, 2, 2]","[2, -2, 2]",[],non-match,0.42264973081037416,2,0.9734710968154091,0.7915198105486805,0.31915829283530744,4th,4th,3rd,1.2940067078399402,1.27697607716485,0.47303708113182286
perc,resp,740,0,3.1.2left.bmp,3.1.2right.bmp,,ACC022,"[2, -2, 0]","[2, -2, 0]",[],match,1.0,,-1.372910502755892,0.7299937163824459,0.30974957088302074,1st,4th,3rd,-1.2505536033097449,1.27697607716485,0.47303708113182286
perc,resp,1139,1,2.1.2left.bmp,3.2.2right.bmp,,ACC022,"[0, -2, 0]","[2, 0, 0]",[],non-match,0.5917517095361369,3,-0.3267856903467774,3.870066311846969,0.41386250587865014,2nd,4th,3rd,-0.39493105355380387,1.27697607716485,0.47303708113182286
perc,resp,716,1,3.3.1left.bmp,1.1.3right.bmp,,ACC022,"[2, 2, -2]","[-2, -2, 2]",[],non-match,0.0,1,1.0418238729138822,0.945870554921702,0.4467650829403542,4th,4th,3rd,1.2940067078399402,1.27697607716485,0.47303708113182286
perc,resp,1193,1,1.2.1left.bmp,3.3.3right.bmp,,ACC022,"[-2, 0, -2]","[2, 2, 2]",[],non-match,0.1339745962155613,1,0.4718523080145811,-1.3080252923515976,0.23517719856450922,3rd,1st,3rd,0.35147794902360857,-1.1847102424963298,0.47303708113182286
perc,resp,930,1,2.2.3left.bmp,1.1.1right.bmp,,ACC022,"[0, 0, 2]","[-2, -2, -2]",[],non-match,0.29289321881345254,1,1.2339066043624765,0.5344767425497792,0.32776161940709225,4th,3rd,3rd,1.2940067078399402,0.2656946455366328,0.47303708113182286
perc,resp,799,1,1.2.2left.bmp,2.3.1right.bmp,,ACC022,"[-2, 0, 0]","[0, 2, -2]",[],non-match,0.5,3,0.409687481702306,-0.6229958634260241,0.4611197458378807,3rd,2nd,3rd,0.35147794902360857,-0.35796048020515303,0.47303708113182286
perc,resp,1026,1,1.3.3left.bmp,1.3.3right.bmp,,ACC022,"[-2, 2, 2]","[-2, 2, 2]",[],match,1.0,,-1.1579365531945929,1.0548169021422622,0.49633844066630983,1st,4th,3rd,-1.2505536033097449,1.27697607716485,0.47303708113182286
perc,resp,1357,1,1.1.2left.bmp,1.1.2right.bmp,,ACC022,"[-2, -2, 0]","[-2, -2, 0]",[],match,1.0,,-0.4750324096036702,-0.8065363803954647,0.4054922465203336,2nd,1st,3rd,-0.39493105355380387,-1.1847102424963298,0.47303708113182286
perc,resp,1358,1,2.3.3left.bmp,2.3.3right.bmp,,ACC022,"[0, 2, 2]","[0, 2, 2]",[],match,1.0,,-1.9027322623926246,0.018067641917049855,0.4481659960573941,1st,3rd,3rd,-1.2505536033097449,0.2656946455366328,0.47303708113182286
perc,resp,623,1,3.3.2left.bmp,3.2.2right.bmp,,ACC022,"[2, 2, 0]","[2, 0, 0]",[],non-match,0.7113248654051871,4,-0.8966519125447197,0.5981486792161594,0.2592539936376554,1st,3rd,3rd,-1.2505536033097449,0.2656946455366328,0.47303708113182286
perc,resp,1201,1,1.3.2left.bmp,1.2.1right.bmp,,ACC022,"[-2, 2, 0]","[-2, 0, -2]",[],non-match,0.5917517095361369,3,0.10598208313393248,0.03270669678806028,0.44222515261422596,3rd,3rd,3rd,0.35147794902360857,0.2656946455366328,0.47303708113182286
perc,resp,1000,1,2.2.1left.bmp,2.2.1right.bmp,,ACC022,"[0, 0, -2]","[0, 0, -2]",[],match,1.0,,-1.8437513153539842,-1.079001249867649,0.15960319771671574,1st,1st,3rd,-1.2505536033097449,-1.1847102424963298,0.47303708113182286
perc,resp,877,1,2.1.2left.bmp,2.1.2right.bmp,,ACC022,"[0, -2, 0]","[0, -2, 0]",[],match,1.0,,-0.8135638703704445,0.6059991532026575,0.34574541923812535,1st,4th,3rd,-1.2505536033097449,1.27697607716485,0.47303708113182286
perc,resp,1136,1,1.1.2left.bmp,2.1.1right.bmp,,ACC022,"[-2, -2, 0]","[0, -2, -2]",[],non-match,0.5917517095361369,3,-0.18934178307275149,-0.802538256860027,0.3087175467452842,2nd,1st,3rd,-0.39493105355380387,-1.1847102424963298,0.47303708113182286
perc,resp,893,1,2.2.3left.bmp,2.2.3right.bmp,,ACC022,"[0, 0, 2]","[0, 0, 2]",[],match,1.0,,-0.3943780115612484,-0.05845023991768686,-0.0222928093748807,2nd,2nd,2nd,-0.39493105355380387,-0.35796048020515303,-0.2967337373597371
perc,resp,690,1,3.2.1left.bmp,2.3.2right.bmp,,ACC022,"[2, 0, -2]","[0, 2, 0]",[],non-match,0.5,3,1.2403725020823098,-0.07817366292063015,-0.18404329599878233,4th,2nd,2nd,1.2940067078399402,-0.35796048020515303,-0.2967337373597371
perc,resp,1188,0,2.3.1left.bmp,3.3.3right.bmp,,ACC022,"[0, 2, -2]","[2, 2, 2]",[],non-match,0.3545027756320971,2,-1.477566939068928,-0.7516050628057109,0.10532768299911684,1st,1st,3rd,-1.2505536033097449,-1.1847102424963298,0.47303708113182286
perc,resp,1429,1,3.1.2left.bmp,3.1.2right.bmp,,ACC022,"[2, -2, 0]","[2, -2, 0]",[],match,1.0,,-0.08793100236961024,-0.6740780774306523,-0.026782531747507006,2nd,2nd,2nd,-0.39493105355380387,-0.35796048020515303,-0.2967337373597371
perc,resp,968,0,1.1.1left.bmp,1.1.1right.bmp,,ACC022,"[-2, -2, -2]","[-2, -2, -2]",[],match,1.0,,1.627594522442472,1.976908018163327,-0.2443243791014129,4th,4th,2nd,1.2940067078399402,1.27697607716485,-0.2967337373597371
perc,resp,719,1,2.2.2left.bmp,2.2.2right.bmp,,ACC022,"[0, 0, 0]","[0, 0, 0]",[],match,1.0,,2.0194925709634077,0.46068566829570945,-0.3649241489810231,4th,3rd,2nd,1.2940067078399402,0.2656946455366328,-0.2967337373597371
perc,resp,694,1,1.3.3left.bmp,1.3.3right.bmp,,ACC022,"[-2, 2, 2]","[-2, 2, 2]",[],match,1.0,,-0.6861319582390184,-1.4970303126793416,-0.08830886906026526,2nd,1st,2nd,-0.39493105355380387,-1.1847102424963298,-0.2967337373597371
perc,resp,730,1,3.3.3left.bmp,3.3.3right.bmp,,ACC022,"[2, 2, 2]","[2, 2, 2]",[],match,1.0,,1.3842724186740094,-0.5667897590937752,-0.017569390916868977,4th,2nd,2nd,1.2940067078399402,-0.35796048020515303,-0.2967337373597371
perc,resp,694,1,3.3.1left.bmp,1.2.3right.bmp,,ACC022,"[2, 2, -2]","[-2, 0, 2]",[],non-match,0.1339745962155613,1,1.6431128860377657,0.13879149149166467,-0.1769778485658513,4th,3rd,2nd,1.2940067078399402,0.2656946455366328,-0.2967337373597371
perc,resp,721,1,3.1.3left.bmp,3.1.3right.bmp,,ACC022,"[2, -2, 2]","[2, -2, 2]",[],match,1.0,,3.3321852599037465,-0.2194159138281629,-0.009210424501509351,4th,2nd,2nd,1.2940067078399402,-0.35796048020515303,-0.2967337373597371
perc,resp,735,0,1.3.1left.bmp,2.3.2right.bmp,,ACC022,"[-2, 2, -2]","[0, 2, 0]",[],non-match,0.5917517095361369,3,-0.11676211486349958,-0.2826784095040899,-0.6170462346407855,2nd,2nd,2nd,-0.39493105355380387,-0.35796048020515303,-0.2967337373597371
perc,resp,1194,1,3.1.1left.bmp,2.1.2right.bmp,,ACC022,"[2, -2, -2]","[0, -2, 0]",[],non-match,0.5917517095361369,3,0.23028578966765506,-0.908509803119047,-0.6747133818927228,3rd,1st,2nd,0.35147794902360857,-1.1847102424963298,-0.2967337373597371
perc,resp,961,1,1.2.3left.bmp,1.2.3right.bmp,,ACC022,"[-2, 0, 2]","[-2, 0, 2]",[],match,1.0,,1.0941647826031757,0.19148980502506066,-0.7370166629607168,4th,3rd,1st,1.2940067078399402,0.2656946455366328,-1.368265897666624
perc,resp,1222,1,1.2.2left.bmp,1.1.3right.bmp,,ACC022,"[-2, 0, 0]","[-2, -2, 2]",[],non-match,0.5917517095361369,3,-1.0719502305605886,-0.6516278468470432,-0.5987266706083689,1st,2nd,2nd,-1.2505536033097449,-0.35796048020515303,-0.2967337373597371
perc,resp,879,1,2.1.3left.bmp,2.1.3right.bmp,,ACC022,"[0, -2, 2]","[0, -2, 2]",[],match,1.0,,0.5881308395639613,-0.47083003590525874,-0.9958811982594071,3rd,2nd,1st,0.35147794902360857,-0.35796048020515303,-1.368265897666624
perc,resp,965,0,2.1.1left.bmp,2.1.1right.bmp,,ACC022,"[0, -2, -2]","[0, -2, -2]",[],match,1.0,,-0.27369668363080296,-1.3464098533923698,-1.12855530760189,2nd,1st,1st,-0.39493105355380387,-1.1847102424963298,-1.368265897666624
perc,resp,957,0,2.3.1left.bmp,3.3.2right.bmp,,ACC022,"[0, 2, -2]","[2, 2, 0]",[],non-match,0.5917517095361369,3,-0.8958096882002093,0.5250194058082941,-1.3896823668883773,1st,3rd,1st,-1.2505536033097449,0.2656946455366328,-1.368265897666624
perc,resp,1276,1,1.1.1left.bmp,1.3.1right.bmp,,ACC022,"[-2, -2, -2]","[-2, 2, -2]",[],non-match,0.42264973081037416,2,-0.6789713955500781,-0.9748559537359961,-1.684644004369807,2nd,1st,1st,-0.39493105355380387,-1.1847102424963298,-1.368265897666624
perc,resp,1117,1,2.3.3left.bmp,2.3.3right.bmp,,ACC022,"[0, 2, 2]","[0, 2, 2]",[],match,1.0,,0.7756090976299909,-0.5683657766223831,-1.7256828343603536,4th,2nd,1st,1.2940067078399402,-0.35796048020515303,-1.368265897666624
perc,resp,812,1,3.1.2left.bmp,3.1.2right.bmp,,ACC022,"[2, -2, 0]","[2, -2, 0]",[],match,1.0,,-1.2894325036043444,-1.0598425296253287,-1.9248213023844036,1st,1st,1st,-1.2505536033097449,-1.1847102424963298,-1.368265897666624
perc,resp,976,1,2.2.3left.bmp,1.1.3right.bmp,,ACC022,"[0, 0, 2]","[-2, -2, 2]",[],non-match,0.5917517095361369,3,0.64905669028154,-0.5960356240982386,-2.1744031600139575,3rd,2nd,1st,0.35147794902360857,-0.35796048020515303,-1.368265897666624
perc,resp,943,1,3.1.1left.bmp,3.1.1right.bmp,,ACC022,"[2, -2, -2]","[2, -2, -2]",[],match,1.0,,-0.7760027363008376,2.083757001950973,-1.919869891552754,1st,4th,1st,-1.2505536033097449,1.27697607716485,-1.368265897666624
perc,resp,1244,1,1.2.1left.bmp,1.2.1right.bmp,,ACC022,"[-2, 0, -2]","[-2, 0, -2]",[],match,1.0,,-1.8244955952170674,-0.3046774936641194,-1.6467773548693798,1st,2nd,1st,-1.2505536033097449,-0.35796048020515303,-1.368265897666624
perc,resp,1011,1,1.3.2left.bmp,1.1.1right.bmp,,ACC022,"[-2, 2, 0]","[-2, -2, -2]",[],non-match,0.3545027756320971,2,1.64962302567188,-0.46860610068133934,-1.5467507682271129,4th,2nd,1st,1.2940067078399402,-0.35796048020515303,-1.368265897666624
perc,resp,798,1,3.2.1left.bmp,3.2.1right.bmp,,ACC022,"[2, 0, -2]","[2, 0, -2]",[],match,1.0,,-0.552304873979794,-1.2367090856757958,-1.3641864365901974,2nd,1st,1st,-0.39493105355380387,-1.1847102424963298,-1.368265897666624
perc,resp,762,1,3.1.3left.bmp,3.1.3right.bmp,,ACC022,"[2, -2, 2]","[2, -2, 2]",[],match,1.0,,-1.2358286727867211,-1.7637741833819378,-1.5549695234884626,1st,1st,1st,-1.2505536033097449,-1.1847102424963298,-1.368265897666624
perc,resp,759,1,2.1.3left.bmp,2.1.3right.bmp,,ACC022,"[0, -2, 2]","[0, -2, 2]",[],match,1.0,,0.3551066738349298,-1.8743266726092285,-1.4978633582282284,3rd,1st,1st,0.35147794902360857,-1.1847102424963298,-1.368265897666624
perc,resp,703,1,1.1.3left.bmp,1.1.3right.bmp,,ACC022,"[-2, -2, 2]","[-2, -2, 2]",[],match,1.0,,-0.6817072241703211,0.4794369908338962,-1.675542104414191,2nd,3rd,1st,-0.39493105355380387,0.2656946455366328,-1.368265897666624
perc,resp,710,0,3.2.3left.bmp,3.2.2right.bmp,,ACC022,"[2, 0, 2]","[2, 0, 0]",[],non-match,0.7113248654051871,4,-0.9480219869773785,0.17554237514326418,-1.737905737362788,1st,3rd,1st,-1.2505536033097449,0.2656946455366328,-1.368265897666624
perc,resp,816,1,2.3.2left.bmp,3.2.1right.bmp,,ACC022,"[0, 2, 0]","[2, 0, -2]",[],non-match,0.5,3,0.7179706237059199,0.33261264963882253,-1.960311207036069,4th,3rd,1st,1.2940067078399402,0.2656946455366328,-1.368265897666624
perc,resp,802,1,1.3.3left.bmp,1.3.3right.bmp,,ACC022,"[-2, 2, 2]","[-2, 2, 2]",[],match,1.0,,-1.529420812720931,0.17021438010533613,-2.3041969646766667,1st,3rd,1st,-1.2505536033097449,0.2656946455366328,-1.368265897666624
perc,resp,787,1,1.1.2left.bmp,1.1.2right.bmp,,ACC022,"[-2, -2, 0]","[-2, -2, 0]",[],match,1.0,,0.28228734120590543,-1.1638610860246343,-2.3667063582030976,3rd,1st,1st,0.35147794902360857,-1.1847102424963298,-1.368265897666624
perc,resp,902,1,1.2.2left.bmp,2.2.2right.bmp,,ACC022,"[-2, 0, 0]","[0, 0, 0]",[],non-match,0.7113248654051871,4,-0.25900401263035805,-0.6649187246093454,-2.047466663019235,2nd,2nd,1st,-0.39493105355380387,-0.35796048020515303,-1.368265897666624
perc,resp,1202,1,2.1.2left.bmp,3.1.2right.bmp,,ACC022,"[0, -2, 0]","[2, -2, 0]",[],non-match,0.7113248654051871,4,-0.629594692457746,-1.6108209978695671,-1.682671308855418,2nd,1st,1st,-0.39493105355380387,-1.1847102424963298,-1.368265897666624
perc,resp,927,1,3.2.2left.bmp,2.1.3right.bmp,,ACC022,"[2, 0, 0]","[0, -2, 2]",[],non-match,0.5,3,1.8451086810706199,-1.102344536524639,-2.059449068585107,4th,1st,1st,1.2940067078399402,-1.1847102424963298,-1.368265897666624
perc,resp,804,1,3.3.1left.bmp,3.1.3right.bmp,,ACC022,"[2, 2, -2]","[2, -2, 2]",[],non-match,0.18350341907227385,1,0.9097547280086414,-0.7583912365309966,-1.8837222994037213,4th,1st,1st,1.2940067078399402,-1.1847102424963298,-1.368265897666624
perc,resp,1125,0,2.1.1left.bmp,2.1.1right.bmp,,ACC022,"[0, -2, -2]","[0, -2, -2]",[],match,1.0,,-0.6916095850262834,0.12956423438796522,-1.9291539600145926,2nd,3rd,1st,-0.39493105355380387,0.2656946455366328,-1.368265897666624
perc,resp,852,1,3.3.3left.bmp,3.1.1right.bmp,,ACC022,"[2, 2, 2]","[2, -2, -2]",[],non-match,0.18350341907227385,1,0.8142147858845704,-0.7566335624513879,-2.166319494224682,4th,1st,1st,1.2940067078399402,-1.1847102424963298,-1.368265897666624
perc,resp,877,1,2.2.1left.bmp,2.2.1right.bmp,,ACC022,"[0, 0, -2]","[0, 0, -2]",[],match,1.0,,-0.8414690394528946,-0.49407530079928946,-1.873227711615757,1st,2nd,1st,-1.2505536033097449,-0.35796048020515303,-1.368265897666624
perc,resp,1067,0,1.3.1left.bmp,1.3.1right.bmp,,ACC022,"[-2, 2, -2]","[-2, 2, -2]",[],match,1.0,,0.3889076749166267,-1.683082392410158,-1.916687594850139,3rd,1st,1st,0.35147794902360857,-1.1847102424963298,-1.368265897666624
perc,resp,1266,1,2.2.2left.bmp,2.3.1right.bmp,,ACC022,"[0, 0, 0]","[0, 2, -2]",[],non-match,0.5917517095361369,3,-1.0843479158258404,-0.44217644403164,-1.532568474088991,1st,2nd,1st,-1.2505536033097449,-0.35796048020515303,-1.368265897666624
perc,resp,741,1,3.3.2left.bmp,2.1.3right.bmp,,ACC022,"[2, 2, 0]","[0, -2, 2]",[],non-match,0.29289321881345254,1,1.531949268167833,0.19071906622870233,-1.4246005654079,4th,3rd,1st,1.2940067078399402,0.2656946455366328,-1.368265897666624
perc,resp,1120,1,2.2.3left.bmp,1.1.2right.bmp,,ACC022,"[0, 0, 2]","[-2, -2, 0]",[],non-match,0.5,3,0.43254303430168084,-0.9255607755555069,-1.7121920299531708,3rd,1st,1st,0.35147794902360857,-1.1847102424963298,-1.368265897666624
perc,resp,967,1,1.1.1left.bmp,2.3.3right.bmp,,ACC022,"[-2, -2, -2]","[0, 2, 2]",[],non-match,0.1339745962155613,1,0.62038802124521,0.22061587187262366,-1.4701971167521892,3rd,3rd,1st,0.35147794902360857,0.2656946455366328,-1.368265897666624
perc,resp,752,1,3.1.3left.bmp,2.2.1right.bmp,,ACC022,"[2, -2, 2]","[0, 0, -2]",[],non-match,0.29289321881345254,1,1.267921587966131,0.016209203032570518,-1.5345797719492342,4th,3rd,1st,1.2940067078399402,0.2656946455366328,-1.368265897666624
perc,resp,970,1,2.2.2left.bmp,1.2.1right.bmp,,ACC022,"[0, 0, 0]","[-2, 0, -2]",[],non-match,0.5917517095361369,3,0.8809581634961311,-0.8614194428397753,-1.6563043092477423,4th,1st,1st,1.2940067078399402,-1.1847102424963298,-1.368265897666624
perc,resp,605,0,2.1.1left.bmp,2.1.1right.bmp,,ACC022,"[0, -2, -2]","[0, -2, -2]",[],match,1.0,,-0.8009163218689889,0.061581803291051423,-1.510773327179112,1st,3rd,1st,-1.2505536033097449,0.2656946455366328,-1.368265897666624
perc,resp,1334,0,1.2.3left.bmp,2.1.3right.bmp,,ACC022,"[-2, 0, 2]","[0, -2, 2]",[],non-match,0.5917517095361369,3,-0.3789933509966874,-1.1096891991809146,-1.4914619059228205,2nd,1st,1st,-0.39493105355380387,-1.1847102424963298,-1.368265897666624
perc,resp,1022,1,2.2.1left.bmp,3.1.3right.bmp,,ACC022,"[0, 0, -2]","[2, -2, 2]",[],non-match,0.29289321881345254,1,-0.10747763609346424,-0.959055304586627,-1.336337749666411,2nd,1st,1st,-0.39493105355380387,-1.1847102424963298,-1.368265897666624
perc,resp,828,0,1.1.3left.bmp,2.2.3right.bmp,,ACC022,"[-2, -2, 2]","[0, 0, 2]",[],non-match,0.5917517095361369,3,-0.39925042245364556,4.054558160535274,-1.3242598179962026,2nd,4th,1st,-0.39493105355380387,1.27697607716485,-1.368265897666624
perc,resp,1107,0,3.3.1left.bmp,3.1.1right.bmp,,ACC022,"[2, 2, -2]","[2, -2, -2]",[],non-match,0.42264973081037416,2,0.07363766295430786,0.716632415217629,-1.1823698949801866,3rd,4th,1st,0.35147794902360857,1.27697607716485,-1.368265897666624
perc,resp,1046,0,3.1.2left.bmp,3.2.2right.bmp,,ACC022,"[2, -2, 0]","[2, 0, 0]",[],non-match,0.7113248654051871,4,-2.407605909166637,-0.3040225224324667,-0.9927536742408074,1st,2nd,1st,-1.2505536033097449,-0.35796048020515303,-1.368265897666624
perc,resp,1025,1,2.1.2left.bmp,2.1.2right.bmp,,ACC022,"[0, -2, 0]","[0, -2, 0]",[],match,1.0,,0.06388425589653358,-0.4951235906526165,-0.7860432450852877,3rd,2nd,1st,0.35147794902360857,-0.35796048020515303,-1.368265897666624
perc,resp,982,1,2.3.2left.bmp,2.3.2right.bmp,,ACC022,"[0, 2, 0]","[0, 2, 0]",[],match,1.0,,-2.0706597135995026,0.10484987461938267,-0.9814400017597477,1st,3rd,1st,-1.2505536033097449,0.2656946455366328,-1.368265897666624
perc,resp,888,1,1.3.3left.bmp,1.3.3right.bmp,,ACC022,"[-2, 2, 2]","[-2, 2, 2]",[],match,1.0,,-0.8695465723339437,1.1201513461280965,-0.8630126023447435,1st,4th,1st,-1.2505536033097449,1.27697607716485,-1.368265897666624
perc,resp,765,1,3.2.3left.bmp,3.2.3right.bmp,,ACC022,"[2, 0, 2]","[2, 0, 2]",[],match,1.0,,0.2633799258838169,1.6309913999174719,-0.817545902350179,3rd,4th,1st,0.35147794902360857,1.27697607716485,-1.368265897666624
perc,resp,748,0,3.2.2left.bmp,3.3.3right.bmp,,ACC022,"[2, 0, 0]","[2, 2, 2]",[],non-match,0.5917517095361369,3,0.055126045218736444,0.6927072677929642,-1.0560519176971377,3rd,4th,1st,0.35147794902360857,1.27697607716485,-1.368265897666624
perc,resp,826,1,3.1.1left.bmp,1.2.3right.bmp,,ACC022,"[2, -2, -2]","[-2, 0, 2]",[],non-match,0.1339745962155613,1,1.373312762915469,1.372337998375859,-0.8115295940594885,4th,4th,1st,1.2940067078399402,1.27697607716485,-1.368265897666624
perc,resp,801,1,2.3.3left.bmp,2.3.3right.bmp,,ACC022,"[0, 2, 2]","[0, 2, 2]",[],match,1.0,,0.8282633891970872,0.5802274347483088,-0.7518292661138879,4th,3rd,1st,1.2940067078399402,0.2656946455366328,-1.368265897666624
perc,resp,656,0,1.2.2left.bmp,1.1.3right.bmp,,ACC022,"[-2, 0, 0]","[-2, -2, 2]",[],non-match,0.5917517095361369,3,-0.3891990988975679,2.021113650020523,-0.623261625217644,2nd,4th,2nd,-0.39493105355380387,1.27697607716485,-0.2967337373597371
perc,resp,752,1,3.3.3left.bmp,2.1.1right.bmp,,ACC022,"[2, 2, 2]","[0, -2, -2]",[],non-match,0.1339745962155613,1,0.6504538003995282,2.248902120065204,-0.6878720306912813,3rd,4th,2nd,0.35147794902360857,1.27697607716485,-0.2967337373597371
perc,resp,1151,1,1.2.1left.bmp,3.2.3right.bmp,,ACC022,"[-2, 0, -2]","[2, 0, 2]",[],non-match,0.18350341907227385,1,0.14483716070092983,0.3095209950917713,-0.5413272168052393,3rd,3rd,2nd,0.35147794902360857,0.2656946455366328,-0.2967337373597371
perc,resp,1118,1,1.3.2left.bmp,1.3.2right.bmp,,ACC022,"[-2, 2, 0]","[-2, 2, 0]",[],match,1.0,,-0.7175247035962233,0.5717162795245503,-0.4847618307618465,2nd,3rd,2nd,-0.39493105355380387,0.2656946455366328,-0.2967337373597371
perc,resp,1163,1,3.2.1left.bmp,3.2.1right.bmp,,ACC022,"[2, 0, -2]","[2, 0, -2]",[],match,1.0,,-0.9200803935918687,0.1589209406777855,-0.558784274429545,1st,3rd,2nd,-1.2505536033097449,0.2656946455366328,-0.2967337373597371
perc,resp,1001,1,1.1.2left.bmp,2.1.2right.bmp,,ACC022,"[-2, -2, 0]","[0, -2, 0]",[],non-match,0.7113248654051871,4,1.4363360152336058,2.400765541210467,-0.7066528848812761,4th,4th,2nd,1.2940067078399402,1.27697607716485,-0.2967337373597371
perc,resp,755,0,3.3.2left.bmp,1.3.3right.bmp,,ACC022,"[2, 2, 0]","[-2, 2, 2]",[],non-match,0.3545027756320971,2,0.48176311193371407,-0.2220694430035104,-0.3279872391208885,3rd,2nd,2nd,0.35147794902360857,-0.35796048020515303,-0.2967337373597371
perc,resp,772,1,2.3.1left.bmp,2.3.1right.bmp,,ACC022,"[0, 2, -2]","[0, 2, -2]",[],match,1.0,,-0.0012751599049008946,0.4054010021235462,-0.26453077283987053,3rd,3rd,2nd,0.35147794902360857,0.2656946455366328,-0.2967337373597371
perc,resp,675,1,1.3.1left.bmp,1.3.1right.bmp,,ACC022,"[-2, 2, -2]","[-2, 2, -2]",[],match,1.0,,0.04885264831328417,-0.952839599608021,0.06995331896360982,3rd,1st,2nd,0.35147794902360857,-1.1847102424963298,-0.2967337373597371
perc,resp,689,0,2.1.3left.bmp,2.1.3right.bmp,,ACC022,"[0, -2, 2]","[0, -2, 2]",[],match,1.0,,-0.6881353914244047,0.7837792821603848,0.36841198882718534,2nd,4th,3rd,-0.39493105355380387,1.27697607716485,0.47303708113182286
perc,resp,756,1,3.1.2left.bmp,1.2.3right.bmp,,ACC022,"[2, -2, 0]","[-2, 0, 2]",[],non-match,0.29289321881345254,1,1.6944574135857078,-0.49529953719800834,0.4292396033904293,4th,2nd,3rd,1.2940067078399402,-0.35796048020515303,0.47303708113182286
perc,resp,1174,0,3.3.1left.bmp,3.2.2right.bmp,,ACC022,"[2, 2, -2]","[2, 0, 0]",[],non-match,0.5917517095361369,3,-1.6588368316493736,-0.34424117086320744,0.6511038649815191,1st,2nd,3rd,-1.2505536033097449,-0.35796048020515303,0.47303708113182286
perc,resp,1565,0,2.3.3left.bmp,2.3.3right.bmp,,ACC022,"[0, 2, 2]","[0, 2, 2]",[],match,1.0,,-1.0503089135176624,1.5355258161359462,0.8043465747666392,1st,4th,3rd,-1.2505536033097449,1.27697607716485,0.47303708113182286
perc,resp,1225,1,2.2.3left.bmp,2.2.3right.bmp,,ACC022,"[0, 0, 2]","[0, 0, 2]",[],match,1.0,,0.19703170984025606,0.8436270825210691,0.7561610790184035,3rd,4th,3rd,0.35147794902360857,1.27697607716485,0.47303708113182286
perc,resp,1004,1,2.2.2left.bmp,1.2.2right.bmp,,ACC022,"[0, 0, 0]","[-2, 0, 0]",[],non-match,0.7113248654051871,4,1.107009961086808,1.283049409093736,0.6311221187822149,4th,4th,3rd,1.2940067078399402,1.27697607716485,0.47303708113182286
perc,resp,898,1,1.2.3left.bmp,1.2.3right.bmp,,ACC022,"[-2, 0, 2]","[-2, 0, 2]",[],match,1.0,,0.9564500369340726,0.9583050438035071,0.5611362987404892,4th,4th,3rd,1.2940067078399402,1.27697607716485,0.47303708113182286
perc,resp,653,1,3.1.3left.bmp,3.3.1right.bmp,,ACC022,"[2, -2, 2]","[2, 2, -2]",[],non-match,0.18350341907227385,1,0.9903286063378686,-1.1129300472175339,0.5096742484039097,4th,1st,3rd,1.2940067078399402,-1.1847102424963298,0.47303708113182286
perc,resp,1302,1,3.1.1left.bmp,3.1.1right.bmp,,ACC022,"[2, -2, -2]","[2, -2, -2]",[],match,1.0,,-0.9837510400565895,-0.9094831911340873,0.6089529606049908,1st,1st,3rd,-1.2505536033097449,-1.1847102424963298,0.47303708113182286
perc,resp,979,1,3.2.1left.bmp,2.3.2right.bmp,,ACC022,"[2, 0, -2]","[0, 2, 0]",[],non-match,0.5,3,1.1896442353046077,0.24117564275598496,0.5516352256049413,4th,3rd,3rd,1.2940067078399402,0.2656946455366328,0.47303708113182286
perc,resp,978,1,1.3.2left.bmp,1.3.2right.bmp,,ACC022,"[-2, 2, 0]","[-2, 2, 0]",[],match,1.0,,1.436014909842662,-0.338788899232607,0.8685949570313366,4th,2nd,4th,1.2940067078399402,-0.35796048020515303,1.1919625538945382
perc,resp,875,1,1.3.1left.bmp,1.3.1right.bmp,,ACC022,"[-2, 2, -2]","[-2, 2, -2]",[],match,1.0,,-1.3656624204269843,-0.7571040781096816,0.9929276973391664,1st,1st,4th,-1.2505536033097449,-1.1847102424963298,1.1919625538945382
perc,resp,749,1,1.2.2left.bmp,1.2.2right.bmp,,ACC022,"[-2, 0, 0]","[-2, 0, 0]",[],match,1.0,,-1.315473927962939,1.1896671936333376,1.1281065378724773,1st,4th,4th,-1.2505536033097449,1.27697607716485,1.1919625538945382
perc,resp,1510,1,3.2.3left.bmp,3.2.3right.bmp,,ACC022,"[2, 0, 2]","[2, 0, 2]",[],match,1.0,,-0.2466926230509393,-0.2889869020738467,1.5979463950877415,2nd,2nd,4th,-0.39493105355380387,-0.35796048020515303,1.1919625538945382
perc,resp,717,1,1.1.2left.bmp,2.3.2right.bmp,,ACC022,"[-2, -2, 0]","[0, 2, 0]",[],non-match,0.3545027756320971,2,0.6613918472630183,-0.40724380530346466,1.5367948188670766,3rd,2nd,4th,0.35147794902360857,-0.35796048020515303,1.1919625538945382
perc,resp,1145,1,1.2.1left.bmp,1.3.3right.bmp,,ACC022,"[-2, 0, -2]","[-2, 2, 2]",[],non-match,0.3545027756320971,2,-1.1512435828850025,0.5387094241587745,1.3892980614589043,1st,3rd,4th,-1.2505536033097449,0.2656946455366328,1.1919625538945382
perc,resp,800,1,2.3.1left.bmp,2.3.1right.bmp,,ACC022,"[0, 2, -2]","[0, 2, -2]",[],match,1.0,,0.06465981139510389,1.3856829532501085,1.5890612607512633,3rd,4th,4th,0.35147794902360857,1.27697607716485,1.1919625538945382
perc,resp,888,1,3.3.2left.bmp,1.3.2right.bmp,,ACC022,"[2, 2, 0]","[-2, 2, 0]",[],non-match,0.42264973081037416,2,0.7532127846666018,0.1384606470490094,1.8907392669513294,4th,3rd,4th,1.2940067078399402,0.2656946455366328,1.1919625538945382
perc,resp,723,1,1.1.1left.bmp,1.1.1right.bmp,,ACC022,"[-2, -2, -2]","[-2, -2, -2]",[],match,1.0,,0.042748028561536144,-0.2351028107089238,1.7920479266745954,3rd,2nd,4th,0.35147794902360857,-0.35796048020515303,1.1919625538945382
perc,resp,860,0,2.3.2left.bmp,2.3.3right.bmp,,ACC022,"[0, 2, 0]","[0, 2, 2]",[],non-match,0.7113248654051871,4,-0.5156281760821728,-0.050328988508325914,2.0931355807039376,2nd,2nd,4th,-0.39493105355380387,-0.35796048020515303,1.1919625538945382
perc,resp,896,1,3.3.3left.bmp,1.3.1right.bmp,,ACC022,"[2, 2, 2]","[-2, 2, -2]",[],non-match,0.18350341907227385,1,0.6312160676055094,1.7404981114140008,2.282593507321747,3rd,4th,4th,0.35147794902360857,1.27697607716485,1.1919625538945382
perc,resp,1085,0,2.2.1left.bmp,2.2.1right.bmp,,ACC022,"[0, 0, -2]","[0, 0, -2]",[],match,1.0,,-1.3218541407143154,-0.33038046812936706,1.9596499894351296,1st,2nd,4th,-1.2505536033097449,-0.35796048020515303,1.1919625538945382
