mode,type,rt,acc,item_1,item_2,item_cue,subj_idx,item_1_number,item_2_number,item_cue_number,trial_type,similarity,similarity_bin,ams,pams,slps,ams_quantile,pams_quantile,slps_quantile,ams_bin,pam_bin,slp_bin
perc,resp,927,1,1.2.2left.bmp,1.3.3right.bmp,,ACC014,"[-2, 0, 0]","[-2, 2, 2]",[],non-match,0.5917517095361369,3,-1.0638984779146294,-0.3166688201048698,0.48012721981947076,1st,2nd,3rd,-1.234654563158233,-0.2680432584118046,0.42265471603277077
perc,resp,838,0,2.3.1left.bmp,2.3.1right.bmp,,ACC014,"[0, 2, -2]","[0, 2, -2]",[],match,1.0,,-0.07789180235176475,-0.43158538637367255,-0.210252568353476,2nd,2nd,2nd,-0.33539210738090497,-0.2680432584118046,-0.5007246736891283
perc,resp,1363,1,1.1.2left.bmp,1.1.2right.bmp,,ACC014,"[-2, -2, 0]","[-2, -2, 0]",[],match,1.0,,-0.6833826158630731,-0.2912838554319376,-0.4061423011857542,1st,2nd,2nd,-1.234654563158233,-0.2680432584118046,-0.5007246736891283
perc,resp,914,0,1.2.1left.bmp,1.2.1right.bmp,,ACC014,"[-2, 0, -2]","[-2, 0, -2]",[],match,1.0,,-0.46001141196575907,0.23481590894739918,-0.7607685230472476,2nd,3rd,2nd,-0.33539210738090497,0.27569233083350203,-0.5007246736891283
perc,resp,1340,1,3.3.2left.bmp,3.3.2right.bmp,,ACC014,"[2, 2, 0]","[2, 2, 0]",[],match,1.0,,-0.09397565123766106,-0.7406393884772581,-0.422771659242065,2nd,1st,2nd,-0.33539210738090497,-1.199475412605248,-0.5007246736891283
perc,resp,883,1,1.2.3left.bmp,1.2.3right.bmp,,ACC014,"[-2, 0, 2]","[-2, 0, 2]",[],match,1.0,,-0.613703179519119,0.1628044392468887,-0.10462268797939543,2nd,3rd,2nd,-0.33539210738090497,0.27569233083350203,-0.5007246736891283
perc,resp,1468,1,2.1.1left.bmp,2.1.1right.bmp,,ACC014,"[0, -2, -2]","[0, -2, -2]",[],match,1.0,,-0.9971603841838494,-0.5709260186225062,-0.06379957033406031,1st,1st,2nd,-1.234654563158233,-1.199475412605248,-0.5007246736891283
perc,resp,841,1,2.1.2left.bmp,2.1.2right.bmp,,ACC014,"[0, -2, 0]","[0, -2, 0]",[],match,1.0,,0.24702509203692422,0.5923829926599986,0.02595846751104468,3rd,3rd,3rd,0.2987564483745451,0.27569233083350203,0.42265471603277077
perc,resp,1104,0,2.2.2left.bmp,1.2.2right.bmp,,ACC014,"[0, 0, 0]","[-2, 0, 0]",[],non-match,0.7113248654051871,4,0.2540696329980976,-0.441032506996758,0.1465074252871288,3rd,2nd,3rd,0.2987564483745451,-0.2680432584118046,0.42265471603277077
perc,resp,1056,1,2.2.1left.bmp,3.2.3right.bmp,,ACC014,"[0, 0, -2]","[2, 0, 2]",[],non-match,0.3545027756320971,2,-1.2587644306705186,-0.5716105154888542,0.20174589115654348,1st,1st,3rd,-1.234654563158233,-1.199475412605248,0.42265471603277077
perc,resp,1201,1,3.1.1left.bmp,1.1.1right.bmp,,ACC014,"[2, -2, -2]","[-2, -2, -2]",[],non-match,0.42264973081037416,2,-1.4570244579158114,-0.6451059218812967,0.17536994752966145,1st,1st,3rd,-1.234654563158233,-1.199475412605248,0.42265471603277077
perc,resp,1154,1,2.3.3left.bmp,2.3.3right.bmp,,ACC014,"[0, 2, 2]","[0, 2, 2]",[],match,1.0,,-0.4966856457328807,-0.2093268997807503,0.40258583129806924,2nd,2nd,3rd,-0.33539210738090497,-0.2680432584118046,0.42265471603277077
perc,resp,885,1,3.3.1left.bmp,1.2.3right.bmp,,ACC014,"[2, 2, -2]","[-2, 0, 2]",[],non-match,0.1339745962155613,1,0.5697142733222491,0.4412342235797035,0.3377751301556009,3rd,3rd,3rd,0.2987564483745451,0.27569233083350203,0.42265471603277077
perc,resp,1078,1,1.3.3left.bmp,2.2.2right.bmp,,ACC014,"[-2, 2, 2]","[0, 0, 0]",[],non-match,0.5,3,-0.5950143485869587,0.5726550414739688,0.5474780414627429,2nd,3rd,3rd,-0.33539210738090497,0.27569233083350203,0.42265471603277077
perc,resp,1231,1,1.3.1left.bmp,1.1.2right.bmp,,ACC014,"[-2, 2, -2]","[-2, -2, 0]",[],non-match,0.3545027756320971,2,-0.2672992977535179,-0.23509503783177574,0.758618689938158,2nd,2nd,3rd,-0.33539210738090497,-0.2680432584118046,0.42265471603277077
perc,resp,932,1,3.1.3left.bmp,1.2.2right.bmp,,ACC014,"[2, -2, 2]","[-2, 0, 0]",[],non-match,0.29289321881345254,1,-1.090736290869863,-0.24816059812297533,0.8609594868251076,1st,2nd,4th,-1.234654563158233,-0.2680432584118046,1.3187353340780108
perc,resp,1407,1,1.1.1left.bmp,1.1.1right.bmp,,ACC014,"[-2, -2, -2]","[-2, -2, -2]",[],match,1.0,,0.170864599168798,-0.4427238073061711,0.9971104620761915,3rd,2nd,4th,0.2987564483745451,-0.2680432584118046,1.3187353340780108
perc,resp,784,1,3.2.3left.bmp,1.3.2right.bmp,,ACC014,"[2, 0, 2]","[-2, 2, 0]",[],non-match,0.29289321881345254,1,0.7073160975553207,1.4797716113788748,0.9544943414576507,4th,4th,4th,1.271290222164593,1.1918263401835507,1.3187353340780108
perc,resp,897,1,3.3.3left.bmp,2.1.3right.bmp,,ACC014,"[2, 2, 2]","[0, -2, 2]",[],non-match,0.3545027756320971,2,-0.6793298122414542,0.01725754362815194,0.6838207148323158,1st,3rd,3rd,-1.234654563158233,0.27569233083350203,0.42265471603277077
perc,resp,987,1,1.1.3left.bmp,3.3.2right.bmp,,ACC014,"[-2, -2, 2]","[2, 2, 0]",[],non-match,0.1339745962155613,1,0.06810400293458281,0.2020386950146065,0.7295093911330762,3rd,3rd,3rd,0.2987564483745451,0.27569233083350203,0.42265471603277077
perc,resp,1173,0,3.2.1left.bmp,3.3.1right.bmp,,ACC014,"[2, 0, -2]","[2, 2, -2]",[],non-match,0.7113248654051871,4,1.4811846599967726,0.35588968750444533,0.837418216148038,4th,3rd,4th,1.271290222164593,0.27569233083350203,1.3187353340780108
perc,resp,1216,0,2.3.2left.bmp,2.3.2right.bmp,,ACC014,"[0, 2, 0]","[0, 2, 0]",[],match,1.0,,-0.0338618007252149,0.976991278998926,0.5688575260826448,3rd,4th,3rd,0.2987564483745451,1.1918263401835507,0.42265471603277077
perc,resp,810,1,1.3.2left.bmp,1.3.2right.bmp,,ACC014,"[-2, 2, 0]","[-2, 2, 0]",[],match,1.0,,0.29150509109317335,0.26715811425659747,0.42249730877035396,3rd,3rd,3rd,0.2987564483745451,0.27569233083350203,0.42265471603277077
perc,resp,1151,1,3.1.2left.bmp,3.1.2right.bmp,,ACC014,"[2, -2, 0]","[2, -2, 0]",[],match,1.0,,0.4099899175947206,0.04797506484082335,0.4446284373196368,3rd,3rd,3rd,0.2987564483745451,0.27569233083350203,0.42265471603277077
perc,resp,1065,1,3.2.2left.bmp,1.3.1right.bmp,,ACC014,"[2, 0, 0]","[-2, 2, -2]",[],non-match,0.29289321881345254,1,0.19495642675746186,-0.7104584639151701,0.38617909928582145,3rd,1st,3rd,0.2987564483745451,-1.199475412605248,0.42265471603277077
perc,resp,1036,1,2.1.3left.bmp,2.1.3right.bmp,,ACC014,"[0, -2, 2]","[0, -2, 2]",[],match,1.0,,0.5304134860749196,0.6013192079004672,0.5613332479946085,3rd,4th,3rd,0.2987564483745451,1.1918263401835507,0.42265471603277077
perc,resp,1057,1,2.2.3left.bmp,2.2.3right.bmp,,ACC014,"[0, 0, 2]","[0, 0, 2]",[],match,1.0,,1.2422373200292618,1.1920810190455569,0.6159488119357472,4th,4th,3rd,1.271290222164593,1.1918263401835507,0.42265471603277077
perc,resp,938,1,3.2.2left.bmp,3.2.2right.bmp,,ACC014,"[2, 0, 0]","[2, 0, 0]",[],match,1.0,,-0.5287177204941458,-0.6988431813595452,0.6510128970527889,2nd,1st,3rd,-0.33539210738090497,-1.199475412605248,0.42265471603277077
perc,resp,1031,1,2.2.1left.bmp,2.2.1right.bmp,,ACC014,"[0, 0, -2]","[0, 0, -2]",[],match,1.0,,1.2248174723937888,0.3373949171808047,0.5649885564919217,4th,3rd,3rd,1.271290222164593,0.27569233083350203,0.42265471603277077
perc,resp,900,1,3.1.1left.bmp,3.1.1right.bmp,,ACC014,"[2, -2, -2]","[2, -2, -2]",[],match,1.0,,1.1594251567555185,2.1144196312673555,-0.0391197638104629,4th,4th,2nd,1.271290222164593,1.1918263401835507,-0.5007246736891283
perc,resp,1250,1,1.1.3left.bmp,1.3.1right.bmp,,ACC014,"[-2, -2, 2]","[-2, 2, -2]",[],non-match,0.18350341907227385,1,0.18964490278482596,0.9969509722126559,-0.03594618582310013,3rd,4th,3rd,0.2987564483745451,1.1918263401835507,0.42265471603277077
perc,resp,1051,1,3.1.3left.bmp,3.1.3right.bmp,,ACC014,"[2, -2, 2]","[2, -2, 2]",[],match,1.0,,1.6151302061990602,2.785320090085005,0.30633059359101655,4th,4th,3rd,1.271290222164593,1.1918263401835507,0.42265471603277077
perc,resp,920,0,1.1.1left.bmp,2.1.2right.bmp,,ACC014,"[-2, -2, -2]","[0, -2, 0]",[],non-match,0.5917517095361369,3,-0.3258348633455997,0.44221375127131524,0.035743724518995434,2nd,3rd,3rd,-0.33539210738090497,0.27569233083350203,0.42265471603277077
perc,resp,1253,1,1.3.2left.bmp,1.3.2right.bmp,,ACC014,"[-2, 2, 0]","[-2, 2, 0]",[],match,1.0,,0.5227841440763643,0.4062922430361295,-0.33420267883657506,3rd,3rd,2nd,0.2987564483745451,0.27569233083350203,-0.5007246736891283
perc,resp,1374,0,2.1.3left.bmp,2.2.1right.bmp,,ACC014,"[0, -2, 2]","[0, 0, -2]",[],non-match,0.3545027756320971,2,1.026121752435931,-0.3608853031133699,-0.36008269570867646,4th,2nd,2nd,1.271290222164593,-0.2680432584118046,-0.5007246736891283
perc,resp,973,1,2.3.2left.bmp,3.1.2right.bmp,,ACC014,"[0, 2, 0]","[2, -2, 0]",[],non-match,0.3545027756320971,2,0.2204018610678158,-0.3650823056089923,-0.5283131307457894,3rd,2nd,2nd,0.2987564483745451,-0.2680432584118046,-0.5007246736891283
perc,resp,874,1,1.2.3left.bmp,3.3.1right.bmp,,ACC014,"[-2, 0, 2]","[2, 2, -2]",[],non-match,0.1339745962155613,1,1.5726000533795614,1.3147457548363384,-0.2640820067822596,4th,4th,2nd,1.271290222164593,1.1918263401835507,-0.5007246736891283
perc,resp,1293,1,2.2.2left.bmp,2.2.2right.bmp,,ACC014,"[0, 0, 0]","[0, 0, 0]",[],match,1.0,,-0.20823959709189807,-0.21839426498297837,-0.26116499419602757,2nd,2nd,2nd,-0.33539210738090497,-0.2680432584118046,-0.5007246736891283
perc,resp,1022,0,2.3.3left.bmp,2.2.3right.bmp,,ACC014,"[0, 2, 2]","[0, 0, 2]",[],non-match,0.7113248654051871,4,-0.23732792583989015,-0.27347353670368807,-0.5787671561732313,2nd,2nd,2nd,-0.33539210738090497,-0.2680432584118046,-0.5007246736891283
perc,resp,1658,1,3.3.2left.bmp,3.2.1right.bmp,,ACC014,"[2, 2, 0]","[2, 0, -2]",[],non-match,0.5917517095361369,3,0.3164065152891301,-0.20897949045850447,-0.6546265167820294,3rd,2nd,2nd,0.2987564483745451,-0.2680432584118046,-0.5007246736891283
perc,resp,927,1,3.2.3left.bmp,2.2.1right.bmp,,ACC014,"[2, 0, 2]","[0, 0, -2]",[],non-match,0.3545027756320971,2,0.7736269230179114,0.22064197982162254,-0.9198825990693095,4th,3rd,1st,1.271290222164593,0.27569233083350203,-1.240665376421654
perc,resp,1350,1,1.3.1left.bmp,1.3.1right.bmp,,ACC014,"[-2, 2, -2]","[-2, 2, -2]",[],match,1.0,,-0.6377054471713068,0.31122984338082793,-0.4650034916483746,2nd,3rd,2nd,-0.33539210738090497,0.27569233083350203,-0.5007246736891283
perc,resp,1189,1,2.1.1left.bmp,1.2.1right.bmp,,ACC014,"[0, -2, -2]","[-2, 0, -2]",[],non-match,0.5917517095361369,3,0.2608275968869543,-0.5898718234884369,-0.7847627958815141,3rd,1st,2nd,0.2987564483745451,-1.199475412605248,-0.5007246736891283
perc,resp,776,1,3.2.1left.bmp,1.2.2right.bmp,,ACC014,"[2, 0, -2]","[-2, 0, 0]",[],non-match,0.3545027756320971,2,-0.022401394221908993,-0.6066207646352364,-0.36279275458594334,3rd,1st,2nd,0.2987564483745451,-1.199475412605248,-0.5007246736891283
perc,resp,652,1,2.3.1left.bmp,1.2.3right.bmp,,ACC014,"[0, 2, -2]","[-2, 0, 2]",[],non-match,0.29289321881345254,1,-0.17072543052622297,1.1779926972990316,-1.003388332565574,2nd,4th,1st,-0.33539210738090497,1.1918263401835507,-1.240665376421654
perc,resp,1053,0,3.3.3left.bmp,3.1.3right.bmp,,ACC014,"[2, 2, 2]","[2, -2, 2]",[],non-match,0.42264973081037416,2,-1.3439010862008516,0.5605539336457771,-0.9420317309495038,1st,3rd,1st,-1.234654563158233,0.27569233083350203,-1.240665376421654
perc,resp,1586,1,3.1.2left.bmp,3.1.2right.bmp,,ACC014,"[2, -2, 0]","[2, -2, 0]",[],match,1.0,,-1.558604755133759,-0.6275284543191888,-1.1058009149885084,1st,1st,1st,-1.234654563158233,-1.199475412605248,-1.240665376421654
perc,resp,1601,1,2.1.2left.bmp,3.2.2right.bmp,,ACC014,"[0, -2, 0]","[2, 0, 0]",[],non-match,0.5917517095361369,3,-0.4542243117849955,0.3141720481322048,-1.133334937512032,2nd,3rd,1st,-0.33539210738090497,0.27569233083350203,-1.240665376421654
perc,resp,901,1,3.3.1left.bmp,1.1.3right.bmp,,ACC014,"[2, 2, -2]","[-2, -2, 2]",[],non-match,0.0,1,0.2871629164278791,-0.6170099285977286,-1.2637969185219842,3rd,1st,1st,0.2987564483745451,-1.199475412605248,-1.240665376421654
perc,resp,812,1,1.2.1left.bmp,3.3.3right.bmp,,ACC014,"[-2, 0, -2]","[2, 2, 2]",[],non-match,0.1339745962155613,1,1.1507416391241951,-0.5198252038536166,-1.2078834545355552,4th,2nd,1st,1.271290222164593,-0.2680432584118046,-1.240665376421654
perc,resp,1272,1,2.2.3left.bmp,1.1.1right.bmp,,ACC014,"[0, 0, 2]","[-2, -2, -2]",[],non-match,0.29289321881345254,1,0.6852534330653341,-0.5085032770978549,-1.1804824152106377,4th,2nd,1st,1.271290222164593,-0.2680432584118046,-1.240665376421654
perc,resp,801,1,1.2.2left.bmp,2.3.1right.bmp,,ACC014,"[-2, 0, 0]","[0, 2, -2]",[],non-match,0.5,3,-0.6648310089492016,0.5967952359195796,-0.997929815295535,1st,4th,1st,-1.234654563158233,1.1918263401835507,-1.240665376421654
perc,resp,596,0,1.3.3left.bmp,1.3.3right.bmp,,ACC014,"[-2, 2, 2]","[-2, 2, 2]",[],match,1.0,,0.2442669091362341,-0.6441712803433214,-0.5713461831302711,3rd,1st,2nd,0.2987564483745451,-1.199475412605248,-0.5007246736891283
perc,resp,1186,1,1.1.2left.bmp,1.1.2right.bmp,,ACC014,"[-2, -2, 0]","[-2, -2, 0]",[],match,1.0,,0.4582766529776928,0.772241470749301,-0.4762263697695142,3rd,4th,2nd,0.2987564483745451,1.1918263401835507,-0.5007246736891283
perc,resp,1115,1,2.3.3left.bmp,2.3.3right.bmp,,ACC014,"[0, 2, 2]","[0, 2, 2]",[],match,1.0,,-0.19722954634556816,1.8574557048799767,-0.27547762805791265,2nd,4th,2nd,-0.33539210738090497,1.1918263401835507,-0.5007246736891283
perc,resp,1258,1,3.3.2left.bmp,3.2.2right.bmp,,ACC014,"[2, 2, 0]","[2, 0, 0]",[],non-match,0.7113248654051871,4,-0.023674970871054808,-0.10622840731841979,-0.5453572111461292,3rd,2nd,2nd,0.2987564483745451,-0.2680432584118046,-0.5007246736891283
perc,resp,1431,0,1.3.2left.bmp,1.2.1right.bmp,,ACC014,"[-2, 2, 0]","[-2, 0, -2]",[],non-match,0.5917517095361369,3,-0.8709351186997107,-0.12965997547772426,-0.876716016779032,1st,2nd,2nd,-1.234654563158233,-0.2680432584118046,-0.5007246736891283
perc,resp,1274,1,2.2.1left.bmp,2.2.1right.bmp,,ACC014,"[0, 0, -2]","[0, 0, -2]",[],match,1.0,,-0.3621227408007871,-1.5729149152412834,-0.9324712758901409,2nd,1st,1st,-0.33539210738090497,-1.199475412605248,-1.240665376421654
perc,resp,1434,1,2.1.2left.bmp,2.1.2right.bmp,,ACC014,"[0, -2, 0]","[0, -2, 0]",[],match,1.0,,-1.1033369899141305,0.8613875448773265,-1.140585776464635,1st,4th,1st,-1.234654563158233,1.1918263401835507,-1.240665376421654
perc,resp,1207,0,1.1.2left.bmp,2.1.1right.bmp,,ACC014,"[-2, -2, 0]","[0, -2, -2]",[],non-match,0.5917517095361369,3,-0.38814479040679384,0.7807513693898751,-1.3256928983974214,2nd,4th,1st,-0.33539210738090497,1.1918263401835507,-1.240665376421654
perc,resp,2246,0,2.2.3left.bmp,2.2.3right.bmp,,ACC014,"[0, 0, 2]","[0, 0, 2]",[],match,1.0,,0.5619776739864943,-0.05140704423842312,-1.279703246035551,3rd,2nd,1st,0.2987564483745451,-0.2680432584118046,-1.240665376421654
perc,resp,926,1,3.2.1left.bmp,2.3.2right.bmp,,ACC014,"[2, 0, -2]","[0, 2, 0]",[],non-match,0.5,3,-1.3957664731782558,0.9436941281276409,-1.14541791340846,1st,4th,1st,-1.234654563158233,1.1918263401835507,-1.240665376421654
perc,resp,1345,1,2.3.1left.bmp,3.3.3right.bmp,,ACC014,"[0, 2, -2]","[2, 2, 2]",[],non-match,0.3545027756320971,2,-1.0120092812454091,-0.3299188595449037,-1.249342371377869,1st,2nd,1st,-1.234654563158233,-0.2680432584118046,-1.240665376421654
perc,resp,965,1,3.1.2left.bmp,3.1.2right.bmp,,ACC014,"[2, -2, 0]","[2, -2, 0]",[],match,1.0,,0.4139705810446051,0.5328485608126909,-1.076248387522624,3rd,3rd,1st,0.2987564483745451,0.27569233083350203,-1.240665376421654
perc,resp,1045,0,1.1.1left.bmp,1.1.1right.bmp,,ACC014,"[-2, -2, -2]","[-2, -2, -2]",[],match,1.0,,0.9069543291466181,-0.10483419766280327,-1.2255982247591557,4th,2nd,1st,1.271290222164593,-0.2680432584118046,-1.240665376421654
perc,resp,1075,1,2.2.2left.bmp,2.2.2right.bmp,,ACC014,"[0, 0, 0]","[0, 0, 0]",[],match,1.0,,-0.3881327779623204,-0.49857913640329404,-1.4871868594570765,2nd,2nd,1st,-0.33539210738090497,-0.2680432584118046,-1.240665376421654
perc,resp,843,1,1.3.3left.bmp,1.3.3right.bmp,,ACC014,"[-2, 2, 2]","[-2, 2, 2]",[],match,1.0,,1.4981967187180354,1.501463009230934,-1.4477215180879783,4th,4th,1st,1.271290222164593,1.1918263401835507,-1.240665376421654
perc,resp,970,0,3.3.3left.bmp,3.3.3right.bmp,,ACC014,"[2, 2, 2]","[2, 2, 2]",[],match,1.0,,0.4376590108658398,1.1018572697916447,-1.5577664526353416,3rd,4th,1st,0.2987564483745451,1.1918263401835507,-1.240665376421654
perc,resp,958,1,3.3.1left.bmp,1.2.3right.bmp,,ACC014,"[2, 2, -2]","[-2, 0, 2]",[],non-match,0.1339745962155613,1,1.2487380069360232,0.29061385710681686,-1.2823295550804965,4th,3rd,1st,1.271290222164593,0.27569233083350203,-1.240665376421654
perc,resp,966,1,1.3.3left.bmp,1.3.3right.bmp,,ACC014,"[-2, 2, 2]","[-2, 2, 2]",[],match,1.0,,0.5450436742342171,0.6180995218203074,-1.3089782256849798,3rd,4th,1st,0.2987564483745451,1.1918263401835507,-1.240665376421654
perc,resp,1389,1,3.2.2left.bmp,3.2.2right.bmp,,ACC014,"[2, 0, 0]","[2, 0, 0]",[],match,1.0,,-0.5970068054826176,-0.1775432928071245,-1.1846973828782648,2nd,2nd,1st,-0.33539210738090497,-0.2680432584118046,-1.240665376421654
perc,resp,875,0,2.3.1left.bmp,3.3.1right.bmp,,ACC014,"[0, 2, -2]","[2, 2, -2]",[],non-match,0.7113248654051871,4,0.7652845550789602,0.06631944504607737,-1.1435906947224168,4th,3rd,1st,1.271290222164593,0.27569233083350203,-1.240665376421654
perc,resp,1378,1,3.1.3left.bmp,1.3.2right.bmp,,ACC014,"[2, -2, 2]","[-2, 2, 0]",[],non-match,0.1339745962155613,1,0.33772312755375333,-2.1317530878551567,-0.9632336693850747,3rd,1st,1st,0.2987564483745451,-1.199475412605248,-1.240665376421654
perc,resp,979,1,3.2.1left.bmp,2.3.3right.bmp,,ACC014,"[2, 0, -2]","[0, 2, 2]",[],non-match,0.29289321881345254,1,1.4302000239283224,0.39469826046566364,-0.8938529251632927,4th,3rd,2nd,1.271290222164593,0.27569233083350203,-0.5007246736891283
perc,resp,896,1,1.3.1left.bmp,1.3.1right.bmp,,ACC014,"[-2, 2, -2]","[-2, 2, -2]",[],match,1.0,,-0.8821667926722927,0.18985754813484673,-1.0293003225763915,1st,3rd,1st,-1.234654563158233,0.27569233083350203,-1.240665376421654
perc,resp,1005,0,2.1.2left.bmp,3.1.2right.bmp,,ACC014,"[0, -2, 0]","[2, -2, 0]",[],non-match,0.7113248654051871,4,0.5537146288125173,-0.12926779317923437,-1.1763490555796106,3rd,2nd,1st,0.2987564483745451,-0.2680432584118046,-1.240665376421654
perc,resp,1171,1,2.2.3left.bmp,2.2.3right.bmp,,ACC014,"[0, 0, 2]","[0, 0, 2]",[],match,1.0,,-0.2941282678043313,-1.5146901693438688,-1.535383134312668,2nd,1st,1st,-0.33539210738090497,-1.199475412605248,-1.240665376421654
perc,resp,1256,1,1.2.1left.bmp,1.2.1right.bmp,,ACC014,"[-2, 0, -2]","[-2, 0, -2]",[],match,1.0,,-0.6888760451874343,-0.02698544552553599,-1.2776672095610249,1st,3rd,1st,-1.234654563158233,0.27569233083350203,-1.240665376421654
perc,resp,955,1,3.1.1left.bmp,3.1.1right.bmp,,ACC014,"[2, -2, -2]","[2, -2, -2]",[],match,1.0,,-1.0140877191509075,0.06149016573273963,-1.0329046360065013,1st,3rd,1st,-1.234654563158233,0.27569233083350203,-1.240665376421654
perc,resp,922,1,2.2.1left.bmp,1.1.2right.bmp,,ACC014,"[0, 0, -2]","[-2, -2, 0]",[],non-match,0.5,3,0.39229136905907036,-0.6064470599741136,-1.2042075662783946,3rd,1st,1st,0.2987564483745451,-1.199475412605248,-1.240665376421654
perc,resp,1747,1,2.1.1left.bmp,1.1.1right.bmp,,ACC014,"[0, -2, -2]","[-2, -2, -2]",[],non-match,0.7113248654051871,4,-1.1816952528298208,-0.1106937986812477,-0.5418735385872147,1st,2nd,2nd,-1.234654563158233,-0.2680432584118046,-0.5007246736891283
perc,resp,1016,1,2.3.3left.bmp,2.3.3right.bmp,,ACC014,"[0, 2, 2]","[0, 2, 2]",[],match,1.0,,1.5562033569779574,1.0760708422740848,-0.7370969333877417,4th,4th,2nd,1.271290222164593,1.1918263401835507,-0.5007246736891283
perc,resp,851,1,1.1.3left.bmp,1.3.1right.bmp,,ACC014,"[-2, -2, 2]","[-2, 2, -2]",[],non-match,0.18350341907227385,1,0.5444416111815845,-0.9916521986070841,-0.6931348836698201,3rd,1st,2nd,0.2987564483745451,-1.199475412605248,-0.5007246736891283
perc,resp,1494,1,1.1.2left.bmp,1.1.2right.bmp,,ACC014,"[-2, -2, 0]","[-2, -2, 0]",[],match,1.0,,-0.5545595252827445,-0.7586906845083893,-0.46422166109483404,2nd,1st,2nd,-0.33539210738090497,-1.199475412605248,-0.5007246736891283
perc,resp,1193,1,3.1.2left.bmp,3.1.2right.bmp,,ACC014,"[2, -2, 0]","[2, -2, 0]",[],match,1.0,,-1.018969264373569,-0.16582443030241206,0.1808814087502232,1st,2nd,3rd,-1.234654563158233,-0.2680432584118046,0.42265471603277077
perc,resp,880,1,1.2.2left.bmp,2.3.1right.bmp,,ACC014,"[-2, 0, 0]","[0, 2, -2]",[],non-match,0.5,3,0.6933718640518511,-0.15879699704767505,-0.06716951933979638,4th,2nd,2nd,1.271290222164593,-0.2680432584118046,-0.5007246736891283
perc,resp,1212,1,3.2.3left.bmp,3.2.3right.bmp,,ACC014,"[2, 0, 2]","[2, 0, 2]",[],match,1.0,,0.28558986299687206,-0.48084962633287726,-0.017791949147711567,3rd,2nd,3rd,0.2987564483745451,-0.2680432584118046,0.42265471603277077
perc,resp,740,1,3.3.3left.bmp,1.3.3right.bmp,,ACC014,"[2, 2, 2]","[-2, 2, 2]",[],non-match,0.42264973081037416,2,1.1067031675489165,-1.0870127754191443,-0.13060591830345075,4th,1st,2nd,1.271290222164593,-1.199475412605248,-0.5007246736891283
perc,resp,1238,1,1.2.3left.bmp,1.2.1right.bmp,,ACC014,"[-2, 0, 2]","[-2, 0, -2]",[],non-match,0.42264973081037416,2,-0.5637406378339384,-0.4366678435127411,-0.3282636128306286,2nd,2nd,2nd,-0.33539210738090497,-0.2680432584118046,-0.5007246736891283
perc,resp,999,0,1.1.1left.bmp,3.1.2right.bmp,,ACC014,"[-2, -2, -2]","[2, -2, 0]",[],non-match,0.3545027756320971,2,-0.05268375239834871,0.9066073454652193,0.031536235769902145,2nd,4th,3rd,-0.33539210738090497,1.1918263401835507,0.42265471603277077
perc,resp,1068,1,1.3.2left.bmp,1.3.2right.bmp,,ACC014,"[-2, 2, 0]","[-2, 2, 0]",[],match,1.0,,-1.1975653269804087,1.0353289731040443,0.22642386482095206,1st,4th,3rd,-1.234654563158233,1.1918263401835507,0.42265471603277077
perc,resp,1167,1,3.3.1left.bmp,3.3.1right.bmp,,ACC014,"[2, 2, -2]","[2, 2, -2]",[],match,1.0,,0.07247617018527375,-1.19742063733723,0.2504931623582922,3rd,1st,3rd,0.2987564483745451,-1.199475412605248,0.42265471603277077
perc,resp,1379,1,3.3.2left.bmp,3.3.2right.bmp,,ACC014,"[2, 2, 0]","[2, 2, 0]",[],match,1.0,,-0.15267738260233923,1.092943871113388,0.24433479404629052,2nd,4th,3rd,-0.33539210738090497,1.1918263401835507,0.42265471603277077
perc,resp,1440,1,2.3.2left.bmp,1.1.2right.bmp,,ACC014,"[0, 2, 0]","[-2, -2, 0]",[],non-match,0.3545027756320971,2,-1.086158189675293,-1.4709088986782684,0.30416522470258545,1st,1st,3rd,-1.234654563158233,-1.199475412605248,0.42265471603277077
perc,resp,789,1,2.1.3left.bmp,3.2.1right.bmp,,ACC014,"[0, -2, 2]","[2, 0, -2]",[],non-match,0.29289321881345254,1,1.1161584153467317,-0.35409939041299543,0.09256505063420566,4th,2nd,3rd,1.271290222164593,-0.2680432584118046,0.42265471603277077
perc,resp,998,0,2.2.2left.bmp,2.2.2right.bmp,,ACC014,"[0, 0, 0]","[0, 0, 0]",[],match,1.0,,-0.06924099065327474,-1.5825081846599929,0.610786592845823,2nd,1st,3rd,-0.33539210738090497,-1.199475412605248,0.42265471603277077
perc,resp,917,0,3.3.3left.bmp,3.2.2right.bmp,,ACC014,"[2, 2, 2]","[2, 0, 0]",[],non-match,0.5917517095361369,3,-1.171727681274624,0.8981916556856816,0.6692953785756816,1st,4th,3rd,-1.234654563158233,1.1918263401835507,0.42265471603277077
perc,resp,1337,0,2.3.3left.bmp,2.3.3right.bmp,,ACC014,"[0, 2, 2]","[0, 2, 2]",[],match,1.0,,-0.4659868553856195,-0.9749294014378187,1.0643010283258265,2nd,1st,4th,-0.33539210738090497,-1.199475412605248,1.3187353340780108
perc,resp,1109,1,1.3.1left.bmp,1.3.1right.bmp,,ACC014,"[-2, 2, -2]","[-2, 2, -2]",[],match,1.0,,0.9977168057720223,-0.753658274412029,1.0072180443386127,4th,1st,4th,1.271290222164593,-1.199475412605248,1.3187353340780108
perc,resp,733,1,2.1.1left.bmp,1.1.3right.bmp,,ACC014,"[0, -2, -2]","[-2, -2, 2]",[],non-match,0.3545027756320971,2,0.7317467592044432,-0.38420360333883846,1.0489468474795887,4th,2nd,4th,1.271290222164593,-0.2680432584118046,1.3187353340780108
perc,resp,782,1,1.2.2left.bmp,2.2.1right.bmp,,ACC014,"[-2, 0, 0]","[0, 0, -2]",[],non-match,0.5917517095361369,3,0.461729717386859,-0.5195228617688347,1.244197507727518,3rd,2nd,4th,0.2987564483745451,-0.2680432584118046,1.3187353340780108
perc,resp,849,1,1.3.2left.bmp,2.1.2right.bmp,,ACC014,"[-2, 2, 0]","[0, -2, 0]",[],non-match,0.3545027756320971,2,-1.3117404502978203,-0.011851455219558937,1.1203869966450404,1st,3rd,4th,-1.234654563158233,0.27569233083350203,1.3187353340780108
perc,resp,647,0,1.3.3left.bmp,1.3.3right.bmp,,ACC014,"[-2, 2, 2]","[-2, 2, 2]",[],match,1.0,,0.31360578339100226,0.6386993010917953,1.1573696790713366,3rd,4th,4th,0.2987564483745451,1.1918263401835507,1.3187353340780108
perc,resp,1368,1,3.1.1left.bmp,3.1.1right.bmp,,ACC014,"[2, -2, -2]","[2, -2, -2]",[],match,1.0,,0.11194181519905039,-0.19358460362866708,1.454304351672341,3rd,2nd,4th,0.2987564483745451,-0.2680432584118046,1.3187353340780108
perc,resp,1955,1,2.2.1left.bmp,2.2.2right.bmp,,ACC014,"[0, 0, -2]","[0, 0, 0]",[],non-match,0.7113248654051871,4,-0.28626507693664877,1.3846224725704042,1.3852242371326775,2nd,4th,4th,-0.33539210738090497,1.1918263401835507,1.3187353340780108
perc,resp,775,1,2.1.3left.bmp,3.1.2right.bmp,,ACC014,"[0, -2, 2]","[2, -2, 0]",[],non-match,0.5917517095361369,3,-0.6690762245721494,-0.9248361144473027,1.2544683348052108,1st,1st,4th,-1.234654563158233,-1.199475412605248,1.3187353340780108
perc,resp,821,1,2.2.3left.bmp,2.3.2right.bmp,,ACC014,"[0, 0, 2]","[0, 2, 0]",[],non-match,0.5917517095361369,3,-0.49206452961963765,0.33710387019973664,1.4088256424559584,2nd,3rd,4th,-0.33539210738090497,0.27569233083350203,1.3187353340780108
perc,resp,788,0,3.3.1left.bmp,3.3.1right.bmp,,ACC014,"[2, 2, -2]","[2, 2, -2]",[],match,1.0,,-0.42916824414632804,0.39930915268354755,1.7647661857959058,2nd,3rd,4th,-0.33539210738090497,0.27569233083350203,1.3187353340780108
perc,resp,1995,1,2.3.1left.bmp,2.3.1right.bmp,,ACC014,"[0, 2, -2]","[0, 2, -2]",[],match,1.0,,-0.1678698434585857,-0.16462029075879053,1.8748464727621394,2nd,2nd,4th,-0.33539210738090497,-0.2680432584118046,1.3187353340780108
perc,resp,996,1,3.1.3left.bmp,3.1.3right.bmp,,ACC014,"[2, -2, 2]","[2, -2, 2]",[],match,1.0,,0.9065986561334727,0.601804738911815,2.0112353377489267,4th,4th,4th,1.271290222164593,1.1918263401835507,1.3187353340780108
perc,resp,1367,0,2.3.2left.bmp,2.3.3right.bmp,,ACC014,"[0, 2, 0]","[0, 2, 2]",[],non-match,0.7113248654051871,4,-1.233478843433535,1.3757078063053574,1.9078021455543033,1st,4th,4th,-1.234654563158233,1.1918263401835507,1.3187353340780108
perc,resp,1300,1,1.1.3left.bmp,1.2.1right.bmp,,ACC014,"[-2, -2, 2]","[-2, 0, -2]",[],non-match,0.3545027756320971,2,0.18945611935302695,-0.5626159686205886,1.732949392878032,3rd,1st,4th,0.2987564483745451,-1.199475412605248,1.3187353340780108
perc,resp,1159,1,3.2.3left.bmp,3.2.3right.bmp,,ACC014,"[2, 0, 2]","[2, 0, 2]",[],match,1.0,,0.651009243811524,-0.0007441354343604741,2.042926336852413,3rd,3rd,4th,0.2987564483745451,0.27569233083350203,1.3187353340780108
perc,resp,1110,0,1.2.3left.bmp,2.2.3right.bmp,,ACC014,"[-2, 0, 2]","[0, 0, 2]",[],non-match,0.7113248654051871,4,-1.1391590085711452,0.2799435378673108,2.0478218951459364,1st,3rd,4th,-1.234654563158233,0.27569233083350203,1.3187353340780108
perc,resp,2039,1,2.2.2left.bmp,3.3.1right.bmp,,ACC014,"[0, 0, 0]","[2, 2, -2]",[],non-match,0.5,3,0.973074777259927,0.5638632405855941,1.8597662805183368,4th,3rd,4th,1.271290222164593,0.27569233083350203,1.3187353340780108
perc,resp,1187,0,1.2.1left.bmp,2.2.1right.bmp,,ACC014,"[-2, 0, -2]","[0, 0, -2]",[],non-match,0.7113248654051871,4,-0.12332010363021842,1.2137443489044202,1.7616838383094429,2nd,4th,4th,-0.33539210738090497,1.1918263401835507,1.3187353340780108
perc,resp,2269,0,3.3.2left.bmp,2.1.1right.bmp,,ACC014,"[2, 2, 0]","[0, -2, -2]",[],non-match,0.29289321881345254,1,-1.3989661173726562,-0.06341009517425343,1.8526663063493867,1st,2nd,4th,-1.234654563158233,-0.2680432584118046,1.3187353340780108
perc,resp,1797,1,3.2.1left.bmp,3.2.1right.bmp,,ACC014,"[2, 0, -2]","[2, 0, -2]",[],match,1.0,,-0.053475652783943735,-0.20903223112314026,1.6821691047327623,2nd,2nd,4th,-0.33539210738090497,-0.2680432584118046,1.3187353340780108
perc,resp,1902,1,3.2.2left.bmp,3.2.2right.bmp,,ACC014,"[2, 0, 0]","[2, 0, 0]",[],match,1.0,,-0.9804076636353213,-0.9350886280267878,1.4705055189743295,1st,1st,4th,-1.234654563158233,-1.199475412605248,1.3187353340780108
perc,resp,692,1,3.1.2left.bmp,3.1.3right.bmp,,ACC014,"[2, -2, 0]","[2, -2, 2]",[],non-match,0.7113248654051871,4,0.581180478971111,0.4125100731354868,1.0945109377140019,3rd,3rd,4th,0.2987564483745451,0.27569233083350203,1.3187353340780108
perc,resp,738,0,1.1.2left.bmp,1.1.2right.bmp,,ACC014,"[-2, -2, 0]","[-2, -2, 0]",[],match,1.0,,-0.06483931646414494,0.7571620319462302,1.2308027518287845,2nd,4th,4th,-0.33539210738090497,1.1918263401835507,1.3187353340780108
perc,resp,1491,1,2.1.2left.bmp,2.1.2right.bmp,,ACC014,"[0, -2, 0]","[0, -2, 0]",[],match,1.0,,-0.08321763990495966,2.1612002839027324,1.0994074247335621,2nd,4th,4th,-0.33539210738090497,1.1918263401835507,1.3187353340780108
perc,resp,868,1,1.1.1left.bmp,3.2.1right.bmp,,ACC014,"[-2, -2, -2]","[2, 0, -2]",[],non-match,0.3545027756320971,2,0.8584778702528937,-0.6996889560093826,1.0329410457049673,4th,1st,4th,1.271290222164593,-1.199475412605248,1.3187353340780108
perc,resp,1251,0,1.2.3left.bmp,1.2.3right.bmp,,ACC014,"[-2, 0, 2]","[-2, 0, 2]",[],match,1.0,,-1.165843235765776,0.34715850442718427,1.1282462513589864,1st,3rd,4th,-1.234654563158233,0.27569233083350203,1.3187353340780108
perc,resp,1202,1,1.1.3left.bmp,1.1.3right.bmp,,ACC014,"[-2, -2, 2]","[-2, -2, 2]",[],match,1.0,,-0.026597868267542592,-0.17416005839490384,0.9034012762296068,3rd,2nd,4th,0.2987564483745451,-0.2680432584118046,1.3187353340780108
perc,resp,1141,1,2.1.2left.bmp,2.1.2right.bmp,,ACC014,"[0, -2, 0]","[0, -2, 0]",[],match,1.0,,0.1669606432780487,1.3186513708187169,1.0231752179123856,3rd,4th,4th,0.2987564483745451,1.1918263401835507,1.3187353340780108
perc,resp,1150,1,1.1.2left.bmp,3.2.2right.bmp,,ACC014,"[-2, -2, 0]","[2, 0, 0]",[],non-match,0.3545027756320971,2,1.5803422664163658,3.0547706517684214,1.363521398608819,4th,4th,4th,1.271290222164593,1.1918263401835507,1.3187353340780108
perc,resp,1331,0,1.3.3left.bmp,1.3.3right.bmp,,ACC014,"[-2, 2, 2]","[-2, 2, 2]",[],match,1.0,,-1.5835271250533194,-0.5223670548988064,1.5646582958312079,1st,1st,4th,-1.234654563158233,-1.199475412605248,1.3187353340780108
perc,resp,1647,0,1.2.1left.bmp,1.3.2right.bmp,,ACC014,"[-2, 0, -2]","[-2, 2, 0]",[],non-match,0.5917517095361369,3,0.011677004317664203,0.8461699391141962,1.2566788060803802,3rd,4th,4th,0.2987564483745451,1.1918263401835507,1.3187353340780108
perc,resp,1115,0,2.1.3left.bmp,2.1.3right.bmp,,ACC014,"[0, -2, 2]","[0, -2, 2]",[],match,1.0,,-0.4288083051669926,1.792727200349687,1.3127126061572825,2nd,4th,4th,-0.33539210738090497,1.1918263401835507,1.3187353340780108
perc,resp,1122,1,2.1.1left.bmp,1.1.1right.bmp,,ACC014,"[0, -2, -2]","[-2, -2, -2]",[],non-match,0.7113248654051871,4,-0.3550028241517535,0.5772413968332842,1.6158449411084834,2nd,3rd,4th,-0.33539210738090497,0.27569233083350203,1.3187353340780108
perc,resp,1385,0,2.3.2left.bmp,2.3.2right.bmp,,ACC014,"[0, 2, 0]","[0, 2, 0]",[],match,1.0,,-0.49543276308142276,-0.45815663119778105,1.0913508543560542,2nd,2nd,4th,-0.33539210738090497,-0.2680432584118046,1.3187353340780108
perc,resp,976,0,2.2.3left.bmp,3.1.1right.bmp,,ACC014,"[0, 0, 2]","[2, -2, -2]",[],non-match,0.29289321881345254,1,1.8813408020091416,0.5934804964649503,0.9744628533179791,4th,3rd,4th,1.271290222164593,0.27569233083350203,1.3187353340780108
perc,resp,1488,1,3.3.3left.bmp,3.3.3right.bmp,,ACC014,"[2, 2, 2]","[2, 2, 2]",[],match,1.0,,-0.5340616775344413,1.1650332068595413,0.9402675048951891,2nd,4th,4th,-0.33539210738090497,1.1918263401835507,1.3187353340780108
perc,resp,1006,1,3.1.3left.bmp,1.1.3right.bmp,,ACC014,"[2, -2, 2]","[-2, -2, 2]",[],non-match,0.42264973081037416,2,1.0916088592783368,-0.2955159202835782,0.7854783644189564,4th,2nd,4th,1.271290222164593,-0.2680432584118046,1.3187353340780108
perc,resp,1449,1,3.2.3left.bmp,3.2.3right.bmp,,ACC014,"[2, 0, 2]","[2, 0, 2]",[],match,1.0,,-0.7760976955251676,0.9886193958707952,0.41855038645496934,1st,4th,3rd,-1.234654563158233,1.1918263401835507,0.42265471603277077
perc,resp,1240,1,3.2.2left.bmp,3.2.2right.bmp,,ACC014,"[2, 0, 0]","[2, 0, 0]",[],match,1.0,,-0.3953984403743184,0.886817508881287,0.5576489427982942,2nd,4th,3rd,-0.33539210738090497,1.1918263401835507,0.42265471603277077
perc,resp,1373,1,3.3.1left.bmp,3.3.1right.bmp,,ACC014,"[2, 2, -2]","[2, 2, -2]",[],match,1.0,,1.1035375538781758,0.9028129149526655,0.6407019458158619,4th,4th,3rd,1.271290222164593,1.1918263401835507,0.42265471603277077
perc,resp,1625,1,2.3.1left.bmp,3.2.1right.bmp,,ACC014,"[0, 2, -2]","[2, 0, -2]",[],non-match,0.5917517095361369,3,0.6585605887904835,2.1000423902747305,0.7292859438063334,3rd,4th,3rd,0.2987564483745451,1.1918263401835507,0.42265471603277077
perc,resp,883,1,3.3.3left.bmp,3.3.3right.bmp,,ACC014,"[2, 2, 2]","[2, 2, 2]",[],match,1.0,,1.2476428614348019,-0.2592028635432964,0.9788735420126718,4th,2nd,4th,1.271290222164593,-0.2680432584118046,1.3187353340780108
perc,resp,832,0,1.1.2left.bmp,1.1.2right.bmp,,ACC014,"[-2, -2, 0]","[-2, -2, 0]",[],match,1.0,,-2.2486712786389496,-2.8651897485328597,0.5995099880064726,1st,1st,3rd,-1.234654563158233,-1.199475412605248,0.42265471603277077
perc,resp,1302,0,2.1.3left.bmp,2.3.3right.bmp,,ACC014,"[0, -2, 2]","[0, 2, 2]",[],non-match,0.42264973081037416,2,-0.9364933185591926,-1.4198654082583877,0.6849274854155378,1st,1st,3rd,-1.234654563158233,-1.199475412605248,0.42265471603277077
perc,resp,1213,1,2.2.3left.bmp,3.1.3right.bmp,,ACC014,"[0, 0, 2]","[2, -2, 2]",[],non-match,0.5917517095361369,3,0.702045544503479,-2.0540392827811482,0.8104160893252912,4th,1st,4th,1.271290222164593,-1.199475412605248,1.3187353340780108
perc,resp,1232,1,2.2.2left.bmp,2.2.2right.bmp,,ACC014,"[0, 0, 0]","[0, 0, 0]",[],match,1.0,,-0.5406711598849162,-1.2790675322055065,0.7127573761958645,2nd,1st,3rd,-0.33539210738090497,-1.199475412605248,0.42265471603277077
perc,resp,911,1,3.3.1left.bmp,1.1.2right.bmp,,ACC014,"[2, 2, -2]","[-2, -2, 0]",[],non-match,0.1339745962155613,1,-0.07241755888714146,-0.06296770738470639,0.785028520046829,2nd,2nd,3rd,-0.33539210738090497,-0.2680432584118046,0.42265471603277077
perc,resp,1586,1,3.2.1left.bmp,3.2.1right.bmp,,ACC014,"[2, 0, -2]","[2, 0, -2]",[],match,1.0,,1.748359071712152,0.1379339789976362,0.5146492882713524,4th,3rd,3rd,1.271290222164593,0.27569233083350203,0.42265471603277077
perc,resp,1789,1,2.3.2left.bmp,2.1.1right.bmp,,ACC014,"[0, 2, 0]","[0, -2, -2]",[],non-match,0.3545027756320971,2,-1.566963503253319,-2.405336039061147,0.41065948106659916,1st,1st,3rd,-1.234654563158233,-1.199475412605248,0.42265471603277077
perc,resp,939,1,2.2.1left.bmp,2.2.1right.bmp,,ACC014,"[0, 0, -2]","[0, 0, -2]",[],match,1.0,,1.1893523234678283,0.8112883952979085,0.17441531700504823,4th,4th,3rd,1.271290222164593,1.1918263401835507,0.42265471603277077
perc,resp,1312,0,1.3.1left.bmp,1.2.3right.bmp,,ACC014,"[-2, 2, -2]","[-2, 0, 2]",[],non-match,0.3545027756320971,2,-0.7602265358645813,-0.16111785791739683,0.2698895107759422,1st,2nd,3rd,-1.234654563158233,-0.2680432584118046,0.42265471603277077
perc,resp,979,1,1.3.2left.bmp,2.1.2right.bmp,,ACC014,"[-2, 2, 0]","[0, -2, 0]",[],non-match,0.3545027756320971,2,-2.8985692537218584,-5.308042469179437,0.6007136324144691,1st,1st,3rd,-1.234654563158233,-1.199475412605248,0.42265471603277077
perc,resp,1000,1,1.1.3left.bmp,3.2.3right.bmp,,ACC014,"[-2, -2, 2]","[2, 0, 2]",[],non-match,0.3545027756320971,2,1.487187262071771,1.6657453355794962,0.7556501376635503,4th,4th,3rd,1.271290222164593,1.1918263401835507,0.42265471603277077
perc,resp,1079,0,1.1.1left.bmp,1.1.1right.bmp,,ACC014,"[-2, -2, -2]","[-2, -2, -2]",[],match,1.0,,1.3419899866312397,2.098656827371856,0.3553484929664876,4th,4th,3rd,1.271290222164593,1.1918263401835507,0.42265471603277077
perc,resp,1643,1,3.3.2left.bmp,3.3.2right.bmp,,ACC014,"[2, 2, 0]","[2, 2, 0]",[],match,1.0,,-0.8404526134976292,-0.12880073271824807,0.05735470685133974,1st,2nd,3rd,-1.234654563158233,-0.2680432584118046,0.42265471603277077
perc,resp,701,1,3.1.2left.bmp,1.3.3right.bmp,,ACC014,"[2, -2, 0]","[-2, 2, 2]",[],non-match,0.1339745962155613,1,-0.036920830878535156,-0.7493455367154263,-0.11601783611451431,2nd,1st,2nd,-0.33539210738090497,-1.199475412605248,-0.5007246736891283
perc,resp,1613,0,3.2.2left.bmp,3.3.3right.bmp,,ACC014,"[2, 0, 0]","[2, 2, 2]",[],non-match,0.5917517095361369,3,-1.6163128723178326,-0.7351305694673387,-0.7601007396730755,1st,1st,2nd,-1.234654563158233,-1.199475412605248,-0.5007246736891283
perc,resp,1345,1,3.2.3left.bmp,3.2.3right.bmp,,ACC014,"[2, 0, 2]","[2, 0, 2]",[],match,1.0,,0.4975254029809636,0.6463076738992705,-0.7964918858422855,3rd,4th,2nd,0.2987564483745451,1.1918263401835507,-0.5007246736891283
perc,resp,1395,1,1.2.2left.bmp,1.2.2right.bmp,,ACC014,"[-2, 0, 0]","[-2, 0, 0]",[],match,1.0,,0.7943337543580401,0.3125929518891443,-0.7375807877234685,4th,3rd,2nd,1.271290222164593,0.27569233083350203,-0.5007246736891283
perc,resp,1259,1,2.1.2left.bmp,2.1.2right.bmp,,ACC014,"[0, -2, 0]","[0, -2, 0]",[],match,1.0,,-2.139314439959419,0.5064909496335755,-0.8939533149311913,1st,3rd,2nd,-1.234654563158233,0.27569233083350203,-0.5007246736891283
perc,resp,895,1,2.3.1left.bmp,1.2.3right.bmp,,ACC014,"[0, 2, -2]","[-2, 0, 2]",[],non-match,0.29289321881345254,1,2.4426790032725227,-0.19294320471316345,-1.1245827155685952,4th,2nd,1st,1.271290222164593,-0.2680432584118046,-1.240665376421654
perc,resp,852,1,1.3.3left.bmp,3.3.2right.bmp,,ACC014,"[-2, 2, 2]","[2, 2, 0]",[],non-match,0.3545027756320971,2,1.339451431103344,-0.12489167614315476,-1.4615521554256692,4th,2nd,1st,1.271290222164593,-0.2680432584118046,-1.240665376421654
perc,resp,1334,0,3.1.1left.bmp,3.2.1right.bmp,,ACC014,"[2, -2, -2]","[2, 0, -2]",[],non-match,0.7113248654051871,4,0.7599632222713324,-0.7457086038614718,-1.269369066107814,4th,1st,1st,1.271290222164593,-1.199475412605248,-1.240665376421654
perc,resp,1427,1,1.2.1left.bmp,1.2.1right.bmp,,ACC014,"[-2, 0, -2]","[-2, 0, -2]",[],match,1.0,,-0.02886656710366377,-0.44242959135812915,-1.034111950525803,3rd,2nd,1st,0.2987564483745451,-0.2680432584118046,-1.240665376421654
perc,resp,1891,0,3.1.3left.bmp,2.3.1right.bmp,,ACC014,"[2, -2, 2]","[0, 2, -2]",[],non-match,0.1339745962155613,1,-0.4822291652401477,-0.7692900981118564,-1.0015672651657588,2nd,1st,1st,-0.33539210738090497,-1.199475412605248,-1.240665376421654
perc,resp,1898,1,2.1.1left.bmp,2.1.1right.bmp,,ACC014,"[0, -2, -2]","[0, -2, -2]",[],match,1.0,,-0.6472168811084338,-1.509636397014783,-1.602738405137505,1st,1st,1st,-1.234654563158233,-1.199475412605248,-1.240665376421654
perc,resp,1852,1,1.2.3left.bmp,1.2.3right.bmp,,ACC014,"[-2, 0, 2]","[-2, 0, 2]",[],match,1.0,,-1.2758097488791453,0.04763349547200083,-1.3037135754856988,1st,3rd,1st,-1.234654563158233,0.27569233083350203,-1.240665376421654
perc,resp,2324,1,2.3.3left.bmp,2.3.3right.bmp,,ACC014,"[0, 2, 2]","[0, 2, 2]",[],match,1.0,,1.6771651715444058,0.8550719747823042,-1.2329220189242345,4th,4th,1st,1.271290222164593,1.1918263401835507,-1.240665376421654
perc,resp,1043,1,1.2.1left.bmp,1.1.3right.bmp,,ACC014,"[-2, 0, -2]","[-2, -2, 2]",[],non-match,0.3545027756320971,2,0.3331223352442203,-0.11345682098573294,-1.6188620600664305,3rd,2nd,1st,0.2987564483745451,-0.2680432584118046,-1.240665376421654
perc,resp,1232,1,1.2.3left.bmp,1.2.3right.bmp,,ACC014,"[-2, 0, 2]","[-2, 0, 2]",[],match,1.0,,0.594449889056678,-0.3506175558569315,-1.5154728088414087,3rd,2nd,1st,0.2987564483745451,-0.2680432584118046,-1.240665376421654
perc,resp,1829,0,2.3.1left.bmp,2.3.1right.bmp,,ACC014,"[0, 2, -2]","[0, 2, -2]",[],match,1.0,,-1.672862028109966,-1.2286679419214912,-1.473181255457219,1st,1st,1st,-1.234654563158233,-1.199475412605248,-1.240665376421654
perc,resp,1301,1,2.1.3left.bmp,2.1.3right.bmp,,ACC014,"[0, -2, 2]","[0, -2, 2]",[],match,1.0,,0.11785697350392854,0.0746258054650179,-1.4825608097637997,3rd,3rd,1st,0.2987564483745451,0.27569233083350203,-1.240665376421654
perc,resp,1644,1,3.1.1left.bmp,3.1.1right.bmp,,ACC014,"[2, -2, -2]","[2, -2, -2]",[],match,1.0,,-1.4431624210145073,-0.4415759169263353,-1.2718327490806374,1st,2nd,1st,-1.234654563158233,-0.2680432584118046,-1.240665376421654
perc,resp,1115,1,2.1.1left.bmp,2.1.1right.bmp,,ACC014,"[0, -2, -2]","[0, -2, -2]",[],match,1.0,,-0.009999288611653317,0.21901091252019084,-1.2639126096703126,3rd,3rd,1st,0.2987564483745451,0.27569233083350203,-1.240665376421654
perc,resp,1266,1,1.3.1left.bmp,3.2.3right.bmp,,ACC014,"[-2, 2, -2]","[2, 0, 2]",[],non-match,0.1339745962155613,1,1.7483444169321507,0.6767793285457291,-1.293050517829125,4th,4th,1st,1.271290222164593,1.1918263401835507,-1.240665376421654
perc,resp,1185,1,2.2.3left.bmp,2.2.3right.bmp,,ACC014,"[0, 0, 2]","[0, 0, 2]",[],match,1.0,,-0.3377847023304525,-0.10505643278958268,-1.5157365553785018,2nd,2nd,1st,-0.33539210738090497,-0.2680432584118046,-1.240665376421654
perc,resp,1016,1,1.3.2left.bmp,2.2.1right.bmp,,ACC014,"[-2, 2, 0]","[0, 0, -2]",[],non-match,0.5,3,1.891034958807055,1.38570281868274,-1.4576810377510183,4th,4th,1st,1.271290222164593,1.1918263401835507,-1.240665376421654
perc,resp,1367,0,3.1.2left.bmp,2.3.1right.bmp,,ACC014,"[2, -2, 0]","[0, 2, -2]",[],non-match,0.29289321881345254,1,-0.06478985612788202,0.8868894897025492,-0.8906967297627038,2nd,4th,2nd,-0.33539210738090497,1.1918263401835507,-0.5007246736891283
perc,resp,1380,1,1.3.3left.bmp,1.3.3right.bmp,,ACC014,"[-2, 2, 2]","[-2, 2, 2]",[],match,1.0,,-0.5801168368170296,-0.048894279782957205,-0.9409939600729583,2nd,3rd,1st,-0.33539210738090497,0.27569233083350203,-1.240665376421654
perc,resp,1542,1,3.1.3left.bmp,3.1.3right.bmp,,ACC014,"[2, -2, 2]","[2, -2, 2]",[],match,1.0,,-0.49797739379981937,0.24759417974694195,-0.9998296695522431,2nd,3rd,1st,-0.33539210738090497,0.27569233083350203,-1.240665376421654
perc,resp,2381,1,3.3.2left.bmp,3.3.2right.bmp,,ACC014,"[2, 2, 0]","[2, 2, 0]",[],match,1.0,,-0.986397269497001,-1.4921086369632073,-1.1573961806760789,1st,1st,1st,-1.234654563158233,-1.199475412605248,-1.240665376421654
perc,resp,1929,0,2.2.2left.bmp,3.2.2right.bmp,,ACC014,"[0, 0, 0]","[2, 0, 0]",[],non-match,0.7113248654051871,4,-0.8530199783109126,-1.9408799567997277,-1.1087225471593827,1st,1st,1st,-1.234654563158233,-1.199475412605248,-1.240665376421654
perc,resp,1109,0,1.1.3left.bmp,1.1.2right.bmp,,ACC014,"[-2, -2, 2]","[-2, -2, 0]",[],non-match,0.7113248654051871,4,-0.5274878049861849,0.6817212419995087,-1.2554899769152148,2nd,4th,1st,-0.33539210738090497,1.1918263401835507,-1.240665376421654
perc,resp,778,1,3.3.1left.bmp,1.3.1right.bmp,,ACC014,"[2, 2, -2]","[-2, 2, -2]",[],non-match,0.42264973081037416,2,0.795424086330986,0.7700702303917011,-1.2897367704271148,4th,4th,1st,1.271290222164593,1.1918263401835507,-1.240665376421654
perc,resp,1107,1,3.2.1left.bmp,3.2.1right.bmp,,ACC014,"[2, 0, -2]","[2, 0, -2]",[],match,1.0,,0.14201419541942178,-1.0333148450845893,-0.629305782415665,3rd,1st,2nd,0.2987564483745451,-1.199475412605248,-0.5007246736891283
perc,resp,791,1,2.2.1left.bmp,1.2.3right.bmp,,ACC014,"[0, 0, -2]","[-2, 0, 2]",[],non-match,0.3545027756320971,2,1.5393228917217818,-0.3915032961275841,-0.48972853891346013,4th,2nd,2nd,1.271290222164593,-0.2680432584118046,-0.5007246736891283
perc,resp,1928,1,1.1.1left.bmp,1.1.1right.bmp,,ACC014,"[-2, -2, -2]","[-2, -2, -2]",[],match,1.0,,0.8911144679311461,0.44100881948595044,-0.5275382335098118,4th,3rd,2nd,1.271290222164593,0.27569233083350203,-0.5007246736891283
perc,resp,706,1,2.3.3left.bmp,1.2.2right.bmp,,ACC014,"[0, 2, 2]","[-2, 0, 0]",[],non-match,0.5,3,1.1606490584652458,0.8539186518876558,-0.6433091544330617,4th,4th,2nd,1.271290222164593,1.1918263401835507,-0.5007246736891283
perc,resp,1578,1,3.3.3left.bmp,2.2.3right.bmp,,ACC014,"[2, 2, 2]","[0, 0, 2]",[],non-match,0.5917517095361369,3,0.9131123551915644,0.022056400858540905,-0.5100629768433226,4th,3rd,2nd,1.271290222164593,0.27569233083350203,-0.5007246736891283
perc,resp,1058,1,1.1.2left.bmp,1.1.2right.bmp,,ACC014,"[-2, -2, 0]","[-2, -2, 0]",[],match,1.0,,0.3997228467631726,0.19926236304883121,-0.4247857469702782,3rd,3rd,2nd,0.2987564483745451,0.27569233083350203,-0.5007246736891283
perc,resp,1119,0,3.2.2left.bmp,3.2.2right.bmp,,ACC014,"[2, 0, 0]","[2, 0, 0]",[],match,1.0,,1.8913018747090906,0.9581645367492979,-0.6402830489646976,4th,4th,2nd,1.271290222164593,1.1918263401835507,-0.5007246736891283
perc,resp,1227,1,1.2.2left.bmp,1.2.2right.bmp,,ACC014,"[-2, 0, 0]","[-2, 0, 0]",[],match,1.0,,1.4455344946022868,0.4541956153993779,-0.605080911093783,4th,3rd,2nd,1.271290222164593,0.27569233083350203,-0.5007246736891283
perc,resp,1937,1,2.3.2left.bmp,1.1.1right.bmp,,ACC014,"[0, 2, 0]","[-2, -2, -2]",[],non-match,0.29289321881345254,1,0.01711317600987941,-0.13345789185394974,-0.822617326995646,3rd,2nd,2nd,0.2987564483745451,-0.2680432584118046,-0.5007246736891283
perc,resp,1358,1,3.2.3left.bmp,3.2.3right.bmp,,ACC014,"[2, 0, 2]","[2, 0, 2]",[],match,1.0,,-1.4943123261719522,2.0756624408420703,-0.7988910067034569,1st,4th,2nd,-1.234654563158233,1.1918263401835507,-0.5007246736891283
perc,resp,1322,1,3.3.3left.bmp,3.3.3right.bmp,,ACC014,"[2, 2, 2]","[2, 2, 2]",[],match,1.0,,-0.8501679455845592,-1.34038784529394,-0.9914457474182249,1st,1st,1st,-1.234654563158233,-1.199475412605248,-1.240665376421654
perc,resp,839,1,3.1.2left.bmp,1.3.2right.bmp,,ACC014,"[2, -2, 0]","[-2, 2, 0]",[],non-match,0.18350341907227385,1,2.2147170244774026,0.6556482493256002,-1.258974771763305,4th,4th,1st,1.271290222164593,1.1918263401835507,-1.240665376421654
perc,resp,1029,1,3.1.1left.bmp,2.3.2right.bmp,,ACC014,"[2, -2, -2]","[0, 2, 0]",[],non-match,0.29289321881345254,1,-1.2173168936289411,-1.108089467243585,-1.0923885329683047,1st,1st,1st,-1.234654563158233,-1.199475412605248,-1.240665376421654
perc,resp,784,1,1.2.3left.bmp,2.2.1right.bmp,,ACC014,"[-2, 0, 2]","[0, 0, -2]",[],non-match,0.3545027756320971,2,1.192041799153824,-0.40890631205778266,-1.144357937858042,4th,2nd,1st,1.271290222164593,-0.2680432584118046,-1.240665376421654
perc,resp,1447,0,2.2.3left.bmp,1.1.3right.bmp,,ACC014,"[0, 0, 2]","[-2, -2, 2]",[],non-match,0.5917517095361369,3,-0.6884652736238905,-1.013795411925438,-0.8684525906806086,1st,1st,2nd,-1.234654563158233,-1.199475412605248,-0.5007246736891283
perc,resp,1732,0,2.1.3left.bmp,2.1.3right.bmp,,ACC014,"[0, -2, 2]","[0, -2, 2]",[],match,1.0,,-0.5366960311021894,1.481403810454226,-1.2662451771501495,2nd,4th,1st,-0.33539210738090497,1.1918263401835507,-1.240665376421654
perc,resp,1402,1,2.2.2left.bmp,3.3.2right.bmp,,ACC014,"[0, 0, 0]","[2, 2, 0]",[],non-match,0.5917517095361369,3,-0.3311293737942815,-0.32338929363723445,-1.296254045232306,2nd,2nd,1st,-0.33539210738090497,-0.2680432584118046,-1.240665376421654
perc,resp,1497,1,3.2.2left.bmp,3.2.2right.bmp,,ACC014,"[2, 0, 0]","[2, 0, 0]",[],match,1.0,,0.5828422014758387,0.04939299647778612,-1.2741807271440326,3rd,3rd,1st,0.2987564483745451,0.27569233083350203,-1.240665376421654
perc,resp,913,1,1.1.1left.bmp,2.1.2right.bmp,,ACC014,"[-2, -2, -2]","[0, -2, 0]",[],non-match,0.5917517095361369,3,0.05929400846190355,-0.5207484597459643,-1.5751450280152393,3rd,1st,1st,0.2987564483745451,-1.199475412605248,-1.240665376421654
perc,resp,891,1,1.2.2left.bmp,1.2.2right.bmp,,ACC014,"[-2, 0, 0]","[-2, 0, 0]",[],match,1.0,,0.5009119299920772,1.6116143093192705,-1.5799807044739365,3rd,4th,1st,0.2987564483745451,1.1918263401835507,-1.240665376421654
perc,resp,1132,0,3.2.3left.bmp,3.3.3right.bmp,,ACC014,"[2, 0, 2]","[2, 2, 2]",[],non-match,0.7113248654051871,4,-0.9160661166353902,-0.45948852538140456,-1.403911555946408,1st,2nd,1st,-1.234654563158233,-0.2680432584118046,-1.240665376421654
perc,resp,1725,1,2.3.2left.bmp,2.3.2right.bmp,,ACC014,"[0, 2, 0]","[0, 2, 0]",[],match,1.0,,0.01068328232457087,0.5797258216698122,-1.4423178141706428,3rd,3rd,1st,0.2987564483745451,0.27569233083350203,-1.240665376421654
perc,resp,1104,1,3.3.1left.bmp,2.2.2right.bmp,,ACC014,"[2, 2, -2]","[0, 0, 0]",[],non-match,0.5,3,1.2988972234613532,0.49331864042631435,-1.3675838471364394,4th,3rd,1st,1.271290222164593,0.27569233083350203,-1.240665376421654
perc,resp,1597,0,2.1.1left.bmp,2.1.1right.bmp,,ACC014,"[0, -2, -2]","[0, -2, -2]",[],match,1.0,,-0.9670705470486236,-1.2135053177353574,-0.9958701752405468,1st,1st,1st,-1.234654563158233,-1.199475412605248,-1.240665376421654
perc,resp,715,1,1.2.3left.bmp,3.2.3right.bmp,,ACC014,"[-2, 0, 2]","[2, 0, 2]",[],non-match,0.42264973081037416,2,1.4122778881171496,-0.08098446167582264,-0.6163877637477659,4th,2nd,2nd,1.271290222164593,-0.2680432584118046,-0.5007246736891283
perc,resp,1224,0,2.3.1left.bmp,3.3.2right.bmp,,ACC014,"[0, 2, -2]","[2, 2, 0]",[],non-match,0.5917517095361369,3,-1.101879737618685,-0.16924229699656104,-0.794296369523632,1st,2nd,2nd,-1.234654563158233,-0.2680432584118046,-0.5007246736891283
perc,resp,841,1,1.1.1left.bmp,1.3.1right.bmp,,ACC014,"[-2, -2, -2]","[-2, 2, -2]",[],non-match,0.42264973081037416,2,0.5866848953023969,-1.0840294872744995,-0.6194316293962766,3rd,1st,2nd,0.2987564483745451,-1.199475412605248,-0.5007246736891283
perc,resp,1313,1,2.3.3left.bmp,2.3.3right.bmp,,ACC014,"[0, 2, 2]","[0, 2, 2]",[],match,1.0,,-0.6594584828474203,0.28144327412315545,-0.7140967730262592,1st,3rd,2nd,-1.234654563158233,0.27569233083350203,-0.5007246736891283
perc,resp,1689,1,3.1.2left.bmp,3.1.2right.bmp,,ACC014,"[2, -2, 0]","[2, -2, 0]",[],match,1.0,,-0.43693794194733226,-1.068050141075035,-0.3806307298210819,2nd,1st,2nd,-0.33539210738090497,-1.199475412605248,-0.5007246736891283
perc,resp,1934,1,2.2.3left.bmp,1.1.3right.bmp,,ACC014,"[0, 0, 2]","[-2, -2, 2]",[],non-match,0.5917517095361369,3,-4.649276624898971,-3.6297324797274437,-0.7794191988133982,1st,1st,2nd,-1.234654563158233,-1.199475412605248,-0.5007246736891283
perc,resp,1126,1,3.1.1left.bmp,3.1.1right.bmp,,ACC014,"[2, -2, -2]","[2, -2, -2]",[],match,1.0,,-0.16762187233356346,-0.11392143681505318,-0.7324056959799247,2nd,2nd,2nd,-0.33539210738090497,-0.2680432584118046,-0.5007246736891283
perc,resp,1526,1,1.2.1left.bmp,1.2.1right.bmp,,ACC014,"[-2, 0, -2]","[-2, 0, -2]",[],match,1.0,,-0.6040315889561638,-2.508012662795086,-0.6382740957792582,2nd,1st,2nd,-0.33539210738090497,-1.199475412605248,-0.5007246736891283
perc,resp,1511,1,1.3.2left.bmp,1.1.1right.bmp,,ACC014,"[-2, 2, 0]","[-2, -2, -2]",[],non-match,0.3545027756320971,2,-0.9512823563347986,0.9568220717972682,-0.40528139786630146,1st,4th,2nd,-1.234654563158233,1.1918263401835507,-0.5007246736891283
perc,resp,1383,1,3.2.1left.bmp,3.2.1right.bmp,,ACC014,"[2, 0, -2]","[2, 0, -2]",[],match,1.0,,0.1948508922483193,0.08588279103329445,-0.6763921245539803,3rd,3rd,2nd,0.2987564483745451,0.27569233083350203,-0.5007246736891283
perc,resp,758,0,3.1.3left.bmp,3.1.3right.bmp,,ACC014,"[2, -2, 2]","[2, -2, 2]",[],match,1.0,,-0.4822644379084758,-0.09207140953047491,-0.34145131109699234,2nd,2nd,2nd,-0.33539210738090497,-0.2680432584118046,-0.5007246736891283
perc,resp,1845,1,2.1.3left.bmp,2.1.3right.bmp,,ACC014,"[0, -2, 2]","[0, -2, 2]",[],match,1.0,,-0.9295461525084247,0.10150661309151315,-0.08970095390092836,1st,3rd,2nd,-1.234654563158233,0.27569233083350203,-0.5007246736891283
perc,resp,2204,1,1.1.3left.bmp,1.1.3right.bmp,,ACC014,"[-2, -2, 2]","[-2, -2, 2]",[],match,1.0,,-2.0627906128728037,-0.34755549624750903,-0.04415144958497474,1st,2nd,2nd,-1.234654563158233,-0.2680432584118046,-0.5007246736891283
perc,resp,1576,1,3.2.3left.bmp,3.2.2right.bmp,,ACC014,"[2, 0, 2]","[2, 0, 0]",[],non-match,0.7113248654051871,4,-0.6448133157672695,0.0806642267626997,0.0843169527497723,2nd,3rd,3rd,-0.33539210738090497,0.27569233083350203,0.42265471603277077
perc,resp,1319,1,2.3.2left.bmp,3.2.1right.bmp,,ACC014,"[0, 2, 0]","[2, 0, -2]",[],non-match,0.5,3,-1.4671046980289066,0.16234942086040266,0.4381800584232534,1st,3rd,3rd,-1.234654563158233,0.27569233083350203,0.42265471603277077
perc,resp,1259,1,1.3.3left.bmp,1.3.3right.bmp,,ACC014,"[-2, 2, 2]","[-2, 2, 2]",[],match,1.0,,-0.4309785225023313,-0.5841340466146581,0.5090539636504282,2nd,1st,3rd,-0.33539210738090497,-1.199475412605248,0.42265471603277077
perc,resp,1513,1,1.1.2left.bmp,1.1.2right.bmp,,ACC014,"[-2, -2, 0]","[-2, -2, 0]",[],match,1.0,,-1.6262742553397027,-1.132850501931457,0.7340791288969717,1st,1st,3rd,-1.234654563158233,-1.199475412605248,0.42265471603277077
perc,resp,1234,1,1.2.2left.bmp,2.2.2right.bmp,,ACC014,"[-2, 0, 0]","[0, 0, 0]",[],non-match,0.7113248654051871,4,1.4919211088019988,0.6353273844187663,0.6988302091587509,4th,4th,3rd,1.271290222164593,1.1918263401835507,0.42265471603277077
perc,resp,1133,1,2.1.2left.bmp,3.1.2right.bmp,,ACC014,"[0, -2, 0]","[2, -2, 0]",[],non-match,0.7113248654051871,4,0.05765411652776831,0.04347617296998619,0.8937509567607859,3rd,3rd,4th,0.2987564483745451,0.27569233083350203,1.3187353340780108
perc,resp,1488,1,3.2.2left.bmp,2.1.3right.bmp,,ACC014,"[2, 0, 0]","[0, -2, 2]",[],non-match,0.5,3,-0.1896731316393168,-0.8016547012269166,0.9329679213064083,2nd,1st,4th,-0.33539210738090497,-1.199475412605248,1.3187353340780108
perc,resp,2347,1,3.3.1left.bmp,3.1.3right.bmp,,ACC014,"[2, 2, -2]","[2, -2, 2]",[],non-match,0.18350341907227385,1,-0.3133517370040675,-0.7376896461115794,0.5724888398826226,2nd,1st,3rd,-0.33539210738090497,-1.199475412605248,0.42265471603277077
perc,resp,2135,1,2.1.1left.bmp,2.1.1right.bmp,,ACC014,"[0, -2, -2]","[0, -2, -2]",[],match,1.0,,0.8624640509374835,-0.9342030828414285,0.38512912519025083,4th,1st,3rd,1.271290222164593,-1.199475412605248,0.42265471603277077
perc,resp,1005,1,3.3.3left.bmp,3.1.1right.bmp,,ACC014,"[2, 2, 2]","[2, -2, -2]",[],non-match,0.18350341907227385,1,0.9567862519636279,0.1492001545701373,0.2285587846189945,4th,3rd,3rd,1.271290222164593,0.27569233083350203,0.42265471603277077
perc,resp,2024,1,2.2.1left.bmp,2.2.1right.bmp,,ACC014,"[0, 0, -2]","[0, 0, -2]",[],match,1.0,,-0.6620298039590861,0.51365824750925,0.28216333342217736,1st,3rd,3rd,-1.234654563158233,0.27569233083350203,0.42265471603277077
perc,resp,2001,1,1.3.1left.bmp,1.3.1right.bmp,,ACC014,"[-2, 2, -2]","[-2, 2, -2]",[],match,1.0,,-1.7363840352822697,-1.5944583166767952,0.48048948541485803,1st,1st,3rd,-1.234654563158233,-1.199475412605248,0.42265471603277077
perc,resp,2157,0,2.2.2left.bmp,2.3.1right.bmp,,ACC014,"[0, 0, 0]","[0, 2, -2]",[],non-match,0.5917517095361369,3,2.419341697040262,0.7497543000191548,0.37607476603313206,4th,4th,3rd,1.271290222164593,1.1918263401835507,0.42265471603277077
perc,resp,2319,1,3.3.2left.bmp,2.1.3right.bmp,,ACC014,"[2, 2, 0]","[0, -2, 2]",[],non-match,0.29289321881345254,1,-0.7830232464466292,-1.612648755822991,0.29612518927392145,1st,1st,3rd,-1.234654563158233,-1.199475412605248,0.42265471603277077
perc,resp,1039,1,2.2.3left.bmp,1.1.2right.bmp,,ACC014,"[0, 0, 2]","[-2, -2, 0]",[],non-match,0.5,3,1.7562969772552461,-1.1631751165103297,0.11172031193282364,4th,1st,3rd,1.271290222164593,-1.199475412605248,0.42265471603277077
perc,resp,1038,1,1.1.1left.bmp,2.3.3right.bmp,,ACC014,"[-2, -2, -2]","[0, 2, 2]",[],non-match,0.1339745962155613,1,-0.5314445444153072,-1.3285362837119155,-0.1910222306258765,2nd,1st,2nd,-0.33539210738090497,-1.199475412605248,-0.5007246736891283
perc,resp,1561,1,3.1.3left.bmp,2.2.1right.bmp,,ACC014,"[2, -2, 2]","[0, 0, -2]",[],non-match,0.29289321881345254,1,0.00041327302707399634,0.4304666623250575,-0.4161104314540111,3rd,3rd,2nd,0.2987564483745451,0.27569233083350203,-0.5007246736891283
perc,resp,2330,1,2.2.2left.bmp,1.2.1right.bmp,,ACC014,"[0, 0, 0]","[-2, 0, -2]",[],non-match,0.5917517095361369,3,-0.14342393250442895,0.5596096720294882,-0.33340124496725426,2nd,3rd,2nd,-0.33539210738090497,0.27569233083350203,-0.5007246736891283
perc,resp,1102,1,2.1.1left.bmp,2.1.1right.bmp,,ACC014,"[0, -2, -2]","[0, -2, -2]",[],match,1.0,,-1.1918208189780788,-0.08493466955061922,-0.3439954977713421,1st,2nd,2nd,-1.234654563158233,-0.2680432584118046,-0.5007246736891283
perc,resp,869,1,1.2.3left.bmp,2.1.3right.bmp,,ACC014,"[-2, 0, 2]","[0, -2, 2]",[],non-match,0.5917517095361369,3,0.9424914421649287,-0.2916838696059488,-0.43952805550599394,4th,2nd,2nd,1.271290222164593,-0.2680432584118046,-0.5007246736891283
perc,resp,1374,0,1.1.3left.bmp,2.2.3right.bmp,,ACC014,"[-2, -2, 2]","[0, 0, 2]",[],non-match,0.5917517095361369,3,-0.10295921162473759,-0.26196851156327405,-0.1809945523265178,2nd,2nd,2nd,-0.33539210738090497,-0.2680432584118046,-0.5007246736891283
perc,resp,952,1,3.3.1left.bmp,3.1.1right.bmp,,ACC014,"[2, 2, -2]","[2, -2, -2]",[],non-match,0.42264973081037416,2,0.7883930498839417,2.341007832165669,-0.45406732330627736,4th,4th,2nd,1.271290222164593,1.1918263401835507,-0.5007246736891283
perc,resp,1727,0,3.1.2left.bmp,3.2.2right.bmp,,ACC014,"[2, -2, 0]","[2, 0, 0]",[],non-match,0.7113248654051871,4,0.6540777165486129,1.7184607390215538,0.07923286289003116,3rd,4th,3rd,0.2987564483745451,1.1918263401835507,0.42265471603277077
perc,resp,1058,0,2.1.2left.bmp,2.1.2right.bmp,,ACC014,"[0, -2, 0]","[0, -2, 0]",[],match,1.0,,0.7820550497270856,0.41890477686294103,0.5083929842980791,4th,3rd,3rd,1.271290222164593,0.27569233083350203,0.42265471603277077
perc,resp,1753,1,2.3.2left.bmp,2.3.2right.bmp,,ACC014,"[0, 2, 0]","[0, 2, 0]",[],match,1.0,,0.22789361103537398,0.5209246887802491,0.5341929019482653,3rd,3rd,3rd,0.2987564483745451,0.27569233083350203,0.42265471603277077
perc,resp,1130,1,1.3.3left.bmp,1.3.3right.bmp,,ACC014,"[-2, 2, 2]","[-2, 2, 2]",[],match,1.0,,1.8566904547475196,0.2260943233129723,0.7711194117480099,4th,3rd,3rd,1.271290222164593,0.27569233083350203,0.42265471603277077
perc,resp,799,0,3.2.3left.bmp,3.2.3right.bmp,,ACC014,"[2, 0, 2]","[2, 0, 2]",[],match,1.0,,0.3196442377991721,-0.01648167813598287,0.685991140083434,3rd,3rd,3rd,0.2987564483745451,0.27569233083350203,0.42265471603277077
perc,resp,1334,1,3.1.1left.bmp,1.2.3right.bmp,,ACC014,"[2, -2, -2]","[-2, 0, 2]",[],non-match,0.1339745962155613,1,0.10664543649673688,-0.2115844265819522,0.7958271948333523,3rd,2nd,4th,0.2987564483745451,-0.2680432584118046,1.3187353340780108
perc,resp,2061,1,2.3.3left.bmp,2.3.3right.bmp,,ACC014,"[0, 2, 2]","[0, 2, 2]",[],match,1.0,,-2.3394528549794784,-0.518099837149235,0.6708748383244204,1st,2nd,3rd,-1.234654563158233,-0.2680432584118046,0.42265471603277077
perc,resp,1295,1,3.3.3left.bmp,2.1.1right.bmp,,ACC014,"[2, 2, 2]","[0, -2, -2]",[],non-match,0.1339745962155613,1,0.9294245864933484,-0.8689091893320493,0.9832274503902262,4th,1st,4th,1.271290222164593,-1.199475412605248,1.3187353340780108
perc,resp,1034,1,1.2.1left.bmp,3.2.3right.bmp,,ACC014,"[-2, 0, -2]","[2, 0, 2]",[],non-match,0.18350341907227385,1,-0.1297965217028238,-0.00035073082003739015,1.1640659168906724,2nd,3rd,4th,-0.33539210738090497,0.27569233083350203,1.3187353340780108
perc,resp,1225,1,1.3.2left.bmp,1.3.2right.bmp,,ACC014,"[-2, 2, 0]","[-2, 2, 0]",[],match,1.0,,-0.37406213954153,-0.1278691922408116,1.0783221090646058,2nd,2nd,4th,-0.33539210738090497,-0.2680432584118046,1.3187353340780108
perc,resp,1720,1,3.2.1left.bmp,3.2.1right.bmp,,ACC014,"[2, 0, -2]","[2, 0, -2]",[],match,1.0,,-0.8478151863956853,-0.8711312237031443,1.1262556951104397,1st,1st,4th,-1.234654563158233,-1.199475412605248,1.3187353340780108
perc,resp,1038,1,1.1.2left.bmp,2.1.2right.bmp,,ACC014,"[-2, -2, 0]","[0, -2, 0]",[],non-match,0.7113248654051871,4,-0.06087153805882485,0.02628298792441221,1.0373637109518945,2nd,3rd,4th,-0.33539210738090497,0.27569233083350203,1.3187353340780108
perc,resp,1098,1,3.3.2left.bmp,1.3.3right.bmp,,ACC014,"[2, 2, 0]","[-2, 2, 2]",[],non-match,0.3545027756320971,2,-0.020731357471130956,0.19767416734345938,1.0642573443678958,3rd,3rd,4th,0.2987564483745451,0.27569233083350203,1.3187353340780108
perc,resp,1207,1,2.3.1left.bmp,2.3.1right.bmp,,ACC014,"[0, 2, -2]","[0, 2, -2]",[],match,1.0,,0.6658148428983645,-0.5487297364250798,1.44031268598928,3rd,1st,4th,0.2987564483745451,-1.199475412605248,1.3187353340780108
perc,resp,1712,1,1.3.1left.bmp,1.3.1right.bmp,,ACC014,"[-2, 2, -2]","[-2, 2, -2]",[],match,1.0,,-0.5263189412301076,-2.043682397010832,1.4491031387676312,2nd,1st,4th,-0.33539210738090497,-1.199475412605248,1.3187353340780108
perc,resp,1032,0,2.1.3left.bmp,2.1.3right.bmp,,ACC014,"[0, -2, 2]","[0, -2, 2]",[],match,1.0,,0.5280928649427107,0.7656800340880664,1.357228205560451,3rd,4th,4th,0.2987564483745451,1.1918263401835507,1.3187353340780108
perc,resp,1191,1,3.1.2left.bmp,1.2.3right.bmp,,ACC014,"[2, -2, 0]","[-2, 0, 2]",[],non-match,0.29289321881345254,1,-0.11647425932108803,-0.9984014191969968,1.0301924867226677,2nd,1st,4th,-0.33539210738090497,-1.199475412605248,1.3187353340780108
perc,resp,1434,1,3.3.1left.bmp,3.2.2right.bmp,,ACC014,"[2, 2, -2]","[2, 0, 0]",[],non-match,0.5917517095361369,3,-0.8917528225281315,0.9338392746324152,1.4364705811172482,1st,4th,4th,-1.234654563158233,1.1918263401835507,1.3187353340780108
perc,resp,1173,1,2.3.3left.bmp,2.3.3right.bmp,,ACC014,"[0, 2, 2]","[0, 2, 2]",[],match,1.0,,-0.04609172060088292,-0.3729246387210504,1.348407827541326,2nd,2nd,4th,-0.33539210738090497,-0.2680432584118046,1.3187353340780108
perc,resp,1125,1,2.2.3left.bmp,2.2.3right.bmp,,ACC014,"[0, 0, 2]","[0, 0, 2]",[],match,1.0,,1.9147933311602432,0.7488529099989268,1.5679506915479284,4th,4th,4th,1.271290222164593,1.1918263401835507,1.3187353340780108
perc,resp,972,0,2.2.2left.bmp,1.2.2right.bmp,,ACC014,"[0, 0, 0]","[-2, 0, 0]",[],non-match,0.7113248654051871,4,0.4880406097523213,-0.4186550051593852,1.4983985172826864,3rd,2nd,4th,0.2987564483745451,-0.2680432584118046,1.3187353340780108
perc,resp,1776,1,1.2.3left.bmp,1.2.3right.bmp,,ACC014,"[-2, 0, 2]","[-2, 0, 2]",[],match,1.0,,0.4973925335870058,0.6846361030929966,1.911142537189097,3rd,4th,4th,0.2987564483745451,1.1918263401835507,1.3187353340780108
perc,resp,796,1,3.1.3left.bmp,3.3.1right.bmp,,ACC014,"[2, -2, 2]","[2, 2, -2]",[],non-match,0.18350341907227385,1,0.07265089192136101,1.799092568497154,1.8480183367424086,3rd,4th,4th,0.2987564483745451,1.1918263401835507,1.3187353340780108
perc,resp,945,1,3.1.1left.bmp,3.1.1right.bmp,,ACC014,"[2, -2, -2]","[2, -2, -2]",[],match,1.0,,-1.1238689778046944,-0.8127051380549345,1.8438697904825452,1st,1st,4th,-1.234654563158233,-1.199475412605248,1.3187353340780108
perc,resp,941,1,3.2.1left.bmp,2.3.2right.bmp,,ACC014,"[2, 0, -2]","[0, 2, 0]",[],non-match,0.5,3,1.5038096725227434,0.7840426132179413,1.7978477300617273,4th,4th,4th,1.271290222164593,1.1918263401835507,1.3187353340780108
perc,resp,1716,1,1.3.2left.bmp,1.3.2right.bmp,,ACC014,"[-2, 2, 0]","[-2, 2, 0]",[],match,1.0,,0.886680021228338,0.46056424305573335,1.6808975343358252,4th,3rd,4th,1.271290222164593,0.27569233083350203,1.3187353340780108
perc,resp,1682,1,1.3.1left.bmp,1.3.1right.bmp,,ACC014,"[-2, 2, -2]","[-2, 2, -2]",[],match,1.0,,1.8766455169381657,1.7491378785407867,1.0582748668319955,4th,4th,4th,1.271290222164593,1.1918263401835507,1.3187353340780108
