mode,type,rt,acc,item_1,item_2,item_cue,subj_idx,item_1_number,item_2_number,item_cue_number,trial_type,similarity,similarity_bin,ams,pams,slps,ams_quantile,pams_quantile,slps_quantile,ams_bin,pam_bin,slp_bin
perc,resp,1044,1,1.3.3left.bmp,1.3.3right.bmp,,ACC029,"[-2, 2, 2]","[-2, 2, 2]",[],match,1.0,,1.3198788274465099,1.864371006838091,-1.982066704216012,4th,4th,1st,0.9377607140126758,0.9783948026499948,-1.1154828064836833
perc,resp,1002,1,3.2.2left.bmp,3.2.2right.bmp,,ACC029,"[2, 0, 0]","[2, 0, 0]",[],match,1.0,,0.2929071202569535,-0.03177540010128727,-1.9672846152966883,4th,3rd,1st,0.9377607140126758,0.093182005421393,-1.1154828064836833
perc,resp,999,0,2.3.1left.bmp,3.3.1right.bmp,,ACC029,"[0, 2, -2]","[2, 2, -2]",[],non-match,0.7113248654051871,4,-0.014236805107703247,-0.07055675323577626,-1.6095646239446013,3rd,2nd,1st,0.10503131623656096,-0.2188095449075406,-1.1154828064836833
perc,resp,988,1,3.1.3left.bmp,1.3.2right.bmp,,ACC029,"[2, -2, 2]","[-2, 2, 0]",[],non-match,0.1339745962155613,1,0.46929028289468505,-0.26282360217900136,-1.8853425638680974,4th,2nd,1st,0.9377607140126758,-0.2188095449075406,-1.1154828064836833
perc,resp,1188,0,3.2.1left.bmp,2.3.3right.bmp,,ACC029,"[2, 0, -2]","[0, 2, 2]",[],non-match,0.29289321881345254,1,-0.14302899855763482,-0.5236497443318913,-1.773281270428349,2nd,1st,1st,-0.16395193066360694,-0.8512396893044796,-1.1154828064836833
perc,resp,1175,1,1.3.1left.bmp,1.3.1right.bmp,,ACC029,"[-2, 2, -2]","[-2, 2, -2]",[],match,1.0,,-0.5592836788467113,-0.3533119590528202,-1.4996312086753638,1st,2nd,1st,-0.8771182747292928,-0.2188095449075406,-1.1154828064836833
perc,resp,956,1,2.1.2left.bmp,3.1.2right.bmp,,ACC029,"[0, -2, 0]","[2, -2, 0]",[],non-match,0.7113248654051871,4,-0.2372346744617318,-0.7071745444281244,-1.145026166472475,2nd,1st,1st,-0.16395193066360694,-0.8512396893044796,-1.1154828064836833
perc,resp,893,0,2.2.3left.bmp,2.2.3right.bmp,,ACC029,"[0, 0, 2]","[0, 0, 2]",[],match,1.0,,-0.1481688300989278,-0.09996948184030484,-0.8053905140590049,2nd,2nd,1st,-0.16395193066360694,-0.2188095449075406,-1.1154828064836833
perc,resp,1676,1,1.2.1left.bmp,1.2.1right.bmp,,ACC029,"[-2, 0, -2]","[-2, 0, -2]",[],match,1.0,,0.48708267695433716,0.6830517782726138,-0.41194088464209205,4th,4th,2nd,0.9377607140126758,0.9783948026499948,-0.5299348899288414
perc,resp,1227,1,3.1.1left.bmp,3.1.1right.bmp,,ACC029,"[2, -2, -2]","[2, -2, -2]",[],match,1.0,,-0.333974496653655,-0.07058815099489624,-0.26727549058840483,1st,2nd,3rd,-0.8771182747292928,-0.2188095449075406,0.24027037145580496
perc,resp,1076,1,2.2.1left.bmp,1.1.2right.bmp,,ACC029,"[0, 0, -2]","[-2, -2, 0]",[],non-match,0.5,3,0.007996761804735518,-0.477374384412627,-0.2228218376208549,3rd,1st,3rd,0.10503131623656096,-0.8512396893044796,0.24027037145580496
perc,resp,1175,1,2.1.1left.bmp,1.1.1right.bmp,,ACC029,"[0, -2, -2]","[-2, -2, -2]",[],non-match,0.7113248654051871,4,-0.16803672821958052,-0.7346365891607693,-0.6085711443597175,2nd,1st,2nd,-0.16395193066360694,-0.8512396893044796,-0.5299348899288414
perc,resp,1758,1,2.3.3left.bmp,2.3.3right.bmp,,ACC029,"[0, 2, 2]","[0, 2, 2]",[],match,1.0,,-0.2809305332747549,-0.12000415954502476,-0.5400728756698217,2nd,2nd,2nd,-0.16395193066360694,-0.2188095449075406,-0.5299348899288414
perc,resp,1457,1,1.1.3left.bmp,1.3.1right.bmp,,ACC029,"[-2, -2, 2]","[-2, 2, -2]",[],non-match,0.18350341907227385,1,-0.6463460860799953,-0.3031931125199062,-0.5166719749951678,1st,2nd,2nd,-0.8771182747292928,-0.2188095449075406,-0.5299348899288414
perc,resp,1229,1,1.1.2left.bmp,1.1.2right.bmp,,ACC029,"[-2, -2, 0]","[-2, -2, 0]",[],match,1.0,,-0.7827419354528329,-0.2852378698712853,-0.766150503895334,1st,2nd,1st,-0.8771182747292928,-0.2188095449075406,-1.1154828064836833
perc,resp,1652,1,3.1.2left.bmp,3.1.2right.bmp,,ACC029,"[2, -2, 0]","[2, -2, 0]",[],match,1.0,,-0.4743069698680165,-0.40956862484664014,-0.7345754502998987,1st,1st,2nd,-0.8771182747292928,-0.8512396893044796,-0.5299348899288414
perc,resp,1671,0,1.2.2left.bmp,2.3.1right.bmp,,ACC029,"[-2, 0, 0]","[0, 2, -2]",[],non-match,0.5,3,-0.5298870421983845,-0.5812003164570169,-0.9165538742577937,1st,1st,1st,-0.8771182747292928,-0.8512396893044796,-1.1154828064836833
perc,resp,1220,1,3.2.3left.bmp,3.2.3right.bmp,,ACC029,"[2, 0, 2]","[2, 0, 2]",[],match,1.0,,-0.8079625561243952,-0.5543179821523391,-0.6706419761170338,1st,1st,2nd,-0.8771182747292928,-0.8512396893044796,-0.5299348899288414
perc,resp,1169,1,3.3.3left.bmp,1.3.3right.bmp,,ACC029,"[2, 2, 2]","[-2, 2, 2]",[],non-match,0.42264973081037416,2,-0.05557428550838335,0.023243795600875028,-0.643485228638335,2nd,3rd,2nd,-0.16395193066360694,0.093182005421393,-0.5299348899288414
perc,resp,1781,1,1.2.3left.bmp,1.2.1right.bmp,,ACC029,"[-2, 0, 2]","[-2, 0, -2]",[],non-match,0.42264973081037416,2,0.01638678775400777,-0.1985730528290288,-0.9362849886694389,3rd,2nd,1st,0.10503131623656096,-0.2188095449075406,-1.1154828064836833
perc,resp,1617,1,1.1.1left.bmp,3.1.2right.bmp,,ACC029,"[-2, -2, -2]","[2, -2, 0]",[],non-match,0.3545027756320971,2,-0.13465475204180766,-0.3609051917099568,-0.7544594100395272,2nd,2nd,1st,-0.16395193066360694,-0.2188095449075406,-1.1154828064836833
perc,resp,2154,1,1.3.2left.bmp,1.3.2right.bmp,,ACC029,"[-2, 2, 0]","[-2, 2, 0]",[],match,1.0,,0.020103145074706334,0.26667292583415525,-0.7401107686245816,3rd,3rd,2nd,0.10503131623656096,0.093182005421393,-0.5299348899288414
perc,resp,1900,1,3.3.1left.bmp,3.3.1right.bmp,,ACC029,"[2, 2, -2]","[2, 2, -2]",[],match,1.0,,-0.6400889454112149,-0.4347941086579073,-0.5208547005092063,1st,1st,2nd,-0.8771182747292928,-0.8512396893044796,-0.5299348899288414
perc,resp,1382,1,3.3.2left.bmp,3.3.2right.bmp,,ACC029,"[2, 2, 0]","[2, 2, 0]",[],match,1.0,,-0.23945248978918485,0.0148892553114801,-0.49843911293116827,2nd,3rd,2nd,-0.16395193066360694,0.093182005421393,-0.5299348899288414
perc,resp,1163,1,2.3.2left.bmp,1.1.2right.bmp,,ACC029,"[0, 2, 0]","[-2, -2, 0]",[],non-match,0.3545027756320971,2,-0.05963850516684591,-0.19094582186143222,-0.5172149591973481,2nd,2nd,2nd,-0.16395193066360694,-0.2188095449075406,-0.5299348899288414
perc,resp,880,1,2.1.3left.bmp,3.2.1right.bmp,,ACC029,"[0, -2, 2]","[2, 0, -2]",[],non-match,0.29289321881345254,1,-0.23530659114321,-0.1274356801614779,-0.6224251569300074,2nd,2nd,2nd,-0.16395193066360694,-0.2188095449075406,-0.5299348899288414
perc,resp,1543,0,2.2.2left.bmp,2.2.2right.bmp,,ACC029,"[0, 0, 0]","[0, 0, 0]",[],match,1.0,,-0.4614514303389812,-0.7203959473869439,-0.6370191009683224,1st,1st,2nd,-0.8771182747292928,-0.8512396893044796,-0.5299348899288414
perc,resp,1514,1,3.3.3left.bmp,3.2.2right.bmp,,ACC029,"[2, 2, 2]","[2, 0, 0]",[],non-match,0.5917517095361369,3,-0.49584067100541346,-0.64527032554825,-0.29958248382820546,1st,1st,2nd,-0.8771182747292928,-0.8512396893044796,-0.5299348899288414
perc,resp,1175,1,2.3.3left.bmp,2.3.3right.bmp,,ACC029,"[0, 2, 2]","[0, 2, 2]",[],match,1.0,,-0.3733158219696431,-0.33130826157723686,-0.1335192595711072,1st,2nd,3rd,-0.8771182747292928,-0.2188095449075406,0.24027037145580496
perc,resp,1747,0,1.3.1left.bmp,1.3.1right.bmp,,ACC029,"[-2, 2, -2]","[-2, 2, -2]",[],match,1.0,,-0.2013262705744426,0.09544266604270898,-1.162988638968864,2nd,3rd,1st,-0.16395193066360694,0.093182005421393,-1.1154828064836833
perc,resp,1109,1,2.1.1left.bmp,1.1.3right.bmp,,ACC029,"[0, -2, -2]","[-2, -2, 2]",[],non-match,0.3545027756320971,2,-0.23013159858217358,-0.5245283483987728,-1.0987652683138889,2nd,1st,1st,-0.16395193066360694,-0.8512396893044796,-1.1154828064836833
perc,resp,906,1,1.2.2left.bmp,2.2.1right.bmp,,ACC029,"[-2, 0, 0]","[0, 0, -2]",[],non-match,0.5917517095361369,3,-0.32880827833388343,-0.26982443728898786,-0.9616684522904402,1st,2nd,1st,-0.8771182747292928,-0.2188095449075406,-1.1154828064836833
perc,resp,1044,1,1.3.2left.bmp,2.1.2right.bmp,,ACC029,"[-2, 2, 0]","[0, -2, 0]",[],non-match,0.3545027756320971,2,-1.5976388301790285,-1.0470098992321313,-0.8888393269357067,1st,1st,1st,-0.8771182747292928,-0.8512396893044796,-1.1154828064836833
perc,resp,1437,0,1.3.3left.bmp,1.3.3right.bmp,,ACC029,"[-2, 2, 2]","[-2, 2, 2]",[],match,1.0,,0.7077368611688194,0.772909488871255,-0.3241440506339287,4th,4th,2nd,0.9377607140126758,0.9783948026499948,-0.5299348899288414
perc,resp,1297,1,3.1.1left.bmp,3.1.1right.bmp,,ACC029,"[2, -2, -2]","[2, -2, -2]",[],match,1.0,,-1.5267181116922652,-0.9912210006942545,0.26181504611068235,1st,1st,3rd,-0.8771182747292928,-0.8512396893044796,0.24027037145580496
perc,resp,1378,1,2.2.1left.bmp,2.2.2right.bmp,,ACC029,"[0, 0, -2]","[0, 0, 0]",[],non-match,0.7113248654051871,4,0.6398066035849973,1.1732686432498123,0.31333974724673214,4th,4th,3rd,0.9377607140126758,0.9783948026499948,0.24027037145580496
perc,resp,1369,1,2.1.3left.bmp,3.1.2right.bmp,,ACC029,"[0, -2, 2]","[2, -2, 0]",[],non-match,0.5917517095361369,3,-0.10744845839155533,0.15371185676897964,0.4315458781643126,2nd,3rd,3rd,-0.16395193066360694,0.093182005421393,0.24027037145580496
perc,resp,1744,0,2.2.3left.bmp,2.3.2right.bmp,,ACC029,"[0, 0, 2]","[0, 2, 0]",[],non-match,0.5917517095361369,3,0.03974045262651176,-0.07172362112509362,0.7964931788622241,3rd,2nd,4th,0.10503131623656096,-0.2188095449075406,1.4090861835051753
perc,resp,1032,1,3.3.1left.bmp,3.3.1right.bmp,,ACC029,"[2, 2, -2]","[2, 2, -2]",[],match,1.0,,-0.27769786711773364,0.278119556877506,1.0539962727902976,2nd,3rd,4th,-0.16395193066360694,0.093182005421393,1.4090861835051753
perc,resp,1373,1,2.3.1left.bmp,2.3.1right.bmp,,ACC029,"[0, 2, -2]","[0, 2, -2]",[],match,1.0,,-0.24568247967093662,0.10223890768034,1.3605016308793392,2nd,3rd,4th,-0.16395193066360694,0.093182005421393,1.4090861835051753
perc,resp,1426,1,3.1.3left.bmp,3.1.3right.bmp,,ACC029,"[2, -2, 2]","[2, -2, 2]",[],match,1.0,,-0.15949919353698894,-0.5465356901672883,1.5654223465643018,2nd,1st,4th,-0.16395193066360694,-0.8512396893044796,1.4090861835051753
perc,resp,1727,0,2.3.2left.bmp,2.3.3right.bmp,,ACC029,"[0, 2, 0]","[0, 2, 2]",[],non-match,0.7113248654051871,4,-0.7082570973868528,-0.7415391239331074,1.7059920593842173,1st,1st,4th,-0.8771182747292928,-0.8512396893044796,1.4090861835051753
perc,resp,843,1,1.1.3left.bmp,1.2.1right.bmp,,ACC029,"[-2, -2, 2]","[-2, 0, -2]",[],non-match,0.3545027756320971,2,0.2289637553982788,0.13138942827663336,1.9427687933779425,3rd,3rd,4th,0.10503131623656096,0.093182005421393,1.4090861835051753
perc,resp,1506,1,3.2.3left.bmp,3.2.3right.bmp,,ACC029,"[2, 0, 2]","[2, 0, 2]",[],match,1.0,,-0.7516315789715471,-0.5964459191638777,1.7542974301282415,1st,1st,4th,-0.8771182747292928,-0.8512396893044796,1.4090861835051753
perc,resp,723,1,1.2.3left.bmp,2.2.3right.bmp,,ACC029,"[-2, 0, 2]","[0, 0, 2]",[],non-match,0.7113248654051871,4,0.17308246957507592,-0.6141923514040454,1.4483666761013663,3rd,1st,4th,0.10503131623656096,-0.8512396893044796,1.4090861835051753
perc,resp,1082,1,2.2.2left.bmp,3.3.1right.bmp,,ACC029,"[0, 0, 0]","[2, 2, -2]",[],non-match,0.5,3,-1.6459743351977179,-0.9015937331488911,1.6823501324036176,1st,1st,4th,-0.8771182747292928,-0.8512396893044796,1.4090861835051753
perc,resp,1061,1,1.2.1left.bmp,2.2.1right.bmp,,ACC029,"[-2, 0, -2]","[0, 0, -2]",[],non-match,0.7113248654051871,4,-0.21545042435154468,0.15135244746222135,1.8495970304889813,2nd,3rd,4th,-0.16395193066360694,0.093182005421393,1.4090861835051753
perc,resp,1272,1,3.3.2left.bmp,2.1.1right.bmp,,ACC029,"[2, 2, 0]","[0, -2, -2]",[],non-match,0.29289321881345254,1,0.018785438722034208,0.2763273796278503,1.684515864019577,3rd,3rd,4th,0.10503131623656096,0.093182005421393,1.4090861835051753
perc,resp,1047,1,3.2.1left.bmp,3.2.1right.bmp,,ACC029,"[2, 0, -2]","[2, 0, -2]",[],match,1.0,,-0.23868883628076767,-0.37367598124302187,1.7434831804797024,2nd,1st,4th,-0.16395193066360694,-0.8512396893044796,1.4090861835051753
perc,resp,1430,0,3.2.2left.bmp,3.2.2right.bmp,,ACC029,"[2, 0, 0]","[2, 0, 0]",[],match,1.0,,-0.3615262357808292,-0.528138479542847,2.1859099300113014,1st,1st,4th,-0.8771182747292928,-0.8512396893044796,1.4090861835051753
perc,resp,1905,1,3.1.2left.bmp,3.1.3right.bmp,,ACC029,"[2, -2, 0]","[2, -2, 2]",[],non-match,0.7113248654051871,4,-0.1890998070265711,0.14598619719669573,1.7319699028736595,2nd,3rd,4th,-0.16395193066360694,0.093182005421393,1.4090861835051753
perc,resp,783,0,1.1.2left.bmp,1.1.2right.bmp,,ACC029,"[-2, -2, 0]","[-2, -2, 0]",[],match,1.0,,0.20380827266674645,-0.3414251960128353,1.7576303193451202,3rd,2nd,4th,0.10503131623656096,-0.2188095449075406,1.4090861835051753
perc,resp,1847,1,2.1.2left.bmp,2.1.2right.bmp,,ACC029,"[0, -2, 0]","[0, -2, 0]",[],match,1.0,,-0.28969085190718585,0.5938910355534431,2.035449927695614,2nd,4th,4th,-0.16395193066360694,0.9783948026499948,1.4090861835051753
perc,resp,875,1,1.1.1left.bmp,3.2.1right.bmp,,ACC029,"[-2, -2, -2]","[2, 0, -2]",[],non-match,0.3545027756320971,2,0.9514228026107011,0.7753807067953985,2.0762534558641006,4th,4th,4th,0.9377607140126758,0.9783948026499948,1.4090861835051753
perc,resp,2042,1,1.2.3left.bmp,1.2.3right.bmp,,ACC029,"[-2, 0, 2]","[-2, 0, 2]",[],match,1.0,,-7.250916655045279,-8.511693631668424,2.37341559528402,1st,1st,4th,-0.8771182747292928,-0.8512396893044796,1.4090861835051753
perc,resp,2450,1,1.1.3left.bmp,1.1.3right.bmp,,ACC029,"[-2, -2, 2]","[-2, -2, 2]",[],match,1.0,,7.362764211712939,6.406774092574548,2.3313605902201666,4th,4th,4th,0.9377607140126758,0.9783948026499948,1.4090861835051753
perc,resp,1637,1,2.1.2left.bmp,2.1.2right.bmp,,ACC029,"[0, -2, 0]","[0, -2, 0]",[],match,1.0,,1.3661627253929893,1.5758798247881083,2.0878196352894713,4th,4th,4th,0.9377607140126758,0.9783948026499948,1.4090861835051753
perc,resp,1116,1,1.1.2left.bmp,3.2.2right.bmp,,ACC029,"[-2, -2, 0]","[2, 0, 0]",[],non-match,0.3545027756320971,2,0.5529918896360881,0.19144946831144977,1.760323972792281,4th,3rd,4th,0.9377607140126758,0.093182005421393,1.4090861835051753
perc,resp,2545,1,1.3.3left.bmp,1.3.3right.bmp,,ACC029,"[-2, 2, 2]","[-2, 2, 2]",[],match,1.0,,2.1194509001427977,1.8573259975658822,1.4740451028716053,4th,4th,4th,0.9377607140126758,0.9783948026499948,1.4090861835051753
perc,resp,1235,1,1.2.1left.bmp,1.3.2right.bmp,,ACC029,"[-2, 0, -2]","[-2, 2, 0]",[],non-match,0.5917517095361369,3,0.33589027120169856,0.9018853265179704,1.2541461409246328,4th,4th,4th,0.9377607140126758,0.9783948026499948,1.4090861835051753
perc,resp,1948,1,2.1.3left.bmp,2.1.3right.bmp,,ACC029,"[0, -2, 2]","[0, -2, 2]",[],match,1.0,,3.0410205128748706,3.4508890510366377,1.3380376636492883,4th,4th,4th,0.9377607140126758,0.9783948026499948,1.4090861835051753
perc,resp,1148,1,2.1.1left.bmp,1.1.1right.bmp,,ACC029,"[0, -2, -2]","[-2, -2, -2]",[],non-match,0.7113248654051871,4,-2.8762149312201717,-3.137954824539855,1.1372744208645884,1st,1st,4th,-0.8771182747292928,-0.8512396893044796,1.4090861835051753
perc,resp,1399,1,2.3.2left.bmp,2.3.2right.bmp,,ACC029,"[0, 2, 0]","[0, 2, 0]",[],match,1.0,,-1.004334529919676,0.23376895957056348,1.5163659312198217,1st,3rd,4th,-0.8771182747292928,0.093182005421393,1.4090861835051753
perc,resp,906,1,2.2.3left.bmp,3.1.1right.bmp,,ACC029,"[0, 0, 2]","[2, -2, -2]",[],non-match,0.29289321881345254,1,0.21842069002886905,1.1047796378624894,1.3555004254498684,3rd,4th,4th,0.10503131623656096,0.9783948026499948,1.4090861835051753
perc,resp,1368,1,3.3.3left.bmp,3.3.3right.bmp,,ACC029,"[2, 2, 2]","[2, 2, 2]",[],match,1.0,,0.9152499822707092,1.4745174360233604,1.4366974080540653,4th,4th,4th,0.9377607140126758,0.9783948026499948,1.4090861835051753
perc,resp,1024,1,3.1.3left.bmp,1.1.3right.bmp,,ACC029,"[2, -2, 2]","[-2, -2, 2]",[],non-match,0.42264973081037416,2,1.3782219264164628,0.6445665157649808,1.6119566057811712,4th,4th,4th,0.9377607140126758,0.9783948026499948,1.4090861835051753
perc,resp,1597,1,3.2.3left.bmp,3.2.3right.bmp,,ACC029,"[2, 0, 2]","[2, 0, 2]",[],match,1.0,,1.6002531233178015,2.0791484193243837,1.5777150136543339,4th,4th,4th,0.9377607140126758,0.9783948026499948,1.4090861835051753
perc,resp,1166,0,1.2.2left.bmp,1.3.3right.bmp,,ACC029,"[-2, 0, 0]","[-2, 2, 2]",[],non-match,0.5917517095361369,3,2.778050460604971,2.840428245300833,1.6084888968822801,4th,4th,4th,0.9377607140126758,0.9783948026499948,1.4090861835051753
perc,resp,1739,1,2.3.1left.bmp,2.3.1right.bmp,,ACC029,"[0, 2, -2]","[0, 2, -2]",[],match,1.0,,0.27960719911117315,0.2948830629214798,1.4240742114754805,4th,4th,4th,0.9377607140126758,0.9783948026499948,1.4090861835051753
perc,resp,1882,0,1.1.2left.bmp,1.1.2right.bmp,,ACC029,"[-2, -2, 0]","[-2, -2, 0]",[],match,1.0,,0.5280530123922592,0.41504320254792604,1.182754547543604,4th,4th,4th,0.9377607140126758,0.9783948026499948,1.4090861835051753
perc,resp,1416,1,1.2.1left.bmp,1.2.1right.bmp,,ACC029,"[-2, 0, -2]","[-2, 0, -2]",[],match,1.0,,-0.11016836630889663,0.67538106729383,1.1941689377629308,2nd,4th,4th,-0.16395193066360694,0.9783948026499948,1.4090861835051753
perc,resp,1709,1,3.3.2left.bmp,3.3.2right.bmp,,ACC029,"[2, 2, 0]","[2, 2, 0]",[],match,1.0,,0.008541129767648079,0.2341997959794292,0.9284457908890381,3rd,3rd,4th,0.10503131623656096,0.093182005421393,1.4090861835051753
perc,resp,1450,1,1.2.3left.bmp,1.2.3right.bmp,,ACC029,"[-2, 0, 2]","[-2, 0, 2]",[],match,1.0,,-0.2983401093016033,-0.06408917702283227,0.9154998125057715,2nd,3rd,4th,-0.16395193066360694,0.093182005421393,1.4090861835051753
perc,resp,1785,1,2.1.1left.bmp,2.1.1right.bmp,,ACC029,"[0, -2, -2]","[0, -2, -2]",[],match,1.0,,-0.48532185545627493,-0.01821302688467529,0.8955849394431001,1st,3rd,4th,-0.8771182747292928,0.093182005421393,1.4090861835051753
perc,resp,1719,1,2.1.2left.bmp,2.1.2right.bmp,,ACC029,"[0, -2, 0]","[0, -2, 0]",[],match,1.0,,-0.010554367796931937,-0.18178452716732627,0.723375087764691,3rd,2nd,3rd,0.10503131623656096,-0.2188095449075406,0.24027037145580496
perc,resp,1343,1,2.2.2left.bmp,1.2.2right.bmp,,ACC029,"[0, 0, 0]","[-2, 0, 0]",[],non-match,0.7113248654051871,4,0.22277355995837733,0.0046200855058458005,0.6151585606960539,3rd,3rd,3rd,0.10503131623656096,0.093182005421393,0.24027037145580496
perc,resp,1565,0,2.2.1left.bmp,3.2.3right.bmp,,ACC029,"[0, 0, -2]","[2, 0, 2]",[],non-match,0.3545027756320971,2,0.04983732677368505,-0.09329426392654842,0.868388196635517,3rd,2nd,4th,0.10503131623656096,-0.2188095449075406,1.4090861835051753
perc,resp,880,1,3.1.1left.bmp,1.1.1right.bmp,,ACC029,"[2, -2, -2]","[-2, -2, -2]",[],non-match,0.42264973081037416,2,-1.1569166203888999,-0.8936901747386077,0.9087377974782946,1st,1st,4th,-0.8771182747292928,-0.8512396893044796,1.4090861835051753
perc,resp,1393,1,2.3.3left.bmp,2.3.3right.bmp,,ACC029,"[0, 2, 2]","[0, 2, 2]",[],match,1.0,,0.9944195734898267,1.1486956161404358,0.8461663184654159,4th,4th,4th,0.9377607140126758,0.9783948026499948,1.4090861835051753
perc,resp,940,1,3.3.1left.bmp,1.2.3right.bmp,,ACC029,"[2, 2, -2]","[-2, 0, 2]",[],non-match,0.1339745962155613,1,0.06523006666185946,-0.030471100367261014,0.8420219729252332,3rd,3rd,4th,0.10503131623656096,0.093182005421393,1.4090861835051753
perc,resp,1219,1,1.3.3left.bmp,2.2.2right.bmp,,ACC029,"[-2, 2, 2]","[0, 0, 0]",[],non-match,0.5,3,1.0131109336912438,1.0153499669482553,2.055021222860111,4th,4th,4th,0.9377607140126758,0.9783948026499948,1.4090861835051753
perc,resp,1390,1,1.3.1left.bmp,1.1.2right.bmp,,ACC029,"[-2, 2, -2]","[-2, -2, 0]",[],non-match,0.3545027756320971,2,0.7255432422752752,0.6684272835518034,2.083787281909519,4th,4th,4th,0.9377607140126758,0.9783948026499948,1.4090861835051753
perc,resp,939,1,3.1.3left.bmp,1.2.2right.bmp,,ACC029,"[2, -2, 2]","[-2, 0, 0]",[],non-match,0.29289321881345254,1,0.28833829237137,-0.007861253105912597,1.8628459930630377,4th,3rd,4th,0.9377607140126758,0.093182005421393,1.4090861835051753
perc,resp,1390,0,1.1.1left.bmp,1.1.1right.bmp,,ACC029,"[-2, -2, -2]","[-2, -2, -2]",[],match,1.0,,-0.07031370363815484,0.10247031147889034,1.8635379742385605,2nd,3rd,4th,-0.16395193066360694,0.093182005421393,1.4090861835051753
perc,resp,1401,1,3.2.3left.bmp,1.3.2right.bmp,,ACC029,"[2, 0, 2]","[-2, 2, 0]",[],non-match,0.29289321881345254,1,0.3324825540890861,0.1534784409384444,1.5538725326180283,4th,3rd,4th,0.9377607140126758,0.093182005421393,1.4090861835051753
perc,resp,1382,0,3.3.3left.bmp,2.1.3right.bmp,,ACC029,"[2, 2, 2]","[0, -2, 2]",[],non-match,0.3545027756320971,2,-0.1762960111994689,-0.11472005048527098,1.2238286298740275,2nd,2nd,4th,-0.16395193066360694,-0.2188095449075406,1.4090861835051753
perc,resp,929,1,1.1.3left.bmp,3.3.2right.bmp,,ACC029,"[-2, -2, 2]","[2, 2, 0]",[],non-match,0.1339745962155613,1,-3.6885582478692527,-2.5682737221056597,1.1661236584517494,1st,1st,4th,-0.8771182747292928,-0.8512396893044796,1.4090861835051753
perc,resp,1894,0,3.2.1left.bmp,3.3.1right.bmp,,ACC029,"[2, 0, -2]","[2, 2, -2]",[],non-match,0.7113248654051871,4,2.878394896896867,2.2876924762410606,1.3276352122952155,4th,4th,4th,0.9377607140126758,0.9783948026499948,1.4090861835051753
perc,resp,1740,0,2.3.2left.bmp,2.3.2right.bmp,,ACC029,"[0, 2, 0]","[0, 2, 0]",[],match,1.0,,0.5563287421603713,0.3023557094716983,1.3657227235323848,4th,4th,4th,0.9377607140126758,0.9783948026499948,1.4090861835051753
perc,resp,1932,1,1.3.2left.bmp,1.3.2right.bmp,,ACC029,"[-2, 2, 0]","[-2, 2, 0]",[],match,1.0,,0.6227899550489465,0.8517244436068175,1.1174761091541507,4th,4th,4th,0.9377607140126758,0.9783948026499948,1.4090861835051753
perc,resp,2090,1,3.1.2left.bmp,3.1.2right.bmp,,ACC029,"[2, -2, 0]","[2, -2, 0]",[],match,1.0,,0.3661615736179428,-0.19184370119472643,1.107535851361213,4th,2nd,4th,0.9377607140126758,-0.2188095449075406,1.4090861835051753
perc,resp,1218,1,3.2.2left.bmp,1.3.1right.bmp,,ACC029,"[2, 0, 0]","[-2, 2, -2]",[],non-match,0.29289321881345254,1,-0.13933705795505422,0.1705992637425659,0.94177406631262,2nd,3rd,4th,-0.16395193066360694,0.093182005421393,1.4090861835051753
perc,resp,1903,1,2.1.3left.bmp,2.1.3right.bmp,,ACC029,"[0, -2, 2]","[0, -2, 2]",[],match,1.0,,1.0873029646869643,0.7921688602311838,0.8628280114759994,4th,4th,4th,0.9377607140126758,0.9783948026499948,1.4090861835051753
perc,resp,1910,1,2.2.3left.bmp,2.2.3right.bmp,,ACC029,"[0, 0, 2]","[0, 0, 2]",[],match,1.0,,-0.015714911487142238,0.19227677562288356,0.8774205509144481,3rd,3rd,4th,0.10503131623656096,0.093182005421393,1.4090861835051753
perc,resp,1934,0,3.2.2left.bmp,3.2.2right.bmp,,ACC029,"[2, 0, 0]","[2, 0, 0]",[],match,1.0,,0.6142348459394237,0.07131934820221372,0.7060444300941435,4th,3rd,3rd,0.9377607140126758,0.093182005421393,0.24027037145580496
perc,resp,2376,1,2.2.1left.bmp,2.2.1right.bmp,,ACC029,"[0, 0, -2]","[0, 0, -2]",[],match,1.0,,0.0116020526910476,-0.33465519630236373,0.8025421535101045,3rd,2nd,4th,0.10503131623656096,-0.2188095449075406,1.4090861835051753
perc,resp,2022,1,3.1.1left.bmp,3.1.1right.bmp,,ACC029,"[2, -2, -2]","[2, -2, -2]",[],match,1.0,,-0.205167075958064,-0.08869693180426305,0.7918879403200434,2nd,2nd,4th,-0.16395193066360694,-0.2188095449075406,1.4090861835051753
perc,resp,1533,1,1.1.3left.bmp,1.3.1right.bmp,,ACC029,"[-2, -2, 2]","[-2, 2, -2]",[],non-match,0.18350341907227385,1,-0.06506041867286975,0.060388360715880246,0.7445246069538788,2nd,3rd,3rd,-0.16395193066360694,0.093182005421393,0.24027037145580496
perc,resp,902,1,1.1.1left.bmp,2.1.2right.bmp,,ACC029,"[-2, -2, -2]","[0, -2, 0]",[],non-match,0.5917517095361369,3,-0.3298635800489235,-0.36412472959989783,0.6508337678378537,1st,2nd,3rd,-0.8771182747292928,-0.2188095449075406,0.24027037145580496
perc,resp,1886,0,1.3.2left.bmp,1.3.2right.bmp,,ACC029,"[-2, 2, 0]","[-2, 2, 0]",[],match,1.0,,0.17125042672896174,-0.31859187738903577,0.5479143655248767,3rd,2nd,3rd,0.10503131623656096,-0.2188095449075406,0.24027037145580496
perc,resp,1145,1,2.1.3left.bmp,2.2.1right.bmp,,ACC029,"[0, -2, 2]","[0, 0, -2]",[],non-match,0.3545027756320971,2,0.10523357192263548,-0.3692457383168987,0.7496432749131834,3rd,1st,3rd,0.10503131623656096,-0.8512396893044796,0.24027037145580496
perc,resp,1526,1,2.3.2left.bmp,3.1.2right.bmp,,ACC029,"[0, 2, 0]","[2, -2, 0]",[],non-match,0.3545027756320971,2,-1.087364605861084,-0.4156560829469709,0.8896279830768122,1st,1st,4th,-0.8771182747292928,-0.8512396893044796,1.4090861835051753
perc,resp,763,1,1.2.3left.bmp,3.3.1right.bmp,,ACC029,"[-2, 0, 2]","[2, 2, -2]",[],non-match,0.1339745962155613,1,-2.3642408992885704,-2.06544254332284,0.995920296932165,1st,1st,4th,-0.8771182747292928,-0.8512396893044796,1.4090861835051753
perc,resp,1718,1,2.2.2left.bmp,2.2.2right.bmp,,ACC029,"[0, 0, 0]","[0, 0, 0]",[],match,1.0,,3.3849391777039566,3.1637089090278296,0.9852730793587249,4th,4th,4th,0.9377607140126758,0.9783948026499948,1.4090861835051753
perc,resp,1287,1,2.3.3left.bmp,2.2.3right.bmp,,ACC029,"[0, 2, 2]","[0, 0, 2]",[],non-match,0.7113248654051871,4,0.6705753219106118,0.4207735903620273,0.8356078632252,4th,4th,4th,0.9377607140126758,0.9783948026499948,1.4090861835051753
perc,resp,1681,1,3.3.2left.bmp,3.2.1right.bmp,,ACC029,"[2, 2, 0]","[2, 0, -2]",[],non-match,0.5917517095361369,3,0.5567577469210495,0.5571669448825827,0.6229173826826226,4th,4th,3rd,0.9377607140126758,0.9783948026499948,0.24027037145580496
perc,resp,1554,1,3.2.3left.bmp,2.2.1right.bmp,,ACC029,"[2, 0, 2]","[0, 0, -2]",[],non-match,0.3545027756320971,2,0.4114623320453359,0.6944495772996977,0.5114123077037674,4th,4th,3rd,0.9377607140126758,0.9783948026499948,0.24027037145580496
perc,resp,3107,1,1.3.1left.bmp,1.3.1right.bmp,,ACC029,"[-2, 2, -2]","[-2, 2, -2]",[],match,1.0,,0.9781620224819023,1.3492187075504476,0.5103009703324167,4th,4th,3rd,0.9377607140126758,0.9783948026499948,0.24027037145580496
perc,resp,1492,1,2.1.1left.bmp,1.2.1right.bmp,,ACC029,"[0, -2, -2]","[-2, 0, -2]",[],non-match,0.5917517095361369,3,-0.3462884453487167,-0.37080715058815916,0.5988449947791691,1st,1st,3rd,-0.8771182747292928,-0.8512396893044796,0.24027037145580496
perc,resp,899,1,3.2.1left.bmp,1.2.2right.bmp,,ACC029,"[2, 0, -2]","[-2, 0, 0]",[],non-match,0.3545027756320971,2,0.3505012807814525,0.2830501820980428,0.7360233189201927,4th,3rd,3rd,0.9377607140126758,0.093182005421393,0.24027037145580496
perc,resp,1006,1,2.3.1left.bmp,1.2.3right.bmp,,ACC029,"[0, 2, -2]","[-2, 0, 2]",[],non-match,0.29289321881345254,1,-1.5266679974487025,-1.434821519146636,0.7060094847181936,1st,1st,3rd,-0.8771182747292928,-0.8512396893044796,0.24027037145580496
perc,resp,1065,1,3.3.3left.bmp,3.1.3right.bmp,,ACC029,"[2, 2, 2]","[2, -2, 2]",[],non-match,0.42264973081037416,2,0.6400567167659124,0.7522931629002628,0.4870837045212542,4th,4th,3rd,0.9377607140126758,0.9783948026499948,0.24027037145580496
perc,resp,1515,1,3.1.2left.bmp,3.1.2right.bmp,,ACC029,"[2, -2, 0]","[2, -2, 0]",[],match,1.0,,0.9303293870410106,1.0934366063460268,0.5213327019821223,4th,4th,3rd,0.9377607140126758,0.9783948026499948,0.24027037145580496
perc,resp,1560,1,2.1.2left.bmp,3.2.2right.bmp,,ACC029,"[0, -2, 0]","[2, 0, 0]",[],non-match,0.5917517095361369,3,0.30725788254866965,0.3045162092964576,0.1346004873046199,4th,4th,3rd,0.9377607140126758,0.9783948026499948,0.24027037145580496
perc,resp,805,1,3.3.1left.bmp,1.1.3right.bmp,,ACC029,"[2, 2, -2]","[-2, -2, 2]",[],non-match,0.0,1,0.00793916242155667,-0.04703058636799491,0.180086839690824,3rd,3rd,3rd,0.10503131623656096,0.093182005421393,0.24027037145580496
perc,resp,802,1,1.2.1left.bmp,3.3.3right.bmp,,ACC029,"[-2, 0, -2]","[2, 2, 2]",[],non-match,0.1339745962155613,1,0.4658168801773007,-0.48909740231648413,0.10985323853297561,4th,1st,3rd,0.9377607140126758,-0.8512396893044796,0.24027037145580496
perc,resp,1201,1,2.2.3left.bmp,1.1.1right.bmp,,ACC029,"[0, 0, 2]","[-2, -2, -2]",[],non-match,0.29289321881345254,1,0.24043924703838154,-0.17187605433557374,0.08248525520976437,3rd,2nd,3rd,0.10503131623656096,-0.2188095449075406,0.24027037145580496
perc,resp,848,1,1.2.2left.bmp,2.3.1right.bmp,,ACC029,"[-2, 0, 0]","[0, 2, -2]",[],non-match,0.5,3,0.21520050670361388,0.3247191230555711,0.1309967960842268,3rd,4th,3rd,0.10503131623656096,0.9783948026499948,0.24027037145580496
perc,resp,1600,1,1.3.3left.bmp,1.3.3right.bmp,,ACC029,"[-2, 2, 2]","[-2, 2, 2]",[],match,1.0,,1.8977582550953669,1.759621402467884,0.2855465637155721,4th,4th,3rd,0.9377607140126758,0.9783948026499948,0.24027037145580496
perc,resp,1888,1,1.1.2left.bmp,1.1.2right.bmp,,ACC029,"[-2, -2, 0]","[-2, -2, 0]",[],match,1.0,,0.9293462831602762,0.7736080663763133,0.3484789372036411,4th,4th,3rd,0.9377607140126758,0.9783948026499948,0.24027037145580496
perc,resp,1550,1,2.3.3left.bmp,2.3.3right.bmp,,ACC029,"[0, 2, 2]","[0, 2, 2]",[],match,1.0,,0.32990644395694796,-0.0072445451823084615,0.4122962937024542,4th,3rd,3rd,0.9377607140126758,0.093182005421393,0.24027037145580496
perc,resp,1927,0,3.3.2left.bmp,3.2.2right.bmp,,ACC029,"[2, 2, 0]","[2, 0, 0]",[],non-match,0.7113248654051871,4,-0.16892941123175303,-0.02367336982596138,0.5227318618743375,2nd,3rd,3rd,-0.16395193066360694,0.093182005421393,0.24027037145580496
perc,resp,2334,1,1.3.2left.bmp,1.2.1right.bmp,,ACC029,"[-2, 2, 0]","[-2, 0, -2]",[],non-match,0.5917517095361369,3,0.5352014539681316,0.7970197888648096,0.5312718291238836,4th,4th,3rd,0.9377607140126758,0.9783948026499948,0.24027037145580496
perc,resp,2502,1,2.2.1left.bmp,2.2.1right.bmp,,ACC029,"[0, 0, -2]","[0, 0, -2]",[],match,1.0,,-0.7631709532004805,-0.7432217799942407,0.5185989899144584,1st,1st,3rd,-0.8771182747292928,-0.8512396893044796,0.24027037145580496
perc,resp,1416,1,2.1.2left.bmp,2.1.2right.bmp,,ACC029,"[0, -2, 0]","[0, -2, 0]",[],match,1.0,,0.5613002362923656,0.45481417361404797,0.23502048909787954,4th,4th,3rd,0.9377607140126758,0.9783948026499948,0.24027037145580496
perc,resp,1849,1,1.1.2left.bmp,2.1.1right.bmp,,ACC029,"[-2, -2, 0]","[0, -2, -2]",[],non-match,0.5917517095361369,3,0.21535196737889117,-0.06310955889016312,0.4238692033656994,3rd,3rd,3rd,0.10503131623656096,0.093182005421393,0.24027037145580496
perc,resp,1772,1,2.2.3left.bmp,2.2.3right.bmp,,ACC029,"[0, 0, 2]","[0, 0, 2]",[],match,1.0,,-0.08978177826417895,-0.3523441012471012,0.6506747542086182,2nd,2nd,3rd,-0.16395193066360694,-0.2188095449075406,0.24027037145580496
perc,resp,1202,1,3.2.1left.bmp,2.3.2right.bmp,,ACC029,"[2, 0, -2]","[0, 2, 0]",[],non-match,0.5,3,-0.3345885671772126,-0.661388953334555,0.43479234622525476,1st,1st,3rd,-0.8771182747292928,-0.8512396893044796,0.24027037145580496
perc,resp,2543,0,2.3.1left.bmp,3.3.3right.bmp,,ACC029,"[0, 2, -2]","[2, 2, 2]",[],non-match,0.3545027756320971,2,-0.31959590050283393,-0.46479646575056704,0.41995743659780943,1st,1st,3rd,-0.8771182747292928,-0.8512396893044796,0.24027037145580496
perc,resp,1105,1,1.2.3left.bmp,3.2.3right.bmp,,ACC029,"[-2, 0, 2]","[2, 0, 2]",[],non-match,0.42264973081037416,2,0.2668516908622019,0.42114138980881494,0.29466131415936814,4th,4th,3rd,0.9377607140126758,0.9783948026499948,0.24027037145580496
perc,resp,1968,0,2.3.1left.bmp,3.3.2right.bmp,,ACC029,"[0, 2, -2]","[2, 2, 0]",[],non-match,0.5917517095361369,3,0.21601250640693906,0.2562423105820755,0.5454724816258256,3rd,3rd,3rd,0.10503131623656096,0.093182005421393,0.24027037145580496
perc,resp,1250,1,1.1.1left.bmp,1.3.1right.bmp,,ACC029,"[-2, -2, -2]","[-2, 2, -2]",[],non-match,0.42264973081037416,2,-0.37356397715500533,-0.30666908388628633,-0.07028418850821645,1st,2nd,3rd,-0.8771182747292928,-0.2188095449075406,0.24027037145580496
perc,resp,2063,1,2.3.3left.bmp,2.3.3right.bmp,,ACC029,"[0, 2, 2]","[0, 2, 2]",[],match,1.0,,-0.6903552181948375,-0.32858223740752207,-0.059980285274505406,1st,2nd,3rd,-0.8771182747292928,-0.2188095449075406,0.24027037145580496
perc,resp,1766,1,3.1.2left.bmp,3.1.2right.bmp,,ACC029,"[2, -2, 0]","[2, -2, 0]",[],match,1.0,,-0.42797541647029075,-0.32774969126780834,-0.02035815802656137,1st,2nd,3rd,-0.8771182747292928,-0.2188095449075406,0.24027037145580496
perc,resp,1388,1,2.2.3left.bmp,1.1.3right.bmp,,ACC029,"[0, 0, 2]","[-2, -2, 2]",[],non-match,0.5917517095361369,3,0.43062707812949685,0.2973373194159926,0.04981553934094939,4th,4th,3rd,0.9377607140126758,0.9783948026499948,0.24027037145580496
perc,resp,1713,1,3.1.1left.bmp,3.1.1right.bmp,,ACC029,"[2, -2, -2]","[2, -2, -2]",[],match,1.0,,-0.5419069256700139,-0.42997036131887334,0.006597004736893753,1st,1st,3rd,-0.8771182747292928,-0.8512396893044796,0.24027037145580496
perc,resp,1836,1,1.2.1left.bmp,1.2.1right.bmp,,ACC029,"[-2, 0, -2]","[-2, 0, -2]",[],match,1.0,,-0.2542158938713159,-0.3278385853559286,0.34203555566592736,2nd,2nd,3rd,-0.16395193066360694,-0.2188095449075406,0.24027037145580496
perc,resp,1789,1,1.3.2left.bmp,1.1.1right.bmp,,ACC029,"[-2, 2, 0]","[-2, -2, -2]",[],non-match,0.3545027756320971,2,0.2223330956950162,0.14220033769412513,0.1795566695207105,3rd,3rd,3rd,0.10503131623656096,0.093182005421393,0.24027037145580496
perc,resp,2389,1,3.2.1left.bmp,3.2.1right.bmp,,ACC029,"[2, 0, -2]","[2, 0, -2]",[],match,1.0,,0.13015578413549642,0.18326359666332495,0.014870059972202724,3rd,3rd,3rd,0.10503131623656096,0.093182005421393,0.24027037145580496
perc,resp,1843,1,3.1.3left.bmp,3.1.3right.bmp,,ACC029,"[2, -2, 2]","[2, -2, 2]",[],match,1.0,,-0.2071557877229023,-0.08139877872791015,-0.394985232904667,2nd,2nd,2nd,-0.16395193066360694,-0.2188095449075406,-0.5299348899288414
perc,resp,1976,1,2.1.3left.bmp,2.1.3right.bmp,,ACC029,"[0, -2, 2]","[0, -2, 2]",[],match,1.0,,-0.3448147532960828,-0.046203369598000414,-0.3356235580679458,1st,3rd,2nd,-0.8771182747292928,0.093182005421393,-0.5299348899288414
perc,resp,1590,1,1.1.3left.bmp,1.1.3right.bmp,,ACC029,"[-2, -2, 2]","[-2, -2, 2]",[],match,1.0,,-0.05956559859302262,-0.48475495283410963,-0.5060833258011485,2nd,1st,2nd,-0.16395193066360694,-0.8512396893044796,-0.5299348899288414
perc,resp,1723,0,3.2.3left.bmp,3.2.2right.bmp,,ACC029,"[2, 0, 2]","[2, 0, 0]",[],non-match,0.7113248654051871,4,-0.1874027768433751,-0.3084379643206001,-0.608170061487285,2nd,2nd,2nd,-0.16395193066360694,-0.2188095449075406,-0.5299348899288414
perc,resp,1213,1,2.3.2left.bmp,3.2.1right.bmp,,ACC029,"[0, 2, 0]","[2, 0, -2]",[],non-match,0.5,3,0.37594132815014875,0.3564723478662023,-0.7270420754124681,4th,4th,2nd,0.9377607140126758,0.9783948026499948,-0.5299348899288414
perc,resp,1768,1,1.3.3left.bmp,1.3.3right.bmp,,ACC029,"[-2, 2, 2]","[-2, 2, 2]",[],match,1.0,,-0.2741344166963652,-0.5839374357256069,-1.1395048593580146,2nd,1st,1st,-0.16395193066360694,-0.8512396893044796,-1.1154828064836833
perc,resp,1503,0,1.2.2left.bmp,2.2.2right.bmp,,ACC029,"[-2, 0, 0]","[0, 0, 0]",[],non-match,0.7113248654051871,4,-0.05812068113283169,-0.4349950968204504,-1.087604221535797,2nd,1st,1st,-0.16395193066360694,-0.8512396893044796,-1.1154828064836833
perc,resp,2027,1,2.1.2left.bmp,3.1.2right.bmp,,ACC029,"[0, -2, 0]","[2, -2, 0]",[],non-match,0.7113248654051871,4,-0.08997554161505733,-0.12151822367360714,-1.0038641728288378,2nd,2nd,1st,-0.16395193066360694,-0.2188095449075406,-1.1154828064836833
perc,resp,2145,1,3.2.2left.bmp,2.1.3right.bmp,,ACC029,"[2, 0, 0]","[0, -2, 2]",[],non-match,0.5,3,0.04210061414339236,-0.4654382141195748,-1.2246283382074963,3rd,1st,1st,0.10503131623656096,-0.8512396893044796,-1.1154828064836833
perc,resp,1906,0,3.3.1left.bmp,3.1.3right.bmp,,ACC029,"[2, 2, -2]","[2, -2, 2]",[],non-match,0.18350341907227385,1,-0.509197950395316,-0.4234505414379287,-1.4487163701669024,1st,1st,1st,-0.8771182747292928,-0.8512396893044796,-1.1154828064836833
perc,resp,1560,0,2.1.1left.bmp,2.1.1right.bmp,,ACC029,"[0, -2, -2]","[0, -2, -2]",[],match,1.0,,0.12148784575096337,-0.3089974990978415,-1.3115940221620797,3rd,2nd,1st,0.10503131623656096,-0.2188095449075406,-1.1154828064836833
perc,resp,1463,1,3.3.3left.bmp,3.1.1right.bmp,,ACC029,"[2, 2, 2]","[2, -2, -2]",[],non-match,0.18350341907227385,1,0.2197339399661627,-0.04779884054068026,-1.0756355258412942,3rd,3rd,1st,0.10503131623656096,0.093182005421393,-1.1154828064836833
perc,resp,1767,1,2.2.1left.bmp,2.2.1right.bmp,,ACC029,"[0, 0, -2]","[0, 0, -2]",[],match,1.0,,0.03848779672140474,-0.0477729859296779,-1.3549555310850723,3rd,3rd,1st,0.10503131623656096,0.093182005421393,-1.1154828064836833
perc,resp,2788,1,1.3.1left.bmp,1.3.1right.bmp,,ACC029,"[-2, 2, -2]","[-2, 2, -2]",[],match,1.0,,-0.5665796525396384,-0.9682191203183841,-1.2038314070679228,1st,1st,1st,-0.8771182747292928,-0.8512396893044796,-1.1154828064836833
perc,resp,1523,1,2.2.2left.bmp,2.3.1right.bmp,,ACC029,"[0, 0, 0]","[0, 2, -2]",[],non-match,0.5917517095361369,3,-0.40629046778202976,0.7559505742809357,-0.9534058569140927,1st,4th,1st,-0.8771182747292928,0.9783948026499948,-1.1154828064836833
perc,resp,2018,1,3.3.2left.bmp,2.1.3right.bmp,,ACC029,"[2, 2, 0]","[0, -2, 2]",[],non-match,0.29289321881345254,1,-0.48783105252711056,0.03833540366723343,-1.2109574791280417,1st,3rd,1st,-0.8771182747292928,0.093182005421393,-1.1154828064836833
perc,resp,1118,1,2.2.3left.bmp,1.1.2right.bmp,,ACC029,"[0, 0, 2]","[-2, -2, 0]",[],non-match,0.5,3,0.20361249448052082,0.18604452667086008,-1.1742215741322952,3rd,3rd,1st,0.10503131623656096,0.093182005421393,-1.1154828064836833
perc,resp,1207,1,1.1.1left.bmp,2.3.3right.bmp,,ACC029,"[-2, -2, -2]","[0, 2, 2]",[],non-match,0.1339745962155613,1,-0.48849550642993433,-0.2571742816486003,-1.2056600973070744,1st,2nd,1st,-0.8771182747292928,-0.2188095449075406,-1.1154828064836833
perc,resp,1951,1,3.1.3left.bmp,2.2.1right.bmp,,ACC029,"[2, -2, 2]","[0, 0, -2]",[],non-match,0.29289321881345254,1,-0.061982417841145866,0.16977714747365236,-1.1350999350795352,2nd,3rd,1st,-0.16395193066360694,0.093182005421393,-1.1154828064836833
perc,resp,1242,1,2.2.2left.bmp,1.2.1right.bmp,,ACC029,"[0, 0, 0]","[-2, 0, -2]",[],non-match,0.5917517095361369,3,0.010179539675425316,0.18227945145869065,-1.2524866215893269,3rd,3rd,1st,0.10503131623656096,0.093182005421393,-1.1154828064836833
perc,resp,1847,1,2.1.1left.bmp,2.1.1right.bmp,,ACC029,"[0, -2, -2]","[0, -2, -2]",[],match,1.0,,-0.013362779034580122,0.5160671474125422,-1.0325256548330561,3rd,4th,1st,0.10503131623656096,0.9783948026499948,-1.1154828064836833
perc,resp,833,1,1.2.3left.bmp,2.1.3right.bmp,,ACC029,"[-2, 0, 2]","[0, -2, 2]",[],non-match,0.5917517095361369,3,-0.0034044354492928316,-0.2601206082303905,-1.3566924990146645,3rd,2nd,1st,0.10503131623656096,-0.2188095449075406,-1.1154828064836833
perc,resp,1524,0,2.2.1left.bmp,3.1.3right.bmp,,ACC029,"[0, 0, -2]","[2, -2, 2]",[],non-match,0.29289321881345254,1,-0.13130862259657305,-0.041895719780699864,-1.2656058155484442,2nd,3rd,1st,-0.16395193066360694,0.093182005421393,-1.1154828064836833
perc,resp,1447,1,1.1.3left.bmp,2.2.3right.bmp,,ACC029,"[-2, -2, 2]","[0, 0, 2]",[],non-match,0.5917517095361369,3,-0.3874038366417116,-0.07689078082574169,-1.2821141442792972,1st,2nd,1st,-0.8771182747292928,-0.2188095449075406,-1.1154828064836833
perc,resp,1548,1,3.3.1left.bmp,3.1.1right.bmp,,ACC029,"[2, 2, -2]","[2, -2, -2]",[],non-match,0.42264973081037416,2,0.5050533116122875,0.2031391528185419,-0.9235032123617517,4th,3rd,1st,0.9377607140126758,0.093182005421393,-1.1154828064836833
perc,resp,2436,0,3.1.2left.bmp,3.2.2right.bmp,,ACC029,"[2, -2, 0]","[2, 0, 0]",[],non-match,0.7113248654051871,4,0.18373035541119653,0.16658684943852767,-0.5708320458161336,3rd,3rd,2nd,0.10503131623656096,0.093182005421393,-0.5299348899288414
perc,resp,1226,0,2.1.2left.bmp,2.1.2right.bmp,,ACC029,"[0, -2, 0]","[0, -2, 0]",[],match,1.0,,0.09493711868594994,-0.0806863081419982,-0.558369963466614,3rd,2nd,2nd,0.10503131623656096,-0.2188095449075406,-0.5299348899288414
perc,resp,2769,1,2.3.2left.bmp,2.3.2right.bmp,,ACC029,"[0, 2, 0]","[0, 2, 0]",[],match,1.0,,-0.1474695378157713,-0.06939543855473666,-0.5700229327404672,2nd,2nd,2nd,-0.16395193066360694,-0.2188095449075406,-0.5299348899288414
perc,resp,2015,1,1.3.3left.bmp,1.3.3right.bmp,,ACC029,"[-2, 2, 2]","[-2, 2, 2]",[],match,1.0,,0.05301574132268935,-0.3660429738573495,-0.7051221692686036,3rd,1st,2nd,0.10503131623656096,-0.8512396893044796,-0.5299348899288414
perc,resp,2293,0,3.2.3left.bmp,3.2.3right.bmp,,ACC029,"[2, 0, 2]","[2, 0, 2]",[],match,1.0,,-0.8062066860460987,-0.9062088818144003,-1.008868036045009,1st,1st,1st,-0.8771182747292928,-0.8512396893044796,-1.1154828064836833
perc,resp,1905,0,3.2.2left.bmp,3.3.3right.bmp,,ACC029,"[2, 0, 0]","[2, 2, 2]",[],non-match,0.5917517095361369,3,-0.15080033484988217,-0.04379129535404485,-0.9012616473391815,2nd,3rd,1st,-0.16395193066360694,0.093182005421393,-1.1154828064836833
perc,resp,905,1,3.1.1left.bmp,1.2.3right.bmp,,ACC029,"[2, -2, -2]","[-2, 0, 2]",[],non-match,0.1339745962155613,1,-0.009070166539874226,-0.2605780437020926,-1.0540254616293012,3rd,2nd,1st,0.10503131623656096,-0.2188095449075406,-1.1154828064836833
perc,resp,2512,1,2.3.3left.bmp,2.3.3right.bmp,,ACC029,"[0, 2, 2]","[0, 2, 2]",[],match,1.0,,-0.43743132002636176,-0.8886312529273318,-1.006030771432779,1st,1st,1st,-0.8771182747292928,-0.8512396893044796,-1.1154828064836833
perc,resp,2090,1,1.2.2left.bmp,1.1.3right.bmp,,ACC029,"[-2, 0, 0]","[-2, -2, 2]",[],non-match,0.5917517095361369,3,0.43285286068770673,0.06134294917066077,-0.8241597845543386,4th,3rd,1st,0.9377607140126758,0.093182005421393,-1.1154828064836833
perc,resp,1254,1,3.3.3left.bmp,2.1.1right.bmp,,ACC029,"[2, 2, 2]","[0, -2, -2]",[],non-match,0.1339745962155613,1,0.16165448827531326,-0.5635310416940605,-0.8896936053608837,3rd,1st,1st,0.10503131623656096,-0.8512396893044796,-1.1154828064836833
perc,resp,1887,1,1.2.1left.bmp,3.2.3right.bmp,,ACC029,"[-2, 0, -2]","[2, 0, 2]",[],non-match,0.18350341907227385,1,0.24062022385517373,-0.08832252283240608,-0.7726706253005327,3rd,2nd,1st,0.10503131623656096,-0.2188095449075406,-1.1154828064836833
perc,resp,1397,1,1.3.2left.bmp,1.3.2right.bmp,,ACC029,"[-2, 2, 0]","[-2, 2, 0]",[],match,1.0,,-0.9563254137861453,-0.48767699356108557,-0.46063309396925106,1st,1st,2nd,-0.8771182747292928,-0.8512396893044796,-0.5299348899288414
perc,resp,1610,0,3.2.1left.bmp,3.2.1right.bmp,,ACC029,"[2, 0, -2]","[2, 0, -2]",[],match,1.0,,-0.17397632170280872,0.3696341959357971,-0.5640621114099498,2nd,4th,2nd,-0.16395193066360694,0.9783948026499948,-0.5299348899288414
perc,resp,1925,1,1.1.2left.bmp,2.1.2right.bmp,,ACC029,"[-2, -2, 0]","[0, -2, 0]",[],non-match,0.7113248654051871,4,-0.44316309834156364,-0.8641727651399996,-0.506667223847564,1st,1st,2nd,-0.8771182747292928,-0.8512396893044796,-0.5299348899288414
perc,resp,1153,1,3.3.2left.bmp,1.3.3right.bmp,,ACC029,"[2, 2, 0]","[-2, 2, 2]",[],non-match,0.3545027756320971,2,0.1475270590150108,-0.1301302537562331,-0.5268333917460567,3rd,2nd,2nd,0.10503131623656096,-0.2188095449075406,-0.5299348899288414
perc,resp,1960,0,2.3.1left.bmp,2.3.1right.bmp,,ACC029,"[0, 2, -2]","[0, 2, -2]",[],match,1.0,,-0.18274255435019038,-0.11772424562197864,-0.2805935672373077,2nd,2nd,2nd,-0.16395193066360694,-0.2188095449075406,-0.5299348899288414
perc,resp,2679,1,1.3.1left.bmp,1.3.1right.bmp,,ACC029,"[-2, 2, -2]","[-2, 2, -2]",[],match,1.0,,-0.21221336709820315,-0.3690303251425461,-0.5409472344491536,2nd,1st,2nd,-0.16395193066360694,-0.8512396893044796,-0.5299348899288414
perc,resp,1997,0,2.1.3left.bmp,2.1.3right.bmp,,ACC029,"[0, -2, 2]","[0, -2, 2]",[],match,1.0,,-0.492869905057085,-0.5223860499183544,-0.6900350791918782,1st,1st,2nd,-0.8771182747292928,-0.8512396893044796,-0.5299348899288414
perc,resp,884,1,3.1.2left.bmp,1.2.3right.bmp,,ACC029,"[2, -2, 0]","[-2, 0, 2]",[],non-match,0.29289321881345254,1,-0.10737075135958116,-0.5496831048844608,-0.24914790640571774,2nd,1st,3rd,-0.16395193066360694,-0.8512396893044796,0.24027037145580496
perc,resp,1141,1,3.3.1left.bmp,3.2.2right.bmp,,ACC029,"[2, 2, -2]","[2, 0, 0]",[],non-match,0.5917517095361369,3,-0.13453220985711667,-0.22840613515578284,-0.283091661460894,2nd,2nd,2nd,-0.16395193066360694,-0.2188095449075406,-0.5299348899288414
perc,resp,2258,1,2.3.3left.bmp,2.3.3right.bmp,,ACC029,"[0, 2, 2]","[0, 2, 2]",[],match,1.0,,-0.014488824228308921,0.29898080750198547,-0.1833570920660177,3rd,4th,3rd,0.10503131623656096,0.9783948026499948,0.24027037145580496
perc,resp,1698,1,2.2.3left.bmp,2.2.3right.bmp,,ACC029,"[0, 0, 2]","[0, 0, 2]",[],match,1.0,,-0.24371647472183444,0.04551156724435916,-0.5953885089195365,2nd,3rd,2nd,-0.16395193066360694,0.093182005421393,-0.5299348899288414
perc,resp,1160,1,2.2.2left.bmp,1.2.2right.bmp,,ACC029,"[0, 0, 0]","[-2, 0, 0]",[],non-match,0.7113248654051871,4,0.2492561367724457,0.006831529980455418,-0.6086843499305568,3rd,3rd,2nd,0.10503131623656096,0.093182005421393,-0.5299348899288414
perc,resp,1861,1,1.2.3left.bmp,1.2.3right.bmp,,ACC029,"[-2, 0, 2]","[-2, 0, 2]",[],match,1.0,,-0.25201897361519193,-0.4580272633077694,-1.0254826336493854,2nd,1st,1st,-0.16395193066360694,-0.8512396893044796,-1.1154828064836833
perc,resp,1861,1,3.3.3left.bmp,3.3.3right.bmp,,ACC029,"[2, 2, 2]","[2, 2, 2]",[],match,1.0,,-0.7726495148818271,-0.7642773295608642,-1.0787560855242144,1st,1st,1st,-0.8771182747292928,-0.8512396893044796,-1.1154828064836833
perc,resp,1742,1,1.1.2left.bmp,1.1.2right.bmp,,ACC029,"[-2, -2, 0]","[-2, -2, 0]",[],match,1.0,,-0.16140792385653638,0.1543740164951162,-0.9108850240774211,2nd,3rd,1st,-0.16395193066360694,0.093182005421393,-1.1154828064836833
perc,resp,1424,1,2.1.3left.bmp,2.3.3right.bmp,,ACC029,"[0, -2, 2]","[0, 2, 2]",[],non-match,0.42264973081037416,2,-0.26896744577434917,-0.5955686977402256,-0.6785544080850142,2nd,1st,2nd,-0.16395193066360694,-0.8512396893044796,-0.5299348899288414
perc,resp,1223,1,2.2.3left.bmp,3.1.3right.bmp,,ACC029,"[0, 0, 2]","[2, -2, 2]",[],non-match,0.5917517095361369,3,0.14034611466433605,0.07332512276735613,-0.8843375329630545,3rd,3rd,1st,0.10503131623656096,0.093182005421393,-1.1154828064836833
perc,resp,1818,1,2.2.2left.bmp,2.2.2right.bmp,,ACC029,"[0, 0, 0]","[0, 0, 0]",[],match,1.0,,-0.4817845878663523,-0.80787030801325,-0.8413493460708376,1st,1st,1st,-0.8771182747292928,-0.8512396893044796,-1.1154828064836833
perc,resp,1023,1,3.3.1left.bmp,1.1.2right.bmp,,ACC029,"[2, 2, -2]","[-2, -2, 0]",[],non-match,0.1339745962155613,1,-0.10141251402178253,-0.3220879565000622,-0.8381395375830971,2nd,2nd,1st,-0.16395193066360694,-0.2188095449075406,-1.1154828064836833
perc,resp,2441,1,3.2.1left.bmp,3.2.1right.bmp,,ACC029,"[2, 0, -2]","[2, 0, -2]",[],match,1.0,,0.07733801500230388,-0.31721151278583115,-0.8543835511130061,3rd,2nd,1st,0.10503131623656096,-0.2188095449075406,-1.1154828064836833
perc,resp,1624,1,2.3.2left.bmp,2.1.1right.bmp,,ACC029,"[0, 2, 0]","[0, -2, -2]",[],non-match,0.3545027756320971,2,0.006512666471924957,0.3096381385180915,-0.5955791324446224,3rd,4th,2nd,0.10503131623656096,0.9783948026499948,-0.5299348899288414
perc,resp,2191,1,2.2.1left.bmp,2.2.1right.bmp,,ACC029,"[0, 0, -2]","[0, 0, -2]",[],match,1.0,,-0.6375401127447193,-0.4836136100855572,-0.6736656412570137,1st,1st,2nd,-0.8771182747292928,-0.8512396893044796,-0.5299348899288414
perc,resp,2299,0,1.3.1left.bmp,1.2.3right.bmp,,ACC029,"[-2, 2, -2]","[-2, 0, 2]",[],non-match,0.3545027756320971,2,0.609557701709845,0.33112402447219447,-0.7959170209337031,4th,4th,1st,0.9377607140126758,0.9783948026499948,-1.1154828064836833
perc,resp,1674,1,1.3.2left.bmp,2.1.2right.bmp,,ACC029,"[-2, 2, 0]","[0, -2, 0]",[],non-match,0.3545027756320971,2,-0.11918346449130848,0.08185823089538577,-0.5919612305842519,2nd,3rd,2nd,-0.16395193066360694,0.093182005421393,-0.5299348899288414
perc,resp,1052,1,1.1.3left.bmp,3.2.3right.bmp,,ACC029,"[-2, -2, 2]","[2, 0, 2]",[],non-match,0.3545027756320971,2,0.533159262237269,0.26253842142929085,-0.4683843315849223,4th,3rd,2nd,0.9377607140126758,0.093182005421393,-0.5299348899288414
perc,resp,2369,1,1.1.1left.bmp,1.1.1right.bmp,,ACC029,"[-2, -2, -2]","[-2, -2, -2]",[],match,1.0,,-0.5328269907081277,0.0642654859892729,-0.7188751649106715,1st,3rd,2nd,-0.8771182747292928,0.093182005421393,-0.5299348899288414
perc,resp,2399,1,3.3.2left.bmp,3.3.2right.bmp,,ACC029,"[2, 2, 0]","[2, 2, 0]",[],match,1.0,,-0.4723713953347196,0.43478910336205445,-0.8749392759126842,1st,4th,1st,-0.8771182747292928,0.9783948026499948,-1.1154828064836833
perc,resp,1209,1,3.1.2left.bmp,1.3.3right.bmp,,ACC029,"[2, -2, 0]","[-2, 2, 2]",[],non-match,0.1339745962155613,1,-0.5430678990806297,-0.6114876527298975,-1.0692996609130834,1st,1st,1st,-0.8771182747292928,-0.8512396893044796,-1.1154828064836833
perc,resp,3133,0,3.2.2left.bmp,3.3.3right.bmp,,ACC029,"[2, 0, 0]","[2, 2, 2]",[],non-match,0.5917517095361369,3,0.11326332776948808,-0.07302606978969414,-1.1435492643879963,3rd,2nd,1st,0.10503131623656096,-0.2188095449075406,-1.1154828064836833
perc,resp,2322,1,3.2.3left.bmp,3.2.3right.bmp,,ACC029,"[2, 0, 2]","[2, 0, 2]",[],match,1.0,,-0.6542262690801844,-0.1879192428688957,-1.5535210910385973,1st,2nd,1st,-0.8771182747292928,-0.2188095449075406,-1.1154828064836833
perc,resp,2198,1,2.1.2left.bmp,2.1.2right.bmp,,ACC029,"[0, -2, 0]","[0, -2, 0]",[],match,1.0,,-0.38160454364821167,0.06825743792802745,-1.1831071633009955,1st,3rd,1st,-0.8771182747292928,0.093182005421393,-1.1154828064836833
perc,resp,1048,1,2.3.1left.bmp,1.2.3right.bmp,,ACC029,"[0, 2, -2]","[-2, 0, 2]",[],non-match,0.29289321881345254,1,0.30842617101652037,0.8046044653559317,-1.1041701100418275,4th,4th,1st,0.9377607140126758,0.9783948026499948,-1.1154828064836833
perc,resp,1751,1,1.3.3left.bmp,3.3.2right.bmp,,ACC029,"[-2, 2, 2]","[2, 2, 0]",[],non-match,0.3545027756320971,2,-0.09451870700858175,0.05458391000442535,-0.945397409834328,2nd,3rd,1st,-0.16395193066360694,0.093182005421393,-1.1154828064836833
perc,resp,2440,0,3.1.1left.bmp,3.2.1right.bmp,,ACC029,"[2, -2, -2]","[2, 0, -2]",[],non-match,0.7113248654051871,4,-0.01621758426579241,0.5118386811139961,-0.8501580819255313,3rd,4th,1st,0.10503131623656096,0.9783948026499948,-1.1154828064836833
perc,resp,1502,1,3.1.3left.bmp,2.3.1right.bmp,,ACC029,"[2, -2, 2]","[0, 2, -2]",[],non-match,0.1339745962155613,1,0.9105151878620494,0.8280116406521433,-0.6934396893248371,4th,4th,2nd,0.9377607140126758,0.9783948026499948,-0.5299348899288414
perc,resp,2251,1,2.1.1left.bmp,2.1.1right.bmp,,ACC029,"[0, -2, -2]","[0, -2, -2]",[],match,1.0,,-2.3534543227260105,-1.639913733990509,-0.9616947672070393,1st,1st,1st,-0.8771182747292928,-0.8512396893044796,-1.1154828064836833
perc,resp,2641,1,1.2.3left.bmp,1.2.3right.bmp,,ACC029,"[-2, 0, 2]","[-2, 0, 2]",[],match,1.0,,0.29810694160857293,0.35965475873594743,-0.6423964294020982,4th,4th,2nd,0.9377607140126758,0.9783948026499948,-0.5299348899288414
perc,resp,2490,1,2.3.3left.bmp,2.3.3right.bmp,,ACC029,"[0, 2, 2]","[0, 2, 2]",[],match,1.0,,0.21077090945817112,-0.1676724366320378,-0.5074263565558434,3rd,2nd,2nd,0.10503131623656096,-0.2188095449075406,-0.5299348899288414
perc,resp,1554,1,1.2.1left.bmp,1.1.3right.bmp,,ACC029,"[-2, 0, -2]","[-2, -2, 2]",[],non-match,0.3545027756320971,2,-0.24486194691701482,-0.03264596610039029,-0.2779778750289579,2nd,3rd,3rd,-0.16395193066360694,0.093182005421393,0.24027037145580496
perc,resp,2007,1,1.2.3left.bmp,1.2.3right.bmp,,ACC029,"[-2, 0, 2]","[-2, 0, 2]",[],match,1.0,,-0.029385415122056058,0.38981946417440577,-0.5743464784437531,2nd,4th,2nd,-0.16395193066360694,0.9783948026499948,-0.5299348899288414
perc,resp,1169,0,2.3.1left.bmp,2.3.1right.bmp,,ACC029,"[0, 2, -2]","[0, 2, -2]",[],match,1.0,,0.31305031456855553,1.0788220913038604,-0.5514698621080333,4th,4th,2nd,0.9377607140126758,0.9783948026499948,-0.5299348899288414
perc,resp,2988,1,2.1.3left.bmp,2.1.3right.bmp,,ACC029,"[0, -2, 2]","[0, -2, 2]",[],match,1.0,,0.22338903132162044,-0.28541304743602575,-0.3958469496061434,3rd,2nd,2nd,0.10503131623656096,-0.2188095449075406,-0.5299348899288414
perc,resp,1843,1,3.1.1left.bmp,3.1.1right.bmp,,ACC029,"[2, -2, -2]","[2, -2, -2]",[],match,1.0,,0.13901024281916644,-0.0036401910850700292,-0.6194343009962396,3rd,3rd,2nd,0.10503131623656096,0.093182005421393,-0.5299348899288414
perc,resp,1706,0,2.1.1left.bmp,2.1.1right.bmp,,ACC029,"[0, -2, -2]","[0, -2, -2]",[],match,1.0,,-0.2656759379305308,-0.34207987097998915,-0.434954541829405,2nd,2nd,2nd,-0.16395193066360694,-0.2188095449075406,-0.5299348899288414
perc,resp,2084,1,1.3.1left.bmp,3.2.3right.bmp,,ACC029,"[-2, 2, -2]","[2, 0, 2]",[],non-match,0.1339745962155613,1,0.5230314857262196,0.30645301140516734,-0.15332412174530424,4th,4th,3rd,0.9377607140126758,0.9783948026499948,0.24027037145580496
perc,resp,1959,0,2.2.3left.bmp,2.2.3right.bmp,,ACC029,"[0, 0, 2]","[0, 0, 2]",[],match,1.0,,0.0782930222902349,-0.26484037249893966,-0.29322176514186254,3rd,2nd,2nd,0.10503131623656096,-0.2188095449075406,-0.5299348899288414
perc,resp,1259,1,1.3.2left.bmp,2.2.1right.bmp,,ACC029,"[-2, 2, 0]","[0, 0, -2]",[],non-match,0.5,3,-0.03962031801615179,-0.18870795940686458,-0.20735638374368243,2nd,2nd,3rd,-0.16395193066360694,-0.2188095449075406,0.24027037145580496
perc,resp,1863,1,3.1.2left.bmp,2.3.1right.bmp,,ACC029,"[2, -2, 0]","[0, 2, -2]",[],non-match,0.29289321881345254,1,0.36483579320876625,0.4082756927270356,-0.07967644499641668,4th,4th,3rd,0.9377607140126758,0.9783948026499948,0.24027037145580496
perc,resp,3329,1,1.3.3left.bmp,1.3.3right.bmp,,ACC029,"[-2, 2, 2]","[-2, 2, 2]",[],match,1.0,,0.03631712028679448,-0.5100765153381772,-0.11856467218998129,3rd,1st,3rd,0.10503131623656096,-0.8512396893044796,0.24027037145580496
perc,resp,1352,1,3.1.3left.bmp,3.1.3right.bmp,,ACC029,"[2, -2, 2]","[2, -2, 2]",[],match,1.0,,0.05140269550696405,-0.16938945442690823,0.08398784420726546,3rd,2nd,3rd,0.10503131623656096,-0.2188095449075406,0.24027037145580496
perc,resp,2069,1,3.3.2left.bmp,3.3.2right.bmp,,ACC029,"[2, 2, 0]","[2, 2, 0]",[],match,1.0,,-0.33663445727198404,0.09489615791504803,-0.020606369237065977,1st,3rd,3rd,-0.8771182747292928,0.093182005421393,0.24027037145580496
perc,resp,1471,1,2.2.2left.bmp,3.2.2right.bmp,,ACC029,"[0, 0, 0]","[2, 0, 0]",[],non-match,0.7113248654051871,4,-0.04194027790462728,-0.08830504833461969,-0.2644287240038333,2nd,2nd,3rd,-0.16395193066360694,-0.2188095449075406,0.24027037145580496
perc,resp,1430,1,1.1.3left.bmp,1.1.2right.bmp,,ACC029,"[-2, -2, 2]","[-2, -2, 0]",[],non-match,0.7113248654051871,4,0.2520840114996802,-0.1583316888052241,-0.1770053073551187,3rd,2nd,3rd,0.10503131623656096,-0.2188095449075406,0.24027037145580496
perc,resp,1099,1,3.3.1left.bmp,1.3.1right.bmp,,ACC029,"[2, 2, -2]","[-2, 2, -2]",[],non-match,0.42264973081037416,2,0.5497240963154862,-0.1344489596892891,-0.3698791413372368,4th,2nd,2nd,0.9377607140126758,-0.2188095449075406,-0.5299348899288414
perc,resp,1974,1,3.2.1left.bmp,3.2.1right.bmp,,ACC029,"[2, 0, -2]","[2, 0, -2]",[],match,1.0,,-0.3315404839587335,-0.36573572839941904,-0.25098627366320136,1st,1st,3rd,-0.8771182747292928,-0.8512396893044796,0.24027037145580496
perc,resp,1094,1,2.2.1left.bmp,1.2.3right.bmp,,ACC029,"[0, 0, -2]","[-2, 0, 2]",[],non-match,0.3545027756320971,2,-0.1914802195320556,-0.429858984030845,-0.4972227397724682,2nd,1st,2nd,-0.16395193066360694,-0.8512396893044796,-0.5299348899288414
perc,resp,2051,1,1.1.1left.bmp,1.1.1right.bmp,,ACC029,"[-2, -2, -2]","[-2, -2, -2]",[],match,1.0,,-0.06796517278837363,0.04072664331998819,-0.20348474465406274,2nd,3rd,3rd,-0.16395193066360694,0.093182005421393,0.24027037145580496
perc,resp,3292,1,2.3.3left.bmp,1.2.2right.bmp,,ACC029,"[0, 2, 2]","[-2, 0, 0]",[],non-match,0.5,3,0.568301482924276,0.27476105296846765,-0.3741602014551413,4th,3rd,2nd,0.9377607140126758,0.093182005421393,-0.5299348899288414
perc,resp,2816,1,3.3.3left.bmp,2.2.3right.bmp,,ACC029,"[2, 2, 2]","[0, 0, 2]",[],non-match,0.5917517095361369,3,0.6590484630444536,0.6319740928673517,-0.35590291708897637,4th,4th,2nd,0.9377607140126758,0.9783948026499948,-0.5299348899288414
perc,resp,1801,1,1.1.2left.bmp,1.1.2right.bmp,,ACC029,"[-2, -2, 0]","[-2, -2, 0]",[],match,1.0,,-0.6490780463707511,-0.3218784737899841,-0.4498752411437233,1st,2nd,2nd,-0.8771182747292928,-0.2188095449075406,-0.5299348899288414
perc,resp,2108,1,3.2.2left.bmp,3.2.2right.bmp,,ACC029,"[2, 0, 0]","[2, 0, 0]",[],match,1.0,,-0.021641815112863894,-0.35406841014287593,-0.7368413521385314,3rd,2nd,2nd,0.10503131623656096,-0.2188095449075406,-0.5299348899288414
perc,resp,2860,1,1.2.2left.bmp,1.2.2right.bmp,,ACC029,"[-2, 0, 0]","[-2, 0, 0]",[],match,1.0,,0.16331721240291616,0.30634428119671864,-0.30539060777004623,3rd,4th,2nd,0.10503131623656096,0.9783948026499948,-0.5299348899288414
perc,resp,2440,1,2.1.2left.bmp,2.1.2right.bmp,,ACC029,"[0, -2, 0]","[0, -2, 0]",[],match,1.0,,-0.1272859527574831,0.5180274902954719,-0.289334043032047,2nd,4th,2nd,-0.16395193066360694,0.9783948026499948,-0.5299348899288414
perc,resp,1170,1,2.3.2left.bmp,1.1.1right.bmp,,ACC029,"[0, 2, 0]","[-2, -2, -2]",[],non-match,0.29289321881345254,1,0.1044757065403504,-0.2604086004285083,-0.407661155115552,3rd,2nd,2nd,0.10503131623656096,-0.2188095449075406,-0.5299348899288414
perc,resp,2016,1,3.2.3left.bmp,3.2.3right.bmp,,ACC029,"[2, 0, 2]","[2, 0, 2]",[],match,1.0,,-0.4372270641879405,-0.5156041741890937,-0.4233105300987474,1st,1st,2nd,-0.8771182747292928,-0.8512396893044796,-0.5299348899288414
perc,resp,2201,1,3.3.3left.bmp,3.3.3right.bmp,,ACC029,"[2, 2, 2]","[2, 2, 2]",[],match,1.0,,0.14119368945473115,0.35098708590878686,-0.6688965829357187,3rd,4th,2nd,0.10503131623656096,0.9783948026499948,-0.5299348899288414
perc,resp,1383,1,3.1.2left.bmp,1.3.2right.bmp,,ACC029,"[2, -2, 0]","[-2, 2, 0]",[],non-match,0.18350341907227385,1,-0.13852410384399905,-0.6561048555924812,-0.8767482385932656,2nd,1st,1st,-0.16395193066360694,-0.8512396893044796,-1.1154828064836833
perc,resp,1756,1,3.1.1left.bmp,2.3.2right.bmp,,ACC029,"[2, -2, -2]","[0, 2, 0]",[],non-match,0.29289321881345254,1,0.10732536571674153,-0.36121466737959035,-0.6890600360241088,3rd,2nd,2nd,0.10503131623656096,-0.2188095449075406,-0.5299348899288414
