mode,type,rt,acc,item_1,item_2,item_cue,subj_idx,item_1_number,item_2_number,item_cue_number,trial_type,similarity,similarity_bin,ams,pams,slps,ams_quantile,pams_quantile,slps_quantile,ams_bin,pam_bin,slp_bin
perc,resp,801,1,1.3.3left.bmp,1.3.3right.bmp,,ACC031,"[-2, 2, 2]","[-2, 2, 2]",[],match,1.0,,1.058472084429432,1.529597642012285,-0.4413194401077748,4th,4th,2nd,1.2192520366470139,1.3553928197092542,-0.36817657266836473
perc,resp,1064,1,3.2.2left.bmp,3.2.2right.bmp,,ACC031,"[2, 0, 0]","[2, 0, 0]",[],match,1.0,,0.05513882746410255,1.8164724930927365,-0.5747979209155684,3rd,4th,2nd,0.3839806384169253,1.3553928197092542,-0.36817657266836473
perc,resp,785,1,2.3.1left.bmp,3.3.1right.bmp,,ACC031,"[0, 2, -2]","[2, 2, -2]",[],non-match,0.7113248654051871,4,0.0832388461242305,0.7723794893654388,-0.7855699853106279,3rd,4th,1st,0.3839806384169253,1.3553928197092542,-1.3272062249438341
perc,resp,692,1,3.1.3left.bmp,1.3.2right.bmp,,ACC031,"[2, -2, 2]","[-2, 2, 0]",[],non-match,0.1339745962155613,1,-0.5564683552625028,-0.9731826845353264,-0.5477030403310427,2nd,1st,2nd,-0.30750016118454304,-1.1561481889053058,-0.36817657266836473
perc,resp,711,1,3.2.1left.bmp,2.3.3right.bmp,,ACC031,"[2, 0, -2]","[0, 2, 2]",[],non-match,0.29289321881345254,1,1.6543241177622763,0.12081837787642644,-0.8254456590308507,4th,3rd,1st,1.2192520366470139,0.2593300404473277,-1.3272062249438341
perc,resp,723,1,1.3.1left.bmp,1.3.1right.bmp,,ACC031,"[-2, 2, -2]","[-2, 2, -2]",[],match,1.0,,0.47539596365742587,-1.7130076996961585,-0.9638909637625884,3rd,1st,1st,0.3839806384169253,-1.1561481889053058,-1.3272062249438341
perc,resp,710,1,2.1.2left.bmp,3.1.2right.bmp,,ACC031,"[0, -2, 0]","[2, -2, 0]",[],non-match,0.7113248654051871,4,0.09337363590712583,0.8374361417188928,-1.015698152664164,3rd,4th,1st,0.3839806384169253,1.3553928197092542,-1.3272062249438341
perc,resp,1103,1,2.2.3left.bmp,2.2.3right.bmp,,ACC031,"[0, 0, 2]","[0, 0, 2]",[],match,1.0,,-0.46792136704487086,0.11875190279296789,-0.8882527102627437,2nd,3rd,1st,-0.30750016118454304,0.2593300404473277,-1.3272062249438341
perc,resp,692,1,1.2.1left.bmp,1.2.1right.bmp,,ACC031,"[-2, 0, -2]","[-2, 0, -2]",[],match,1.0,,-0.01644529225126041,2.0784657385743244,-0.8932731706298243,2nd,4th,1st,-0.30750016118454304,1.3553928197092542,-1.3272062249438341
perc,resp,751,1,3.1.1left.bmp,3.1.1right.bmp,,ACC031,"[2, -2, -2]","[2, -2, -2]",[],match,1.0,,-1.5299491465088324,-0.8447925498547741,-0.699332714582857,1st,1st,2nd,-1.2957325138793958,-1.1561481889053058,-0.36817657266836473
perc,resp,782,1,2.2.1left.bmp,1.1.2right.bmp,,ACC031,"[0, 0, -2]","[-2, -2, 0]",[],non-match,0.5,3,0.7043930543978754,-0.8772604639350412,-0.47857892939473345,4th,1st,2nd,1.2192520366470139,-1.1561481889053058,-0.36817657266836473
perc,resp,873,0,2.1.1left.bmp,1.1.1right.bmp,,ACC031,"[0, -2, -2]","[-2, -2, -2]",[],non-match,0.7113248654051871,4,0.4552594536100013,-1.1072712005354226,-0.2662209722623601,3rd,1st,2nd,0.3839806384169253,-1.1561481889053058,-0.36817657266836473
perc,resp,931,1,2.3.3left.bmp,2.3.3right.bmp,,ACC031,"[0, 2, 2]","[0, 2, 2]",[],match,1.0,,-1.6687243989118339,-1.6158268536158429,-0.2515734480996322,1st,1st,2nd,-1.2957325138793958,-1.1561481889053058,-0.36817657266836473
perc,resp,790,1,1.1.3left.bmp,1.3.1right.bmp,,ACC031,"[-2, -2, 2]","[-2, 2, -2]",[],non-match,0.18350341907227385,1,-0.6240278885559968,0.9166898923073548,0.004902271066907492,1st,4th,3rd,-1.2957325138793958,1.3553928197092542,0.4886427461008023
perc,resp,717,0,1.1.2left.bmp,1.1.2right.bmp,,ACC031,"[-2, -2, 0]","[-2, -2, 0]",[],match,1.0,,0.2810285511767908,-0.27253396292471405,-0.12615374058593248,3rd,2nd,2nd,0.3839806384169253,-0.45857467125127555,-0.36817657266836473
perc,resp,1090,1,3.1.2left.bmp,3.1.2right.bmp,,ACC031,"[2, -2, 0]","[2, -2, 0]",[],match,1.0,,0.46636539318640985,0.2767584534192935,-0.21559929296690516,3rd,3rd,2nd,0.3839806384169253,0.2593300404473277,-0.36817657266836473
perc,resp,628,0,1.2.2left.bmp,2.3.1right.bmp,,ACC031,"[-2, 0, 0]","[0, 2, -2]",[],non-match,0.5,3,0.847855804581317,0.76200972253667,0.04038437719333735,4th,4th,3rd,1.2192520366470139,1.3553928197092542,0.4886427461008023
perc,resp,677,1,3.2.3left.bmp,3.2.3right.bmp,,ACC031,"[2, 0, 2]","[2, 0, 2]",[],match,1.0,,0.4480405636768541,-0.11209315670709744,-0.01795688397988883,3rd,3rd,3rd,0.3839806384169253,0.2593300404473277,0.4886427461008023
perc,resp,784,1,3.3.3left.bmp,1.3.3right.bmp,,ACC031,"[2, 2, 2]","[-2, 2, 2]",[],non-match,0.42264973081037416,2,-0.8891531393349851,-1.3182847232103114,0.20347146173261135,1st,1st,3rd,-1.2957325138793958,-1.1561481889053058,0.4886427461008023
perc,resp,784,0,1.2.3left.bmp,1.2.1right.bmp,,ACC031,"[-2, 0, 2]","[-2, 0, -2]",[],non-match,0.42264973081037416,2,-1.1382634815864319,1.0341393432397465,0.23580351741974534,1st,4th,3rd,-1.2957325138793958,1.3553928197092542,0.4886427461008023
perc,resp,883,1,1.1.1left.bmp,3.1.2right.bmp,,ACC031,"[-2, -2, -2]","[2, -2, 0]",[],non-match,0.3545027756320971,2,0.7514820461845598,2.2338984154157178,0.2849337248143608,4th,4th,3rd,1.2192520366470139,1.3553928197092542,0.4886427461008023
perc,resp,712,1,1.3.2left.bmp,1.3.2right.bmp,,ACC031,"[-2, 2, 0]","[-2, 2, 0]",[],match,1.0,,1.582482258387615,0.5837023877382569,0.18042219721168018,4th,3rd,3rd,1.2192520366470139,0.2593300404473277,0.4886427461008023
perc,resp,729,1,3.3.1left.bmp,3.3.1right.bmp,,ACC031,"[2, 2, -2]","[2, 2, -2]",[],match,1.0,,-0.5735295658040749,1.4849431749352273,0.3637319999455792,2nd,4th,3rd,-0.30750016118454304,1.3553928197092542,0.4886427461008023
perc,resp,656,0,3.3.2left.bmp,3.3.2right.bmp,,ACC031,"[2, 2, 0]","[2, 2, 0]",[],match,1.0,,-0.48240613724236864,0.9953769133426946,0.3740468234387514,2nd,4th,3rd,-0.30750016118454304,1.3553928197092542,0.4886427461008023
perc,resp,806,1,2.3.2left.bmp,1.1.2right.bmp,,ACC031,"[0, 2, 0]","[-2, -2, 0]",[],non-match,0.3545027756320971,2,0.5597593999461796,-0.8033500187848238,0.48653683280324966,3rd,1st,3rd,0.3839806384169253,-1.1561481889053058,0.4886427461008023
perc,resp,563,0,2.1.3left.bmp,3.2.1right.bmp,,ACC031,"[0, -2, 2]","[2, 0, -2]",[],non-match,0.29289321881345254,1,0.9570186052694243,1.4620887264266818,0.533379245100791,4th,4th,3rd,1.2192520366470139,1.3553928197092542,0.4886427461008023
perc,resp,794,0,2.2.2left.bmp,2.2.2right.bmp,,ACC031,"[0, 0, 0]","[0, 0, 0]",[],match,1.0,,-0.5686922717708383,1.9431712660033837,0.5684770005412714,2nd,4th,3rd,-0.30750016118454304,1.3553928197092542,0.4886427461008023
perc,resp,771,1,3.3.3left.bmp,3.2.2right.bmp,,ACC031,"[2, 2, 2]","[2, 0, 0]",[],non-match,0.5917517095361369,3,1.3001422801032734,0.7203547072022918,0.8211608563186108,4th,4th,3rd,1.2192520366470139,1.3553928197092542,0.4886427461008023
perc,resp,866,0,2.3.3left.bmp,2.3.3right.bmp,,ACC031,"[0, 2, 2]","[0, 2, 2]",[],match,1.0,,-0.32571517887308854,0.3377487602862098,0.4885339699060058,2nd,3rd,3rd,-0.30750016118454304,0.2593300404473277,0.4886427461008023
perc,resp,885,1,1.3.1left.bmp,1.3.1right.bmp,,ACC031,"[-2, 2, -2]","[-2, 2, -2]",[],match,1.0,,-0.4620722486862887,1.7959184617268336,0.8909243000873717,2nd,4th,4th,-0.30750016118454304,1.3553928197092542,1.2067400515113966
perc,resp,745,1,1.2.2left.bmp,2.2.1right.bmp,,ACC031,"[-2, 0, 0]","[0, 0, -2]",[],non-match,0.5917517095361369,3,-1.1255532169179059,-0.1175387773929909,0.8802537324952733,1st,3rd,4th,-1.2957325138793958,0.2593300404473277,1.2067400515113966
perc,resp,794,1,1.3.2left.bmp,2.1.2right.bmp,,ACC031,"[-2, 2, 0]","[0, -2, 0]",[],non-match,0.3545027756320971,2,0.751164386310904,-0.5689323396675796,1.3916867583903083,4th,2nd,4th,1.2192520366470139,-0.45857467125127555,1.2067400515113966
perc,resp,773,1,1.3.3left.bmp,1.3.3right.bmp,,ACC031,"[-2, 2, 2]","[-2, 2, 2]",[],match,1.0,,0.5442352401117868,0.06017135640761672,1.0583871393314814,3rd,3rd,4th,0.3839806384169253,0.2593300404473277,1.2067400515113966
perc,resp,881,0,3.1.1left.bmp,3.1.1right.bmp,,ACC031,"[2, -2, -2]","[2, -2, -2]",[],match,1.0,,-0.05294494394703457,2.5949171720601547,1.0374258568970172,2nd,4th,4th,-0.30750016118454304,1.3553928197092542,1.2067400515113966
perc,resp,784,1,2.1.3left.bmp,3.1.2right.bmp,,ACC031,"[0, -2, 2]","[2, -2, 0]",[],non-match,0.5917517095361369,3,-2.0838183538551553,-0.7581687397471794,1.148158939898015,1st,1st,4th,-1.2957325138793958,-1.1561481889053058,1.2067400515113966
perc,resp,641,0,2.2.3left.bmp,2.3.2right.bmp,,ACC031,"[0, 0, 2]","[0, 2, 0]",[],non-match,0.5917517095361369,3,-0.3603769781810191,-0.8098437588728497,1.0849965170673128,2nd,1st,4th,-0.30750016118454304,-1.1561481889053058,1.2067400515113966
perc,resp,667,1,3.3.1left.bmp,3.3.1right.bmp,,ACC031,"[2, 2, -2]","[2, 2, -2]",[],match,1.0,,-2.3075991994463285,-0.3354035715687453,1.1325188886630564,1st,2nd,4th,-1.2957325138793958,-0.45857467125127555,1.2067400515113966
perc,resp,723,1,2.3.1left.bmp,2.3.1right.bmp,,ACC031,"[0, 2, -2]","[0, 2, -2]",[],match,1.0,,1.2858837491776682,0.6970136592106446,1.3746509014604866,4th,4th,4th,1.2192520366470139,1.3553928197092542,1.2067400515113966
perc,resp,671,1,3.1.3left.bmp,3.1.3right.bmp,,ACC031,"[2, -2, 2]","[2, -2, 2]",[],match,1.0,,-0.5865878804047016,-1.0304823539139047,1.4861189063797793,2nd,1st,4th,-0.30750016118454304,-1.1561481889053058,1.2067400515113966
perc,resp,818,0,2.3.2left.bmp,2.3.3right.bmp,,ACC031,"[0, 2, 0]","[0, 2, 2]",[],non-match,0.7113248654051871,4,-1.1423743419619559,-1.0780629643354336,1.7033216429078863,1st,1st,4th,-1.2957325138793958,-1.1561481889053058,1.2067400515113966
perc,resp,675,1,1.1.3left.bmp,1.2.1right.bmp,,ACC031,"[-2, -2, 2]","[-2, 0, -2]",[],non-match,0.3545027756320971,2,1.3749560916573316,3.6440132331425605,1.8318736678219267,4th,4th,4th,1.2192520366470139,1.3553928197092542,1.2067400515113966
perc,resp,683,0,3.2.3left.bmp,3.2.3right.bmp,,ACC031,"[2, 0, 2]","[2, 0, 2]",[],match,1.0,,-1.7579304795065356,-0.08498273203110006,1.7605810694657729,1st,3rd,4th,-1.2957325138793958,0.2593300404473277,1.2067400515113966
perc,resp,890,0,1.2.3left.bmp,2.2.3right.bmp,,ACC031,"[-2, 0, 2]","[0, 0, 2]",[],non-match,0.7113248654051871,4,-0.8245598845459434,0.5798108893672137,1.601307185118621,1st,3rd,4th,-1.2957325138793958,0.2593300404473277,1.2067400515113966
perc,resp,848,1,2.2.2left.bmp,3.3.1right.bmp,,ACC031,"[0, 0, 0]","[2, 2, -2]",[],non-match,0.5,3,0.39878272256511055,2.4657265033802727,1.6856443605154,3rd,4th,4th,0.3839806384169253,1.3553928197092542,1.2067400515113966
perc,resp,1097,1,1.2.1left.bmp,2.2.1right.bmp,,ACC031,"[-2, 0, -2]","[0, 0, -2]",[],non-match,0.7113248654051871,4,-0.5292573822799271,-0.3786003437091302,1.8959884203002793,2nd,2nd,4th,-0.30750016118454304,-0.45857467125127555,1.2067400515113966
perc,resp,909,1,3.3.2left.bmp,2.1.1right.bmp,,ACC031,"[2, 2, 0]","[0, -2, -2]",[],non-match,0.29289321881345254,1,0.5418530954793949,-1.3084438945854764,1.7488248791485481,3rd,1st,4th,0.3839806384169253,-1.1561481889053058,1.2067400515113966
perc,resp,845,1,3.2.1left.bmp,3.2.1right.bmp,,ACC031,"[2, 0, -2]","[2, 0, -2]",[],match,1.0,,-1.962940476333011,-1.2733939433219519,1.6666121641255491,1st,1st,4th,-1.2957325138793958,-1.1561481889053058,1.2067400515113966
perc,resp,772,0,3.2.2left.bmp,3.2.2right.bmp,,ACC031,"[2, 0, 0]","[2, 0, 0]",[],match,1.0,,-0.40468649478918306,-0.728248808553361,1.6985789258495356,2nd,2nd,4th,-0.30750016118454304,-0.45857467125127555,1.2067400515113966
perc,resp,699,0,3.1.2left.bmp,3.1.3right.bmp,,ACC031,"[2, -2, 0]","[2, -2, 2]",[],non-match,0.7113248654051871,4,-0.24561318197507176,-0.37882298184528607,1.6728085480413486,2nd,2nd,4th,-0.30750016118454304,-0.45857467125127555,1.2067400515113966
perc,resp,721,0,1.1.2left.bmp,1.1.2right.bmp,,ACC031,"[-2, -2, 0]","[-2, -2, 0]",[],match,1.0,,-0.33162066623564124,0.46496755297412773,1.6213388012841452,2nd,3rd,4th,-0.30750016118454304,0.2593300404473277,1.2067400515113966
perc,resp,878,1,1.1.1left.bmp,3.2.1right.bmp,,ACC031,"[-2, -2, -2]","[2, 0, -2]",[],non-match,0.3545027756320971,2,0.7837781374123315,-0.16953696093377815,1.2411783112536836,4th,2nd,4th,1.2192520366470139,-0.45857467125127555,1.2067400515113966
perc,resp,707,1,1.2.3left.bmp,1.2.3right.bmp,,ACC031,"[-2, 0, 2]","[-2, 0, 2]",[],match,1.0,,-0.017050636964940944,-0.0067232941711584705,1.1572574939068796,2nd,3rd,4th,-0.30750016118454304,0.2593300404473277,1.2067400515113966
perc,resp,815,1,1.1.3left.bmp,1.1.3right.bmp,,ACC031,"[-2, -2, 2]","[-2, -2, 2]",[],match,1.0,,-1.6623243943423218,-0.4556470573886575,1.1731764414541244,1st,2nd,4th,-1.2957325138793958,-0.45857467125127555,1.2067400515113966
perc,resp,1024,1,2.1.2left.bmp,2.1.2right.bmp,,ACC031,"[0, -2, 0]","[0, -2, 0]",[],match,1.0,,-0.5405194492565966,-0.9156567597652234,1.2094201594319618,2nd,1st,4th,-0.30750016118454304,-1.1561481889053058,1.2067400515113966
perc,resp,721,1,1.1.2left.bmp,3.2.2right.bmp,,ACC031,"[-2, -2, 0]","[2, 0, 0]",[],non-match,0.3545027756320971,2,0.14630328470710546,-1.084002905575332,1.0529331190126017,3rd,1st,4th,0.3839806384169253,-1.1561481889053058,1.2067400515113966
perc,resp,708,1,1.3.3left.bmp,1.3.3right.bmp,,ACC031,"[-2, 2, 2]","[-2, 2, 2]",[],match,1.0,,-0.5646983073554885,-0.47654311597688626,1.1282722267091962,2nd,2nd,4th,-0.30750016118454304,-0.45857467125127555,1.2067400515113966
perc,resp,844,1,1.2.1left.bmp,1.3.2right.bmp,,ACC031,"[-2, 0, -2]","[-2, 2, 0]",[],non-match,0.5917517095361369,3,0.052279412709504314,0.20801381262728877,1.2063369054315187,2nd,3rd,4th,-0.30750016118454304,0.2593300404473277,1.2067400515113966
perc,resp,923,0,2.1.3left.bmp,2.1.3right.bmp,,ACC031,"[0, -2, 2]","[0, -2, 2]",[],match,1.0,,0.3862307757311456,-1.1212916732836762,0.9844909310118877,3rd,1st,4th,0.3839806384169253,-1.1561481889053058,1.2067400515113966
perc,resp,920,1,2.1.1left.bmp,1.1.1right.bmp,,ACC031,"[0, -2, -2]","[-2, -2, -2]",[],non-match,0.7113248654051871,4,-1.8244411384682397,-1.0571219726531695,1.121518502808773,1st,1st,4th,-1.2957325138793958,-1.1561481889053058,1.2067400515113966
perc,resp,814,1,2.3.2left.bmp,2.3.2right.bmp,,ACC031,"[0, 2, 0]","[0, 2, 0]",[],match,1.0,,-2.45190310676563,-1.5716464386673261,1.299376614343115,1st,1st,4th,-1.2957325138793958,-1.1561481889053058,1.2067400515113966
perc,resp,711,1,2.2.3left.bmp,3.1.1right.bmp,,ACC031,"[0, 0, 2]","[2, -2, -2]",[],non-match,0.29289321881345254,1,0.253354089410287,0.20004433064373814,1.1570347236990768,3rd,3rd,4th,0.3839806384169253,0.2593300404473277,1.2067400515113966
perc,resp,818,1,3.3.3left.bmp,3.3.3right.bmp,,ACC031,"[2, 2, 2]","[2, 2, 2]",[],match,1.0,,-1.4902282498494168,-1.7622762733385609,1.0358128676880023,1st,1st,4th,-1.2957325138793958,-1.1561481889053058,1.2067400515113966
perc,resp,655,1,3.1.3left.bmp,1.1.3right.bmp,,ACC031,"[2, -2, 2]","[-2, -2, 2]",[],non-match,0.42264973081037416,2,0.9428461637820977,0.4074669539063566,1.0466569055746988,4th,3rd,4th,1.2192520366470139,0.2593300404473277,1.2067400515113966
perc,resp,600,0,3.2.3left.bmp,3.2.3right.bmp,,ACC031,"[2, 0, 2]","[2, 0, 2]",[],match,1.0,,0.37749390076911754,2.3481230045507577,1.1100001283689351,3rd,4th,4th,0.3839806384169253,1.3553928197092542,1.2067400515113966
perc,resp,779,1,3.2.2left.bmp,3.2.2right.bmp,,ACC031,"[2, 0, 0]","[2, 0, 0]",[],match,1.0,,-0.31830339804133256,0.7558034166374948,1.0743899825466734,2nd,4th,4th,-0.30750016118454304,1.3553928197092542,1.2067400515113966
perc,resp,845,0,3.3.1left.bmp,3.3.1right.bmp,,ACC031,"[2, 2, -2]","[2, 2, -2]",[],match,1.0,,-0.5726659807212577,-0.44847134670961597,1.184899580861644,2nd,2nd,4th,-0.30750016118454304,-0.45857467125127555,1.2067400515113966
perc,resp,660,1,2.3.1left.bmp,3.2.1right.bmp,,ACC031,"[0, 2, -2]","[2, 0, -2]",[],non-match,0.5917517095361369,3,0.5572597325240026,1.4874340484366397,1.089797385865321,3rd,4th,4th,0.3839806384169253,1.3553928197092542,1.2067400515113966
perc,resp,747,1,2.2.2left.bmp,2.2.2right.bmp,,ACC031,"[0, 0, 0]","[0, 0, 0]",[],match,1.0,,0.0518376149014138,-0.6219581186180808,0.706244122969981,2nd,2nd,3rd,-0.30750016118454304,-0.45857467125127555,0.4886427461008023
perc,resp,785,0,2.2.1left.bmp,2.2.1right.bmp,,ACC031,"[0, 0, -2]","[0, 0, -2]",[],match,1.0,,2.003802197400385,1.4467025734431298,0.7569031221262272,4th,4th,3rd,1.2192520366470139,1.3553928197092542,0.4886427461008023
perc,resp,914,0,1.2.2left.bmp,2.3.2right.bmp,,ACC031,"[-2, 0, 0]","[0, 2, 0]",[],non-match,0.5917517095361369,3,0.6751624679801969,1.82064145854137,0.5734674675288448,4th,4th,3rd,1.2192520366470139,1.3553928197092542,0.4886427461008023
perc,resp,1023,1,1.3.2left.bmp,3.3.3right.bmp,,ACC031,"[-2, 2, 0]","[2, 2, 2]",[],non-match,0.3545027756320971,2,0.48663560677076456,0.7503525273405205,0.3894626366893954,3rd,4th,3rd,0.3839806384169253,1.3553928197092542,0.4886427461008023
perc,resp,649,0,2.3.3left.bmp,3.2.3right.bmp,,ACC031,"[0, 2, 2]","[2, 0, 2]",[],non-match,0.5917517095361369,3,0.4697380196046238,0.6635270749051069,0.26584351115221966,3rd,4th,3rd,0.3839806384169253,1.3553928197092542,0.4886427461008023
perc,resp,966,1,3.2.1left.bmp,3.2.1right.bmp,,ACC031,"[2, 0, -2]","[2, 0, -2]",[],match,1.0,,-0.07001540586406428,-0.3389019391558791,0.6344187065139945,2nd,2nd,3rd,-0.30750016118454304,-0.45857467125127555,0.4886427461008023
perc,resp,805,1,1.2.3left.bmp,3.2.3right.bmp,,ACC031,"[-2, 0, 2]","[2, 0, 2]",[],non-match,0.42264973081037416,2,-0.2991163344596716,0.027150021914905686,0.43501939916431864,2nd,3rd,3rd,-0.30750016118454304,0.2593300404473277,0.4886427461008023
perc,resp,712,0,2.3.1left.bmp,3.3.2right.bmp,,ACC031,"[0, 2, -2]","[2, 2, 0]",[],non-match,0.5917517095361369,3,0.34358202566279544,0.4072232609848738,0.5325645419930111,3rd,3rd,3rd,0.3839806384169253,0.2593300404473277,0.4886427461008023
perc,resp,678,1,1.1.1left.bmp,1.3.1right.bmp,,ACC031,"[-2, -2, -2]","[-2, 2, -2]",[],non-match,0.42264973081037416,2,0.42618730587608156,0.13322949559103728,0.34785776020132697,3rd,3rd,3rd,0.3839806384169253,0.2593300404473277,0.4886427461008023
perc,resp,695,1,2.3.3left.bmp,2.3.3right.bmp,,ACC031,"[0, 2, 2]","[0, 2, 2]",[],match,1.0,,1.6549344666763681,1.316691023702469,0.19414528476539863,4th,4th,3rd,1.2192520366470139,1.3553928197092542,0.4886427461008023
perc,resp,682,1,3.1.2left.bmp,3.1.2right.bmp,,ACC031,"[2, -2, 0]","[2, -2, 0]",[],match,1.0,,-0.7505867075411354,0.346392427898134,0.33227012806542683,1st,3rd,3rd,-1.2957325138793958,0.2593300404473277,0.4886427461008023
perc,resp,824,1,2.2.3left.bmp,1.1.3right.bmp,,ACC031,"[0, 0, 2]","[-2, -2, 2]",[],non-match,0.5917517095361369,3,0.08816712614674069,-0.7351158434977577,0.1093001776042402,3rd,2nd,3rd,0.3839806384169253,-0.45857467125127555,0.4886427461008023
perc,resp,619,1,3.1.1left.bmp,3.1.1right.bmp,,ACC031,"[2, -2, -2]","[2, -2, -2]",[],match,1.0,,0.9485044979888793,-0.32933365978777324,0.5799138193091611,4th,2nd,3rd,1.2192520366470139,-0.45857467125127555,0.4886427461008023
perc,resp,613,1,1.2.1left.bmp,1.2.1right.bmp,,ACC031,"[-2, 0, -2]","[-2, 0, -2]",[],match,1.0,,1.4613477706561204,-1.039085804133596,0.3065465645397679,4th,1st,3rd,1.2192520366470139,-1.1561481889053058,0.4886427461008023
perc,resp,618,1,1.3.2left.bmp,1.1.1right.bmp,,ACC031,"[-2, 2, 0]","[-2, -2, -2]",[],non-match,0.3545027756320971,2,1.0488189703839783,0.7939219750788842,0.5220049404091383,4th,4th,3rd,1.2192520366470139,1.3553928197092542,0.4886427461008023
perc,resp,755,1,3.2.1left.bmp,3.2.1right.bmp,,ACC031,"[2, 0, -2]","[2, 0, -2]",[],match,1.0,,-0.5325320972320394,-1.3867764172225416,0.3832930341421517,2nd,1st,3rd,-0.30750016118454304,-1.1561481889053058,0.4886427461008023
perc,resp,840,1,3.1.3left.bmp,3.1.3right.bmp,,ACC031,"[2, -2, 2]","[2, -2, 2]",[],match,1.0,,-2.0368260759936234,-2.088983942446562,0.47061745268760713,1st,1st,3rd,-1.2957325138793958,-1.1561481889053058,0.4886427461008023
perc,resp,757,1,2.1.3left.bmp,2.1.3right.bmp,,ACC031,"[0, -2, 2]","[0, -2, 2]",[],match,1.0,,0.4037358761128664,-0.930602428356877,0.6365763853332417,3rd,1st,3rd,0.3839806384169253,-1.1561481889053058,0.4886427461008023
perc,resp,701,1,1.1.3left.bmp,1.1.3right.bmp,,ACC031,"[-2, -2, 2]","[-2, -2, 2]",[],match,1.0,,1.7672717356980954,-0.8643363741934293,0.5040802372325458,4th,1st,3rd,1.2192520366470139,-1.1561481889053058,0.4886427461008023
perc,resp,860,0,3.2.3left.bmp,3.2.2right.bmp,,ACC031,"[2, 0, 2]","[2, 0, 0]",[],non-match,0.7113248654051871,4,-1.2683574848518377,0.11895580590539262,0.5819995646538587,1st,3rd,3rd,-1.2957325138793958,0.2593300404473277,0.4886427461008023
perc,resp,767,1,2.3.2left.bmp,3.2.1right.bmp,,ACC031,"[0, 2, 0]","[2, 0, -2]",[],non-match,0.5,3,-0.7863353537265486,-0.5669975896906386,0.42443427865015865,1st,2nd,3rd,-1.2957325138793958,-0.45857467125127555,0.4886427461008023
perc,resp,763,1,1.3.3left.bmp,1.3.3right.bmp,,ACC031,"[-2, 2, 2]","[-2, 2, 2]",[],match,1.0,,-1.1191106586134714,-0.5706042783488735,0.39032560633439417,1st,2nd,3rd,-1.2957325138793958,-0.45857467125127555,0.4886427461008023
perc,resp,1092,1,1.1.2left.bmp,1.1.2right.bmp,,ACC031,"[-2, -2, 0]","[-2, -2, 0]",[],match,1.0,,0.6293581687511932,-0.28396372318954427,0.20388663438442567,3rd,2nd,3rd,0.3839806384169253,-0.45857467125127555,0.4886427461008023
perc,resp,705,0,1.2.2left.bmp,2.2.2right.bmp,,ACC031,"[-2, 0, 0]","[0, 0, 0]",[],non-match,0.7113248654051871,4,0.725042990417097,-1.5446608400187372,-0.2774795065599459,4th,1st,2nd,1.2192520366470139,-1.1561481889053058,-0.36817657266836473
perc,resp,901,1,2.1.2left.bmp,3.1.2right.bmp,,ACC031,"[0, -2, 0]","[2, -2, 0]",[],non-match,0.7113248654051871,4,0.5835809245676399,-0.734787616891024,-0.3535256239787463,3rd,2nd,2nd,0.3839806384169253,-0.45857467125127555,-0.36817657266836473
perc,resp,958,1,3.2.2left.bmp,2.1.3right.bmp,,ACC031,"[2, 0, 0]","[0, -2, 2]",[],non-match,0.5,3,0.39551576489705664,0.7324281226738224,-0.19469957835901652,3rd,4th,2nd,0.3839806384169253,1.3553928197092542,-0.36817657266836473
perc,resp,766,1,3.3.1left.bmp,3.1.3right.bmp,,ACC031,"[2, 2, -2]","[2, -2, 2]",[],non-match,0.18350341907227385,1,-0.8462458275196133,-0.6204023056295258,-0.09663839931877859,1st,2nd,2nd,-1.2957325138793958,-0.45857467125127555,-0.36817657266836473
perc,resp,662,1,2.1.1left.bmp,2.1.1right.bmp,,ACC031,"[0, -2, -2]","[0, -2, -2]",[],match,1.0,,-1.0345556893235102,-0.7887567327919395,-0.15834804726901905,1st,1st,2nd,-1.2957325138793958,-1.1561481889053058,-0.36817657266836473
perc,resp,760,1,3.3.3left.bmp,3.1.1right.bmp,,ACC031,"[2, 2, 2]","[2, -2, -2]",[],non-match,0.18350341907227385,1,-0.3423546059345875,-0.05604539680384663,-0.5043452343809756,2nd,3rd,2nd,-0.30750016118454304,0.2593300404473277,-0.36817657266836473
perc,resp,704,1,2.2.1left.bmp,2.2.1right.bmp,,ACC031,"[0, 0, -2]","[0, 0, -2]",[],match,1.0,,0.8285628758898231,0.17715618661507235,-0.4229467483742894,4th,3rd,2nd,1.2192520366470139,0.2593300404473277,-0.36817657266836473
perc,resp,801,1,1.3.1left.bmp,1.3.1right.bmp,,ACC031,"[-2, 2, -2]","[-2, 2, -2]",[],match,1.0,,-3.5269105868366504,-1.3933839411253406,-0.35035477847263663,1st,1st,2nd,-1.2957325138793958,-1.1561481889053058,-0.36817657266836473
perc,resp,777,0,2.2.2left.bmp,2.3.1right.bmp,,ACC031,"[0, 0, 0]","[0, 2, -2]",[],non-match,0.5917517095361369,3,-1.8191717250998838,-1.3623685946697037,-0.3037204111682634,1st,1st,2nd,-1.2957325138793958,-1.1561481889053058,-0.36817657266836473
perc,resp,814,1,3.3.2left.bmp,2.1.3right.bmp,,ACC031,"[2, 2, 0]","[0, -2, 2]",[],non-match,0.29289321881345254,1,0.447014660664073,0.4522535687583588,-0.616434611046452,3rd,3rd,2nd,0.3839806384169253,0.2593300404473277,-0.36817657266836473
perc,resp,731,0,2.2.3left.bmp,1.1.2right.bmp,,ACC031,"[0, 0, 2]","[-2, -2, 0]",[],non-match,0.5,3,0.5188038732124953,-1.2939328102293752,-0.6425318804660287,3rd,1st,2nd,0.3839806384169253,-1.1561481889053058,-0.36817657266836473
perc,resp,757,1,1.1.1left.bmp,2.3.3right.bmp,,ACC031,"[-2, -2, -2]","[0, 2, 2]",[],non-match,0.1339745962155613,1,-0.760851484899644,-0.45660358552577046,-0.3491314202999638,1st,2nd,2nd,-1.2957325138793958,-0.45857467125127555,-0.36817657266836473
perc,resp,894,1,3.1.3left.bmp,2.2.1right.bmp,,ACC031,"[2, -2, 2]","[0, 0, -2]",[],non-match,0.29289321881345254,1,0.23611171615058907,0.11470041950783719,-0.08738291186197582,3rd,3rd,2nd,0.3839806384169253,0.2593300404473277,-0.36817657266836473
perc,resp,709,1,2.2.2left.bmp,1.2.1right.bmp,,ACC031,"[0, 0, 0]","[-2, 0, -2]",[],non-match,0.5917517095361369,3,1.6327112497614409,-0.389410629333041,-0.4167459717339603,4th,2nd,2nd,1.2192520366470139,-0.45857467125127555,-0.36817657266836473
perc,resp,849,0,2.1.1left.bmp,2.1.1right.bmp,,ACC031,"[0, -2, -2]","[0, -2, -2]",[],match,1.0,,-0.011543341335261166,-1.1039063224497485,-0.2650038100837315,2nd,1st,2nd,-0.30750016118454304,-1.1561481889053058,-0.36817657266836473
perc,resp,714,0,1.2.3left.bmp,2.1.3right.bmp,,ACC031,"[-2, 0, 2]","[0, -2, 2]",[],non-match,0.5917517095361369,3,-1.1567816134731541,-0.52967554498378,-0.2365425813037444,1st,2nd,2nd,-1.2957325138793958,-0.45857467125127555,-0.36817657266836473
perc,resp,789,1,1.1.3left.bmp,2.2.3right.bmp,,ACC031,"[-2, -2, 2]","[0, 0, 2]",[],non-match,0.5917517095361369,3,1.7601886613628948,-0.2966700207376546,-0.08295123513651585,4th,2nd,2nd,1.2192520366470139,-0.45857467125127555,-0.36817657266836473
perc,resp,785,1,3.3.1left.bmp,3.1.1right.bmp,,ACC031,"[2, 2, -2]","[2, -2, -2]",[],non-match,0.42264973081037416,2,0.7921072957865876,0.6513411313372093,-0.05660933020668755,4th,4th,2nd,1.2192520366470139,1.3553928197092542,-0.36817657266836473
perc,resp,762,0,3.1.2left.bmp,3.2.2right.bmp,,ACC031,"[2, -2, 0]","[2, 0, 0]",[],non-match,0.7113248654051871,4,0.6415633624695221,-1.1955722228501413,0.20017190561028153,3rd,1st,3rd,0.3839806384169253,-1.1561481889053058,0.4886427461008023
perc,resp,829,0,2.1.2left.bmp,2.1.2right.bmp,,ACC031,"[0, -2, 0]","[0, -2, 0]",[],match,1.0,,-1.4270585385961552,-0.47020196902023703,-0.12286142657339633,1st,2nd,2nd,-1.2957325138793958,-0.45857467125127555,-0.36817657266836473
perc,resp,653,1,2.3.2left.bmp,2.3.2right.bmp,,ACC031,"[0, 2, 0]","[0, 2, 0]",[],match,1.0,,-1.093846540966133,-1.5628304402914683,-0.3593310876188149,1st,1st,2nd,-1.2957325138793958,-1.1561481889053058,-0.36817657266836473
perc,resp,810,0,1.3.3left.bmp,1.3.3right.bmp,,ACC031,"[-2, 2, 2]","[-2, 2, 2]",[],match,1.0,,0.42040685619106366,1.6409900774654556,-0.2573986690916081,3rd,4th,2nd,0.3839806384169253,1.3553928197092542,-0.36817657266836473
perc,resp,909,0,3.2.3left.bmp,3.2.3right.bmp,,ACC031,"[2, 0, 2]","[2, 0, 2]",[],match,1.0,,-0.922776784281449,-1.5359317700396506,-0.03483434225033148,1st,1st,2nd,-1.2957325138793958,-1.1561481889053058,-0.36817657266836473
perc,resp,713,1,3.2.2left.bmp,3.3.3right.bmp,,ACC031,"[2, 0, 0]","[2, 2, 2]",[],non-match,0.5917517095361369,3,-0.684110608743728,-0.07428096406825556,-0.1749641407202323,1st,3rd,2nd,-1.2957325138793958,0.2593300404473277,-0.36817657266836473
perc,resp,670,1,3.1.1left.bmp,1.2.3right.bmp,,ACC031,"[2, -2, -2]","[-2, 0, 2]",[],non-match,0.1339745962155613,1,-0.02733256654010153,1.39434406015421,-0.18432730679680667,2nd,4th,2nd,-0.30750016118454304,1.3553928197092542,-0.36817657266836473
perc,resp,714,0,2.3.3left.bmp,2.3.3right.bmp,,ACC031,"[0, 2, 2]","[0, 2, 2]",[],match,1.0,,0.4800996871067971,0.6341790632395048,-0.3647171419675707,3rd,3rd,2nd,0.3839806384169253,0.2593300404473277,-0.36817657266836473
perc,resp,843,0,1.2.2left.bmp,1.1.3right.bmp,,ACC031,"[-2, 0, 0]","[-2, -2, 2]",[],non-match,0.5917517095361369,3,-1.1320284411423034,-1.215755655099578,-0.45377071663800594,1st,1st,2nd,-1.2957325138793958,-1.1561481889053058,-0.36817657266836473
perc,resp,910,1,3.3.3left.bmp,2.1.1right.bmp,,ACC031,"[2, 2, 2]","[0, -2, -2]",[],non-match,0.1339745962155613,1,-0.16270270355263647,1.4747682287624675,-0.3221879713057865,2nd,4th,2nd,-0.30750016118454304,1.3553928197092542,-0.36817657266836473
perc,resp,1019,1,1.2.1left.bmp,3.2.3right.bmp,,ACC031,"[-2, 0, -2]","[2, 0, 2]",[],non-match,0.18350341907227385,1,-0.84631179464832,-1.021830650687132,-0.42441073775587673,1st,1st,2nd,-1.2957325138793958,-1.1561481889053058,-0.36817657266836473
perc,resp,672,1,1.3.2left.bmp,1.3.2right.bmp,,ACC031,"[-2, 2, 0]","[-2, 2, 0]",[],match,1.0,,0.8166013306519561,-0.6694934543705087,-0.39423290446276593,4th,2nd,2nd,1.2192520366470139,-0.45857467125127555,-0.36817657266836473
perc,resp,629,1,3.2.1left.bmp,3.2.1right.bmp,,ACC031,"[2, 0, -2]","[2, 0, -2]",[],match,1.0,,-0.1329896753393844,-0.90245939937386,-0.5178853732476016,2nd,1st,2nd,-0.30750016118454304,-1.1561481889053058,-0.36817657266836473
perc,resp,633,0,1.1.2left.bmp,2.1.2right.bmp,,ACC031,"[-2, -2, 0]","[0, -2, 0]",[],non-match,0.7113248654051871,4,-0.35871813645587985,-0.44544228851810125,-0.18117976420151224,2nd,2nd,2nd,-0.30750016118454304,-0.45857467125127555,-0.36817657266836473
perc,resp,710,1,3.3.2left.bmp,1.3.3right.bmp,,ACC031,"[2, 2, 0]","[-2, 2, 2]",[],non-match,0.3545027756320971,2,0.4598520316937352,-0.28583955515376447,-0.026915556783092404,3rd,2nd,2nd,0.3839806384169253,-0.45857467125127555,-0.36817657266836473
perc,resp,693,1,2.3.1left.bmp,2.3.1right.bmp,,ACC031,"[0, 2, -2]","[0, 2, -2]",[],match,1.0,,0.8403508447874366,-0.28197232581398674,-0.41941586643683204,4th,2nd,2nd,1.2192520366470139,-0.45857467125127555,-0.36817657266836473
perc,resp,860,1,1.3.1left.bmp,1.3.1right.bmp,,ACC031,"[-2, 2, -2]","[-2, 2, -2]",[],match,1.0,,0.29484847220684834,0.5118962907283906,-0.4865046937190004,3rd,3rd,2nd,0.3839806384169253,0.2593300404473277,-0.36817657266836473
perc,resp,756,1,2.1.3left.bmp,2.1.3right.bmp,,ACC031,"[0, -2, 2]","[0, -2, 2]",[],match,1.0,,-0.13403784152831769,-0.7274536021421022,-0.6357888148921348,2nd,2nd,2nd,-0.30750016118454304,-0.45857467125127555,-0.36817657266836473
perc,resp,691,1,3.1.2left.bmp,1.2.3right.bmp,,ACC031,"[2, -2, 0]","[-2, 0, 2]",[],non-match,0.29289321881345254,1,0.6324151130826776,0.5043517182967049,-0.497236912953369,3rd,3rd,2nd,0.3839806384169253,0.2593300404473277,-0.36817657266836473
perc,resp,778,0,3.3.1left.bmp,3.2.2right.bmp,,ACC031,"[2, 2, -2]","[2, 0, 0]",[],non-match,0.5917517095361369,3,-0.6515213888414426,-0.7784518897993431,-0.41575417494144795,1st,1st,2nd,-1.2957325138793958,-1.1561481889053058,-0.36817657266836473
perc,resp,734,1,2.3.3left.bmp,2.3.3right.bmp,,ACC031,"[0, 2, 2]","[0, 2, 2]",[],match,1.0,,-0.5928588508849024,0.48569332533406706,-0.37638133909465477,2nd,3rd,2nd,-0.30750016118454304,0.2593300404473277,-0.36817657266836473
perc,resp,820,1,2.2.3left.bmp,2.2.3right.bmp,,ACC031,"[0, 0, 2]","[0, 0, 2]",[],match,1.0,,-0.7764709572742879,-0.6212025644029034,-0.11162492243090466,1st,2nd,2nd,-1.2957325138793958,-0.45857467125127555,-0.36817657266836473
perc,resp,911,1,2.2.2left.bmp,1.2.2right.bmp,,ACC031,"[0, 0, 0]","[-2, 0, 0]",[],non-match,0.7113248654051871,4,0.906233674820862,1.046521051095489,-0.24814598836390217,4th,4th,2nd,1.2192520366470139,1.3553928197092542,-0.36817657266836473
perc,resp,617,1,1.2.3left.bmp,1.2.3right.bmp,,ACC031,"[-2, 0, 2]","[-2, 0, 2]",[],match,1.0,,-0.23470854416498824,-0.8294642139801351,-0.7085120081833105,2nd,1st,2nd,-0.30750016118454304,-1.1561481889053058,-0.36817657266836473
perc,resp,793,1,3.1.3left.bmp,3.3.1right.bmp,,ACC031,"[2, -2, 2]","[2, 2, -2]",[],non-match,0.18350341907227385,1,0.6506972114466766,0.8545563754718961,-0.8871488933791204,4th,4th,1st,1.2192520366470139,1.3553928197092542,-1.3272062249438341
perc,resp,697,1,3.2.1left.bmp,2.3.2right.bmp,,ACC031,"[2, 0, -2]","[0, 2, 0]",[],non-match,0.5,3,0.21422591762707205,0.21850169070745068,-0.7763372744061526,3rd,3rd,1st,0.3839806384169253,0.2593300404473277,-1.3272062249438341
perc,resp,704,1,1.3.2left.bmp,1.3.2right.bmp,,ACC031,"[-2, 2, 0]","[-2, 2, 0]",[],match,1.0,,1.4090110978663264,-0.3400427998743313,-0.8379024833007606,4th,2nd,1st,1.2192520366470139,-0.45857467125127555,-1.3272062249438341
perc,resp,741,1,1.3.1left.bmp,1.3.1right.bmp,,ACC031,"[-2, 2, -2]","[-2, 2, -2]",[],match,1.0,,1.4445649961242526,0.250408596002598,-0.7927076580936262,4th,3rd,1st,1.2192520366470139,0.2593300404473277,-1.3272062249438341
perc,resp,945,0,1.2.2left.bmp,1.2.2right.bmp,,ACC031,"[-2, 0, 0]","[-2, 0, 0]",[],match,1.0,,-0.30481379225929844,0.18346990927150603,-0.7062114837168783,2nd,3rd,2nd,-0.30750016118454304,0.2593300404473277,-0.36817657266836473
perc,resp,932,1,3.2.3left.bmp,3.2.3right.bmp,,ACC031,"[2, 0, 2]","[2, 0, 2]",[],match,1.0,,0.5222407846600158,1.3746132689286752,-0.8256436809161001,3rd,4th,1st,0.3839806384169253,1.3553928197092542,-1.3272062249438341
perc,resp,861,0,1.1.2left.bmp,2.3.2right.bmp,,ACC031,"[-2, -2, 0]","[0, 2, 0]",[],non-match,0.3545027756320971,2,0.2976216682951301,-1.0918017665133075,-0.5814784476548941,3rd,1st,2nd,0.3839806384169253,-1.1561481889053058,-0.36817657266836473
perc,resp,778,1,1.2.1left.bmp,1.3.3right.bmp,,ACC031,"[-2, 0, -2]","[-2, 2, 2]",[],non-match,0.3545027756320971,2,0.1250722166634442,0.19948684081900458,-0.7125859044099854,3rd,3rd,2nd,0.3839806384169253,0.2593300404473277,-0.36817657266836473
perc,resp,744,1,2.3.1left.bmp,2.3.1right.bmp,,ACC031,"[0, 2, -2]","[0, 2, -2]",[],match,1.0,,-0.38739627950880035,-0.7561269661929109,-1.1239459252824555,2nd,1st,1st,-0.30750016118454304,-1.1561481889053058,-1.3272062249438341
perc,resp,739,1,3.3.2left.bmp,1.3.2right.bmp,,ACC031,"[2, 2, 0]","[-2, 2, 0]",[],non-match,0.42264973081037416,2,-0.6677579832966694,-0.3829623998220747,-1.0394025587013658,1st,2nd,1st,-1.2957325138793958,-0.45857467125127555,-1.3272062249438341
perc,resp,745,1,1.1.1left.bmp,1.1.1right.bmp,,ACC031,"[-2, -2, -2]","[-2, -2, -2]",[],match,1.0,,-0.2990764317364046,-1.0421816439364593,-0.8076730828957037,2nd,1st,1st,-0.30750016118454304,-1.1561481889053058,-1.3272062249438341
perc,resp,682,0,2.3.2left.bmp,2.3.3right.bmp,,ACC031,"[0, 2, 0]","[0, 2, 2]",[],non-match,0.7113248654051871,4,0.0028425822365830875,-1.0140072645365918,-0.8192933507082248,2nd,1st,1st,-0.30750016118454304,-1.1561481889053058,-1.3272062249438341
perc,resp,766,1,3.3.3left.bmp,1.3.1right.bmp,,ACC031,"[2, 2, 2]","[-2, 2, -2]",[],non-match,0.18350341907227385,1,0.5505139813186977,-0.9850860595160241,-0.7218144396635376,3rd,1st,1st,0.3839806384169253,-1.1561481889053058,-1.3272062249438341
perc,resp,644,1,2.2.1left.bmp,2.2.1right.bmp,,ACC031,"[0, 0, -2]","[0, 0, -2]",[],match,1.0,,0.3469044553871363,-1.6167890681177137,-0.70553779755359,3rd,1st,2nd,0.3839806384169253,-1.1561481889053058,-0.36817657266836473
perc,resp,981,1,2.1.1left.bmp,2.1.1right.bmp,,ACC031,"[0, -2, -2]","[0, -2, -2]",[],match,1.0,,-0.5425903387213733,-0.9019466001310086,-0.36592033195996104,2nd,1st,2nd,-0.30750016118454304,-1.1561481889053058,-0.36817657266836473
perc,resp,606,1,3.2.2left.bmp,3.2.2right.bmp,,ACC031,"[2, 0, 0]","[2, 0, 0]",[],match,1.0,,-0.0036111399928694357,1.3601687032448433,-0.5097797746178636,2nd,4th,2nd,-0.30750016118454304,1.3553928197092542,-0.36817657266836473
perc,resp,582,1,1.3.3left.bmp,1.3.3right.bmp,,ACC031,"[-2, 2, 2]","[-2, 2, 2]",[],match,1.0,,1.0090444159237986,0.751437664633195,-0.7563691688649289,4th,4th,1st,1.2192520366470139,1.3553928197092542,-1.3272062249438341
perc,resp,687,1,2.1.3left.bmp,2.1.3right.bmp,,ACC031,"[0, -2, 2]","[0, -2, 2]",[],match,1.0,,0.37684085563947467,-1.1211777633748705,-1.0887104647610706,3rd,1st,1st,0.3839806384169253,-1.1561481889053058,-1.3272062249438341
perc,resp,661,1,2.1.2left.bmp,3.2.1right.bmp,,ACC031,"[0, -2, 0]","[2, 0, -2]",[],non-match,0.5,3,0.155783204010673,-0.6709495372694635,-0.9541631177512209,3rd,2nd,1st,0.3839806384169253,-0.45857467125127555,-1.3272062249438341
perc,resp,771,0,1.2.2left.bmp,1.3.3right.bmp,,ACC031,"[-2, 0, 0]","[-2, 2, 2]",[],non-match,0.5917517095361369,3,-0.8141166582476426,-0.4278710773837804,-0.665747984564597,1st,2nd,2nd,-1.2957325138793958,-0.45857467125127555,-0.36817657266836473
perc,resp,726,1,2.3.1left.bmp,2.3.1right.bmp,,ACC031,"[0, 2, -2]","[0, 2, -2]",[],match,1.0,,-1.5357258026770095,-0.1638977974266526,-0.7451314318164817,1st,2nd,1st,-1.2957325138793958,-0.45857467125127555,-1.3272062249438341
perc,resp,840,1,1.1.2left.bmp,1.1.2right.bmp,,ACC031,"[-2, -2, 0]","[-2, -2, 0]",[],match,1.0,,-0.5224141076078369,0.8392092259375397,-0.9198184111869037,2nd,4th,1st,-0.30750016118454304,1.3553928197092542,-1.3272062249438341
perc,resp,916,0,1.2.1left.bmp,1.2.1right.bmp,,ACC031,"[-2, 0, -2]","[-2, 0, -2]",[],match,1.0,,-0.6270490910080716,-0.13434541083270843,-0.6032875944040685,1st,2nd,2nd,-1.2957325138793958,-0.45857467125127555,-0.36817657266836473
perc,resp,733,1,3.3.2left.bmp,3.3.2right.bmp,,ACC031,"[2, 2, 0]","[2, 2, 0]",[],match,1.0,,1.3718149620028928,0.5504393262237206,-0.6419982454214487,4th,3rd,2nd,1.2192520366470139,0.2593300404473277,-0.36817657266836473
perc,resp,678,1,1.2.3left.bmp,1.2.3right.bmp,,ACC031,"[-2, 0, 2]","[-2, 0, 2]",[],match,1.0,,-0.0793933948812578,1.585939225278272,-0.7464859698433155,2nd,4th,1st,-0.30750016118454304,1.3553928197092542,-1.3272062249438341
perc,resp,744,1,2.1.1left.bmp,2.1.1right.bmp,,ACC031,"[0, -2, -2]","[0, -2, -2]",[],match,1.0,,-1.0950086389575242,-0.5103420817379225,-0.8886077227882201,1st,2nd,1st,-1.2957325138793958,-0.45857467125127555,-1.3272062249438341
perc,resp,861,1,2.1.2left.bmp,2.1.2right.bmp,,ACC031,"[0, -2, 0]","[0, -2, 0]",[],match,1.0,,-0.5544040494245466,-0.24077107943843873,-1.021672789301247,2nd,2nd,1st,-0.30750016118454304,-0.45857467125127555,-1.3272062249438341
perc,resp,695,1,2.2.2left.bmp,1.2.2right.bmp,,ACC031,"[0, 0, 0]","[-2, 0, 0]",[],non-match,0.7113248654051871,4,0.06716176290443239,0.3958980276048068,-1.2332130773704464,3rd,3rd,1st,0.3839806384169253,0.2593300404473277,-1.3272062249438341
perc,resp,672,0,2.2.1left.bmp,3.2.3right.bmp,,ACC031,"[0, 0, -2]","[2, 0, 2]",[],non-match,0.3545027756320971,2,-2.283687977389538,-1.2597874590922111,-1.2710811253479848,1st,1st,1st,-1.2957325138793958,-1.1561481889053058,-1.3272062249438341
perc,resp,981,1,3.1.1left.bmp,1.1.1right.bmp,,ACC031,"[2, -2, -2]","[-2, -2, -2]",[],non-match,0.42264973081037416,2,0.5291963193811927,0.4073232073234363,-1.1473542581008862,3rd,3rd,1st,0.3839806384169253,0.2593300404473277,-1.3272062249438341
perc,resp,666,1,2.3.3left.bmp,2.3.3right.bmp,,ACC031,"[0, 2, 2]","[0, 2, 2]",[],match,1.0,,0.17257038720582504,0.01966859418020306,-1.4784284214971148,3rd,3rd,1st,0.3839806384169253,0.2593300404473277,-1.3272062249438341
perc,resp,678,1,3.3.1left.bmp,1.2.3right.bmp,,ACC031,"[2, 2, -2]","[-2, 0, 2]",[],non-match,0.1339745962155613,1,1.0409825444414669,-0.10728896976129243,-2.069614853265396,4th,3rd,1st,1.2192520366470139,0.2593300404473277,-1.3272062249438341
perc,resp,675,1,1.3.3left.bmp,2.2.2right.bmp,,ACC031,"[-2, 2, 2]","[0, 0, 0]",[],non-match,0.5,3,1.325066986773785,0.37457796377855523,-2.061588575441321,4th,3rd,1st,1.2192520366470139,0.2593300404473277,-1.3272062249438341
perc,resp,651,0,1.3.1left.bmp,1.1.2right.bmp,,ACC031,"[-2, 2, -2]","[-2, -2, 0]",[],non-match,0.3545027756320971,2,1.4551056185816789,0.20356679033116867,-2.3092165884944653,4th,3rd,1st,1.2192520366470139,0.2593300404473277,-1.3272062249438341
perc,resp,635,1,3.1.3left.bmp,1.2.2right.bmp,,ACC031,"[2, -2, 2]","[-2, 0, 0]",[],non-match,0.29289321881345254,1,1.9940717327504427,2.6714645079088095,-2.3287170757435494,4th,4th,1st,1.2192520366470139,1.3553928197092542,-1.3272062249438341
perc,resp,659,0,1.1.1left.bmp,1.1.1right.bmp,,ACC031,"[-2, -2, -2]","[-2, -2, -2]",[],match,1.0,,1.5683487023409943,-0.15380077951629664,-2.3010024190409704,4th,2nd,1st,1.2192520366470139,-0.45857467125127555,-1.3272062249438341
perc,resp,696,1,3.2.3left.bmp,1.3.2right.bmp,,ACC031,"[2, 0, 2]","[-2, 2, 0]",[],non-match,0.29289321881345254,1,-0.22788594166591356,0.7223150237042721,-2.2854923713978095,2nd,4th,1st,-0.30750016118454304,1.3553928197092542,-1.3272062249438341
perc,resp,1115,1,3.3.3left.bmp,2.1.3right.bmp,,ACC031,"[2, 2, 2]","[0, -2, 2]",[],non-match,0.3545027756320971,2,1.2219161363375928,-0.5645133707595645,-2.0469190754181024,4th,2nd,1st,1.2192520366470139,-0.45857467125127555,-1.3272062249438341
perc,resp,692,1,1.1.3left.bmp,3.3.2right.bmp,,ACC031,"[-2, -2, 2]","[2, 2, 0]",[],non-match,0.1339745962155613,1,1.485857804104098,0.626105388574133,-2.0837152553101532,4th,3rd,1st,1.2192520366470139,0.2593300404473277,-1.3272062249438341
perc,resp,696,0,3.2.1left.bmp,3.3.1right.bmp,,ACC031,"[2, 0, -2]","[2, 2, -2]",[],non-match,0.7113248654051871,4,-0.21679910865906357,-0.33115915489127595,-1.7632895627685714,2nd,2nd,1st,-0.30750016118454304,-0.45857467125127555,-1.3272062249438341
perc,resp,653,0,2.3.2left.bmp,2.3.2right.bmp,,ACC031,"[0, 2, 0]","[0, 2, 0]",[],match,1.0,,-1.122055515808526,-0.19940302647699415,-1.909319074023932,1st,2nd,1st,-1.2957325138793958,-0.45857467125127555,-1.3272062249438341
perc,resp,647,1,1.3.2left.bmp,1.3.2right.bmp,,ACC031,"[-2, 2, 0]","[-2, 2, 0]",[],match,1.0,,0.15202356291393584,-0.6874914524908671,-2.0176947083920505,3rd,2nd,1st,0.3839806384169253,-0.45857467125127555,-1.3272062249438341
perc,resp,662,0,3.1.2left.bmp,3.1.2right.bmp,,ACC031,"[2, -2, 0]","[2, -2, 0]",[],match,1.0,,-1.1656494142011071,0.11881654157369027,-1.9108227882786386,1st,3rd,1st,-1.2957325138793958,0.2593300404473277,-1.3272062249438341
perc,resp,818,1,3.2.2left.bmp,1.3.1right.bmp,,ACC031,"[2, 0, 0]","[-2, 2, -2]",[],non-match,0.29289321881345254,1,-1.6655249458723504,-0.9953499970515073,-1.9368707323012624,1st,1st,1st,-1.2957325138793958,-1.1561481889053058,-1.3272062249438341
perc,resp,705,1,2.1.3left.bmp,2.1.3right.bmp,,ACC031,"[0, -2, 2]","[0, -2, 2]",[],match,1.0,,-0.3107399139969948,0.6432246000593145,-1.6779546044063711,2nd,4th,1st,-0.30750016118454304,1.3553928197092542,-1.3272062249438341
perc,resp,760,1,2.2.3left.bmp,2.2.3right.bmp,,ACC031,"[0, 0, 2]","[0, 0, 2]",[],match,1.0,,-1.2042049216578976,-0.8801976458060863,-1.7653568114979374,1st,1st,1st,-1.2957325138793958,-1.1561481889053058,-1.3272062249438341
perc,resp,716,1,3.2.2left.bmp,3.2.2right.bmp,,ACC031,"[2, 0, 0]","[2, 0, 0]",[],match,1.0,,0.3043586479948014,0.2575895163157308,-1.6779749071498464,3rd,3rd,1st,0.3839806384169253,0.2593300404473277,-1.3272062249438341
perc,resp,672,1,2.2.1left.bmp,2.2.1right.bmp,,ACC031,"[0, 0, -2]","[0, 0, -2]",[],match,1.0,,1.5983679883006414,0.6183624961850487,-1.7680669648030092,4th,3rd,1st,1.2192520366470139,0.2593300404473277,-1.3272062249438341
perc,resp,576,1,3.1.1left.bmp,3.1.1right.bmp,,ACC031,"[2, -2, -2]","[2, -2, -2]",[],match,1.0,,0.6650778990516287,0.24079507145388632,-1.7460417459833921,4th,3rd,1st,1.2192520366470139,0.2593300404473277,-1.3272062249438341
perc,resp,753,1,1.1.3left.bmp,1.3.1right.bmp,,ACC031,"[-2, -2, 2]","[-2, 2, -2]",[],non-match,0.18350341907227385,1,-0.15503486149146922,-0.3661087027445682,-1.989133367990334,2nd,2nd,1st,-0.30750016118454304,-0.45857467125127555,-1.3272062249438341
perc,resp,516,1,3.1.3left.bmp,3.1.3right.bmp,,ACC031,"[2, -2, 2]","[2, -2, 2]",[],match,1.0,,-1.0577105394556012,0.7060488553982587,-1.389394479549808,1st,4th,1st,-1.2957325138793958,1.3553928197092542,-1.3272062249438341
perc,resp,582,0,1.1.1left.bmp,2.1.2right.bmp,,ACC031,"[-2, -2, -2]","[0, -2, 0]",[],non-match,0.5917517095361369,3,-0.8453530737778431,-0.4272515044478784,-1.2521046918857754,1st,2nd,1st,-1.2957325138793958,-0.45857467125127555,-1.3272062249438341
perc,resp,556,1,1.3.2left.bmp,1.3.2right.bmp,,ACC031,"[-2, 2, 0]","[-2, 2, 0]",[],match,1.0,,0.004766571263000082,0.01878637705012525,-1.4911926348136189,2nd,3rd,1st,-0.30750016118454304,0.2593300404473277,-1.3272062249438341
perc,resp,769,0,2.1.3left.bmp,2.2.1right.bmp,,ACC031,"[0, -2, 2]","[0, 0, -2]",[],non-match,0.3545027756320971,2,0.5492548909793369,-0.5558016633605112,-1.463934816259143,3rd,2nd,1st,0.3839806384169253,-0.45857467125127555,-1.3272062249438341
perc,resp,776,1,2.3.2left.bmp,3.1.2right.bmp,,ACC031,"[0, 2, 0]","[2, -2, 0]",[],non-match,0.3545027756320971,2,0.6306271240293896,0.5415841671266957,-1.6824355337309225,3rd,3rd,1st,0.3839806384169253,0.2593300404473277,-1.3272062249438341
perc,resp,730,1,1.2.3left.bmp,3.3.1right.bmp,,ACC031,"[-2, 0, 2]","[2, 2, -2]",[],non-match,0.1339745962155613,1,0.34595737477277283,-1.6012107533574391,-2.011732476512603,3rd,1st,1st,0.3839806384169253,-1.1561481889053058,-1.3272062249438341
perc,resp,875,1,2.2.2left.bmp,2.2.2right.bmp,,ACC031,"[0, 0, 0]","[0, 0, 0]",[],match,1.0,,-1.4875984688493495,0.09989904303625867,-1.7768674535252933,1st,3rd,1st,-1.2957325138793958,0.2593300404473277,-1.3272062249438341
perc,resp,632,1,2.3.3left.bmp,2.2.3right.bmp,,ACC031,"[0, 2, 2]","[0, 0, 2]",[],non-match,0.7113248654051871,4,0.9930505827566111,2.488262869324314,-1.7052794935498345,4th,4th,1st,1.2192520366470139,1.3553928197092542,-1.3272062249438341
perc,resp,738,1,3.3.2left.bmp,3.2.1right.bmp,,ACC031,"[2, 2, 0]","[2, 0, -2]",[],non-match,0.5917517095361369,3,-1.0536771699456082,-0.852881460242488,-1.574966967083664,1st,1st,1st,-1.2957325138793958,-1.1561481889053058,-1.3272062249438341
perc,resp,713,1,3.2.3left.bmp,2.2.1right.bmp,,ACC031,"[2, 0, 2]","[0, 0, -2]",[],non-match,0.3545027756320971,2,2.0770946489318054,-0.16249595369923478,-1.2155296985832775,4th,2nd,1st,1.2192520366470139,-0.45857467125127555,-1.3272062249438341
perc,resp,657,1,1.3.1left.bmp,1.3.1right.bmp,,ACC031,"[-2, 2, -2]","[-2, 2, -2]",[],match,1.0,,0.8878549333534412,-0.6923983675232491,-1.1999461619371208,4th,2nd,1st,1.2192520366470139,-0.45857467125127555,-1.3272062249438341
perc,resp,691,1,2.1.1left.bmp,1.2.1right.bmp,,ACC031,"[0, -2, -2]","[-2, 0, -2]",[],non-match,0.5917517095361369,3,-1.0823375850781911,-0.6658904910921241,-1.4667582621872186,1st,2nd,1st,-1.2957325138793958,-0.45857467125127555,-1.3272062249438341
perc,resp,745,1,3.2.1left.bmp,1.2.2right.bmp,,ACC031,"[2, 0, -2]","[-2, 0, 0]",[],non-match,0.3545027756320971,2,0.9351915333079417,0.376245793729566,-1.534104079930915,4th,3rd,1st,1.2192520366470139,0.2593300404473277,-1.3272062249438341
perc,resp,692,1,2.3.1left.bmp,1.2.3right.bmp,,ACC031,"[0, 2, -2]","[-2, 0, 2]",[],non-match,0.29289321881345254,1,-1.1164994783478608,1.7162702730311903,-1.6334045709083593,1st,4th,1st,-1.2957325138793958,1.3553928197092542,-1.3272062249438341
perc,resp,596,1,3.3.3left.bmp,3.1.3right.bmp,,ACC031,"[2, 2, 2]","[2, -2, 2]",[],non-match,0.42264973081037416,2,2.285242375809698,1.060890204868478,-1.363164785970603,4th,4th,1st,1.2192520366470139,1.3553928197092542,-1.3272062249438341
perc,resp,661,0,3.1.2left.bmp,3.1.2right.bmp,,ACC031,"[2, -2, 0]","[2, -2, 0]",[],match,1.0,,0.17829213403245522,1.3417224308551965,-1.5400928857079246,3rd,4th,1st,0.3839806384169253,1.3553928197092542,-1.3272062249438341
perc,resp,820,0,2.1.2left.bmp,3.2.2right.bmp,,ACC031,"[0, -2, 0]","[2, 0, 0]",[],non-match,0.5917517095361369,3,-0.8429885831557422,1.5525229415444688,-1.4869403250792284,1st,4th,1st,-1.2957325138793958,1.3553928197092542,-1.3272062249438341
perc,resp,676,1,3.3.1left.bmp,1.1.3right.bmp,,ACC031,"[2, 2, -2]","[-2, -2, 2]",[],non-match,0.0,1,1.0234944601156843,1.7129017432869031,-1.2080662830116071,4th,4th,1st,1.2192520366470139,1.3553928197092542,-1.3272062249438341
perc,resp,923,0,1.2.1left.bmp,3.3.3right.bmp,,ACC031,"[-2, 0, -2]","[2, 2, 2]",[],non-match,0.1339745962155613,1,0.9494597203601205,-0.6686282226134672,-1.0778438415701466,4th,2nd,1st,1.2192520366470139,-0.45857467125127555,-1.3272062249438341
perc,resp,770,1,2.2.3left.bmp,1.1.1right.bmp,,ACC031,"[0, 0, 2]","[-2, -2, -2]",[],non-match,0.29289321881345254,1,0.22455387079536693,-0.12022574938518997,-1.2233907108226236,3rd,2nd,1st,0.3839806384169253,-0.45857467125127555,-1.3272062249438341
perc,resp,676,0,1.2.2left.bmp,2.3.1right.bmp,,ACC031,"[-2, 0, 0]","[0, 2, -2]",[],non-match,0.5,3,0.592888392997128,0.513178765028635,-1.2188170490457988,3rd,3rd,1st,0.3839806384169253,0.2593300404473277,-1.3272062249438341
perc,resp,681,1,1.3.3left.bmp,1.3.3right.bmp,,ACC031,"[-2, 2, 2]","[-2, 2, 2]",[],match,1.0,,-0.07569708833452617,0.0813702421790108,-1.0431272112195884,2nd,3rd,1st,-0.30750016118454304,0.2593300404473277,-1.3272062249438341
perc,resp,808,1,1.1.2left.bmp,1.1.2right.bmp,,ACC031,"[-2, -2, 0]","[-2, -2, 0]",[],match,1.0,,-0.028167440146786335,-0.6604651879791861,-1.0881755684011485,2nd,2nd,1st,-0.30750016118454304,-0.45857467125127555,-1.3272062249438341
perc,resp,845,1,2.3.3left.bmp,2.3.3right.bmp,,ACC031,"[0, 2, 2]","[0, 2, 2]",[],match,1.0,,0.663024169929948,0.5024418467799234,-0.8801748155026867,4th,3rd,1st,1.2192520366470139,0.2593300404473277,-1.3272062249438341
perc,resp,700,0,3.3.2left.bmp,3.2.2right.bmp,,ACC031,"[2, 2, 0]","[2, 0, 0]",[],non-match,0.7113248654051871,4,-2.219372542760433,0.1130641619053177,-0.7397996669788185,1st,3rd,1st,-1.2957325138793958,0.2593300404473277,-1.3272062249438341
perc,resp,735,0,1.3.2left.bmp,1.2.1right.bmp,,ACC031,"[-2, 2, 0]","[-2, 0, -2]",[],non-match,0.5917517095361369,3,-2.0794295595045544,2.237934328775565,-0.7440505168920136,1st,4th,1st,-1.2957325138793958,1.3553928197092542,-1.3272062249438341
perc,resp,781,1,2.2.1left.bmp,2.2.1right.bmp,,ACC031,"[0, 0, -2]","[0, 0, -2]",[],match,1.0,,-1.5448499960065087,-0.4557655126724905,-0.7670238909874169,1st,2nd,1st,-1.2957325138793958,-0.45857467125127555,-1.3272062249438341
perc,resp,806,1,2.1.2left.bmp,2.1.2right.bmp,,ACC031,"[0, -2, 0]","[0, -2, 0]",[],match,1.0,,-2.1851650450200664,-0.4486253356297495,-0.6449962409303961,1st,2nd,2nd,-1.2957325138793958,-0.45857467125127555,-0.36817657266836473
perc,resp,633,1,1.1.2left.bmp,2.1.1right.bmp,,ACC031,"[-2, -2, 0]","[0, -2, -2]",[],non-match,0.5917517095361369,3,-0.22520747597153998,1.5167342887405764,-0.2434968151114532,2nd,4th,2nd,-0.30750016118454304,1.3553928197092542,-0.36817657266836473
perc,resp,809,1,2.2.3left.bmp,2.2.3right.bmp,,ACC031,"[0, 0, 2]","[0, 0, 2]",[],match,1.0,,1.037943888570711,0.19362142192035434,-0.13017338705772102,4th,3rd,2nd,1.2192520366470139,0.2593300404473277,-0.36817657266836473
perc,resp,686,1,3.2.1left.bmp,2.3.2right.bmp,,ACC031,"[2, 0, -2]","[0, 2, 0]",[],non-match,0.5,3,0.5928635097806028,-0.20414389179484727,0.029248480047695376,3rd,2nd,3rd,0.3839806384169253,-0.45857467125127555,0.4886427461008023
perc,resp,752,0,2.3.1left.bmp,3.3.3right.bmp,,ACC031,"[0, 2, -2]","[2, 2, 2]",[],non-match,0.3545027756320971,2,0.6423314601869323,1.1767743278579759,0.41876344561988915,3rd,4th,3rd,0.3839806384169253,1.3553928197092542,0.4886427461008023
perc,resp,879,1,3.1.2left.bmp,3.1.2right.bmp,,ACC031,"[2, -2, 0]","[2, -2, 0]",[],match,1.0,,-0.5883716666558314,-0.06078081657964976,0.49511459611459785,2nd,3rd,3rd,-0.30750016118454304,0.2593300404473277,0.4886427461008023
perc,resp,744,1,1.1.1left.bmp,1.1.1right.bmp,,ACC031,"[-2, -2, -2]","[-2, -2, -2]",[],match,1.0,,-0.9543729800412606,-0.25554957283800994,0.4024173623860729,1st,2nd,3rd,-1.2957325138793958,-0.45857467125127555,0.4886427461008023
perc,resp,934,1,2.2.2left.bmp,2.2.2right.bmp,,ACC031,"[0, 0, 0]","[0, 0, 0]",[],match,1.0,,1.9073783228339383,0.6862421804459631,0.6369906982804467,4th,4th,3rd,1.2192520366470139,1.3553928197092542,0.4886427461008023
perc,resp,619,1,1.3.3left.bmp,1.3.3right.bmp,,ACC031,"[-2, 2, 2]","[-2, 2, 2]",[],match,1.0,,1.0452237291025877,1.310778777073989,0.6775262634930818,4th,4th,3rd,1.2192520366470139,1.3553928197092542,0.4886427461008023
perc,resp,925,1,3.3.3left.bmp,3.3.3right.bmp,,ACC031,"[2, 2, 2]","[2, 2, 2]",[],match,1.0,,0.6955408267424357,-1.5323890185816982,0.838846574222323,4th,1st,3rd,1.2192520366470139,-1.1561481889053058,0.4886427461008023
perc,resp,612,1,3.3.1left.bmp,1.2.3right.bmp,,ACC031,"[2, 2, -2]","[-2, 0, 2]",[],non-match,0.1339745962155613,1,0.4113667153669433,1.6758552292464726,0.8221600373485081,3rd,4th,3rd,0.3839806384169253,1.3553928197092542,0.4886427461008023
perc,resp,696,1,3.1.3left.bmp,3.1.3right.bmp,,ACC031,"[2, -2, 2]","[2, -2, 2]",[],match,1.0,,-1.0346434077256905,-0.3434046062417909,0.8120101491202755,1st,2nd,3rd,-1.2957325138793958,-0.45857467125127555,0.4886427461008023
perc,resp,581,1,1.3.1left.bmp,2.3.2right.bmp,,ACC031,"[-2, 2, -2]","[0, 2, 0]",[],non-match,0.5917517095361369,3,0.25378628794668306,0.49815060237262426,0.9510708968174865,3rd,3rd,4th,0.3839806384169253,0.2593300404473277,1.2067400515113966
perc,resp,525,0,3.1.1left.bmp,2.1.2right.bmp,,ACC031,"[2, -2, -2]","[0, -2, 0]",[],non-match,0.5917517095361369,3,-0.24193488951106681,-0.13655991816033927,0.9164908183447317,2nd,2nd,4th,-0.30750016118454304,-0.45857467125127555,1.2067400515113966
perc,resp,673,1,1.2.3left.bmp,1.2.3right.bmp,,ACC031,"[-2, 0, 2]","[-2, 0, 2]",[],match,1.0,,1.0931337914011088,-0.38144079348755194,0.7060190792646475,4th,2nd,3rd,1.2192520366470139,-0.45857467125127555,0.4886427461008023
perc,resp,656,1,1.2.2left.bmp,1.1.3right.bmp,,ACC031,"[-2, 0, 0]","[-2, -2, 2]",[],non-match,0.5917517095361369,3,2.172500626033767,1.9112710840850635,0.5276330713047324,4th,4th,3rd,1.2192520366470139,1.3553928197092542,0.4886427461008023
perc,resp,733,0,2.1.3left.bmp,2.1.3right.bmp,,ACC031,"[0, -2, 2]","[0, -2, 2]",[],match,1.0,,-0.06628855802976301,0.5039495738628675,0.6747249651162108,2nd,3rd,3rd,-0.30750016118454304,0.2593300404473277,0.4886427461008023
perc,resp,737,0,2.1.1left.bmp,2.1.1right.bmp,,ACC031,"[0, -2, -2]","[0, -2, -2]",[],match,1.0,,-1.462498222004278,-0.7061299800374712,0.8954349874046882,1st,2nd,4th,-1.2957325138793958,-0.45857467125127555,1.2067400515113966
perc,resp,613,1,3.2.2left.bmp,3.2.2right.bmp,,ACC031,"[2, 0, 0]","[2, 0, 0]",[],match,1.0,,-0.48193935104666985,-1.2417084425609255,0.7626949315498139,2nd,1st,3rd,-0.30750016118454304,-1.1561481889053058,0.4886427461008023
perc,resp,750,0,2.3.2left.bmp,2.3.2right.bmp,,ACC031,"[0, 2, 0]","[0, 2, 0]",[],match,1.0,,-0.3319015944510368,0.9476881194630403,0.7880138833321422,2nd,4th,3rd,-0.30750016118454304,1.3553928197092542,0.4886427461008023
perc,resp,674,0,1.2.1left.bmp,2.1.3right.bmp,,ACC031,"[-2, 0, -2]","[0, -2, 2]",[],non-match,0.29289321881345254,1,-1.2223204076789556,-0.7941108310193007,0.47597757134740354,1st,1st,3rd,-1.2957325138793958,-1.1561481889053058,0.4886427461008023
perc,resp,781,1,1.1.3left.bmp,1.1.3right.bmp,,ACC031,"[-2, -2, 2]","[-2, -2, 2]",[],match,1.0,,0.9869972816476301,1.3081138821349378,0.4950263536001911,4th,4th,3rd,1.2192520366470139,1.3553928197092542,0.4886427461008023
perc,resp,801,1,3.3.3left.bmp,3.3.3right.bmp,,ACC031,"[2, 2, 2]","[2, 2, 2]",[],match,1.0,,-0.48292060122348096,-0.5197925349100857,0.5539684196262797,2nd,2nd,3rd,-0.30750016118454304,-0.45857467125127555,0.4886427461008023
perc,resp,885,1,1.1.2left.bmp,1.1.2right.bmp,,ACC031,"[-2, -2, 0]","[-2, -2, 0]",[],match,1.0,,-1.5796408667565758,-1.6370624181600875,0.5895148577279392,1st,1st,3rd,-1.2957325138793958,-1.1561481889053058,0.4886427461008023
perc,resp,722,1,2.1.3left.bmp,2.3.3right.bmp,,ACC031,"[0, -2, 2]","[0, 2, 2]",[],non-match,0.42264973081037416,2,-1.710113942873314,-0.6130617739232412,0.6724645138504944,1st,2nd,3rd,-1.2957325138793958,-0.45857467125127555,0.4886427461008023
perc,resp,781,0,2.2.3left.bmp,3.1.3right.bmp,,ACC031,"[0, 0, 2]","[2, -2, 2]",[],non-match,0.5917517095361369,3,-2.205801103969868,-1.8732985197496466,0.600507510505099,1st,1st,3rd,-1.2957325138793958,-1.1561481889053058,0.4886427461008023
perc,resp,885,1,2.2.2left.bmp,2.2.2right.bmp,,ACC031,"[0, 0, 0]","[0, 0, 0]",[],match,1.0,,-0.29609280063080656,-0.7618671081359185,0.7303436549542417,2nd,1st,3rd,-0.30750016118454304,-1.1561481889053058,0.4886427461008023
perc,resp,802,1,3.3.1left.bmp,1.1.2right.bmp,,ACC031,"[2, 2, -2]","[-2, -2, 0]",[],non-match,0.1339745962155613,1,1.1650885304946816,0.6506277063516815,0.9085494037005085,4th,4th,4th,1.2192520366470139,1.3553928197092542,1.2067400515113966
perc,resp,811,1,3.2.1left.bmp,3.2.1right.bmp,,ACC031,"[2, 0, -2]","[2, 0, -2]",[],match,1.0,,-0.5216940142449104,-0.7866631381227125,1.2484895512529255,2nd,1st,4th,-0.30750016118454304,-1.1561481889053058,1.2067400515113966
perc,resp,814,1,2.3.2left.bmp,2.1.1right.bmp,,ACC031,"[0, 2, 0]","[0, -2, -2]",[],non-match,0.3545027756320971,2,1.0900079241479284,0.5606220573591221,1.7562686053516297,4th,3rd,4th,1.2192520366470139,0.2593300404473277,1.2067400515113966
perc,resp,711,1,2.2.1left.bmp,2.2.1right.bmp,,ACC031,"[0, 0, -2]","[0, 0, -2]",[],match,1.0,,-0.9475780270413162,-0.7789854890284953,1.7073606956173384,1st,1st,4th,-1.2957325138793958,-1.1561481889053058,1.2067400515113966
perc,resp,698,0,1.3.1left.bmp,1.2.3right.bmp,,ACC031,"[-2, 2, -2]","[-2, 0, 2]",[],non-match,0.3545027756320971,2,-1.0290161918638414,-1.456051225520109,1.4411721139749023,1st,1st,4th,-1.2957325138793958,-1.1561481889053058,1.2067400515113966
perc,resp,784,1,1.3.2left.bmp,2.1.2right.bmp,,ACC031,"[-2, 2, 0]","[0, -2, 0]",[],non-match,0.3545027756320971,2,0.21261552796836383,1.1876960013564528,1.3329903161637342,3rd,4th,4th,0.3839806384169253,1.3553928197092542,1.2067400515113966
perc,resp,973,0,1.1.3left.bmp,3.2.3right.bmp,,ACC031,"[-2, -2, 2]","[2, 0, 2]",[],non-match,0.3545027756320971,2,0.08699998616365212,-0.5935193945208336,1.1422161048083972,3rd,2nd,4th,0.3839806384169253,-0.45857467125127555,1.2067400515113966
perc,resp,930,1,1.1.1left.bmp,1.1.1right.bmp,,ACC031,"[-2, -2, -2]","[-2, -2, -2]",[],match,1.0,,-0.23222783627901653,-0.34855949002740955,1.1782090401325298,2nd,2nd,4th,-0.30750016118454304,-0.45857467125127555,1.2067400515113966
perc,resp,727,1,3.3.2left.bmp,3.3.2right.bmp,,ACC031,"[2, 2, 0]","[2, 2, 0]",[],match,1.0,,0.5509821567188649,0.4539870990759066,1.3194021034961685,3rd,3rd,4th,0.3839806384169253,0.2593300404473277,1.2067400515113966
perc,resp,663,1,3.1.2left.bmp,1.3.3right.bmp,,ACC031,"[2, -2, 0]","[-2, 2, 2]",[],non-match,0.1339745962155613,1,0.6124656938300586,0.6409248513225554,1.1265011459542418,3rd,3rd,4th,0.3839806384169253,0.2593300404473277,1.2067400515113966
perc,resp,738,1,3.2.2left.bmp,3.3.3right.bmp,,ACC031,"[2, 0, 0]","[2, 2, 2]",[],non-match,0.5917517095361369,3,1.2899389889135944,-0.5489452344447642,1.2509751644490539,4th,2nd,4th,1.2192520366470139,-0.45857467125127555,1.2067400515113966
perc,resp,612,1,3.2.3left.bmp,3.2.3right.bmp,,ACC031,"[2, 0, 2]","[2, 0, 2]",[],match,1.0,,0.28149709533861383,-0.7297806768840935,0.9695434860767502,3rd,2nd,4th,0.3839806384169253,-0.45857467125127555,1.2067400515113966
perc,resp,899,1,1.2.2left.bmp,1.2.2right.bmp,,ACC031,"[-2, 0, 0]","[-2, 0, 0]",[],match,1.0,,-0.810347598772119,-1.4513176188259818,0.9590521999230728,1st,1st,4th,-1.2957325138793958,-1.1561481889053058,1.2067400515113966
perc,resp,604,1,2.1.2left.bmp,2.1.2right.bmp,,ACC031,"[0, -2, 0]","[0, -2, 0]",[],match,1.0,,-1.770687838976377,-1.2066495169654667,0.9606360681464782,1st,1st,4th,-1.2957325138793958,-1.1561481889053058,1.2067400515113966
perc,resp,780,1,2.3.1left.bmp,1.2.3right.bmp,,ACC031,"[0, 2, -2]","[-2, 0, 2]",[],non-match,0.29289321881345254,1,-0.2874319831150249,0.27574821690355106,0.8773631456784636,2nd,3rd,4th,-0.30750016118454304,0.2593300404473277,1.2067400515113966
perc,resp,766,0,1.3.3left.bmp,3.3.2right.bmp,,ACC031,"[-2, 2, 2]","[2, 2, 0]",[],non-match,0.3545027756320971,2,0.0993197728563455,0.3768031262823271,0.9965028378116072,3rd,3rd,4th,0.3839806384169253,0.2593300404473277,1.2067400515113966
perc,resp,773,0,3.1.1left.bmp,3.2.1right.bmp,,ACC031,"[2, -2, -2]","[2, 0, -2]",[],non-match,0.7113248654051871,4,0.6286865651772978,-0.4493678559302006,0.9004216549498258,3rd,2nd,4th,0.3839806384169253,-0.45857467125127555,1.2067400515113966
perc,resp,769,1,1.2.1left.bmp,1.2.1right.bmp,,ACC031,"[-2, 0, -2]","[-2, 0, -2]",[],match,1.0,,-0.48307080404862496,-0.2450906721187921,0.8160940725429716,2nd,2nd,3rd,-0.30750016118454304,-0.45857467125127555,0.4886427461008023
perc,resp,684,1,3.1.3left.bmp,2.3.1right.bmp,,ACC031,"[2, -2, 2]","[0, 2, -2]",[],non-match,0.1339745962155613,1,-0.12689397927439403,1.0115525716284994,1.0165578056161484,2nd,4th,4th,-0.30750016118454304,1.3553928197092542,1.2067400515113966
perc,resp,813,1,2.1.1left.bmp,2.1.1right.bmp,,ACC031,"[0, -2, -2]","[0, -2, -2]",[],match,1.0,,-0.7620157633867164,-2.0422126044483377,1.1982807839134366,1st,1st,4th,-1.2957325138793958,-1.1561481889053058,1.2067400515113966
perc,resp,729,1,1.2.3left.bmp,1.2.3right.bmp,,ACC031,"[-2, 0, 2]","[-2, 0, 2]",[],match,1.0,,-1.08618733890464,-0.007641172721014847,1.0704425344647521,1st,3rd,4th,-1.2957325138793958,0.2593300404473277,1.2067400515113966
perc,resp,744,1,2.3.3left.bmp,2.3.3right.bmp,,ACC031,"[0, 2, 2]","[0, 2, 2]",[],match,1.0,,-0.4973438224657121,0.805950646674221,0.9756203367838029,2nd,4th,4th,-0.30750016118454304,1.3553928197092542,1.2067400515113966
perc,resp,740,0,1.2.1left.bmp,1.1.3right.bmp,,ACC031,"[-2, 0, -2]","[-2, -2, 2]",[],non-match,0.3545027756320971,2,0.49683021071719236,1.3007150221858295,1.1522472071027956,3rd,4th,4th,0.3839806384169253,1.3553928197092542,1.2067400515113966
perc,resp,797,1,1.2.3left.bmp,1.2.3right.bmp,,ACC031,"[-2, 0, 2]","[-2, 0, 2]",[],match,1.0,,-0.8645717679142016,-1.2252722337640791,1.3525993472628763,1st,1st,4th,-1.2957325138793958,-1.1561481889053058,1.2067400515113966
perc,resp,850,1,2.3.1left.bmp,2.3.1right.bmp,,ACC031,"[0, 2, -2]","[0, 2, -2]",[],match,1.0,,-0.5922737536516669,-0.4263884548394562,1.3565842943634687,2nd,2nd,4th,-0.30750016118454304,-0.45857467125127555,1.2067400515113966
perc,resp,796,1,2.1.3left.bmp,2.1.3right.bmp,,ACC031,"[0, -2, 2]","[0, -2, 2]",[],match,1.0,,0.4524162392791389,-1.331492688708809,1.224134424931302,3rd,1st,4th,0.3839806384169253,-1.1561481889053058,1.2067400515113966
perc,resp,905,1,3.1.1left.bmp,3.1.1right.bmp,,ACC031,"[2, -2, -2]","[2, -2, -2]",[],match,1.0,,0.3374292980546814,0.9056862014751873,1.1750269434808165,3rd,4th,4th,0.3839806384169253,1.3553928197092542,1.2067400515113966
perc,resp,779,1,2.1.1left.bmp,2.1.1right.bmp,,ACC031,"[0, -2, -2]","[0, -2, -2]",[],match,1.0,,-1.2183462782963648,-0.9682636595610572,0.8541080030230103,1st,1st,3rd,-1.2957325138793958,-1.1561481889053058,0.4886427461008023
perc,resp,817,1,1.3.1left.bmp,3.2.3right.bmp,,ACC031,"[-2, 2, -2]","[2, 0, 2]",[],non-match,0.1339745962155613,1,-0.5012840895690444,-0.6248807135136706,0.7361965880198498,2nd,2nd,3rd,-0.30750016118454304,-0.45857467125127555,0.4886427461008023
perc,resp,794,1,2.2.3left.bmp,2.2.3right.bmp,,ACC031,"[0, 0, 2]","[0, 0, 2]",[],match,1.0,,0.37564898608804176,0.24829600091318668,1.0552399811344668,3rd,3rd,4th,0.3839806384169253,0.2593300404473277,1.2067400515113966
perc,resp,719,1,1.3.2left.bmp,2.2.1right.bmp,,ACC031,"[-2, 2, 0]","[0, 0, -2]",[],non-match,0.5,3,1.6039840801918892,2.357151516679538,1.0807058027957184,4th,4th,4th,1.2192520366470139,1.3553928197092542,1.2067400515113966
perc,resp,725,1,3.1.2left.bmp,2.3.1right.bmp,,ACC031,"[2, -2, 0]","[0, 2, -2]",[],non-match,0.29289321881345254,1,-0.46860147709377853,-0.8647205797928965,0.939556276230606,2nd,1st,4th,-0.30750016118454304,-1.1561481889053058,1.2067400515113966
perc,resp,650,1,1.3.3left.bmp,1.3.3right.bmp,,ACC031,"[-2, 2, 2]","[-2, 2, 2]",[],match,1.0,,1.2266035169494045,0.08057782734526465,1.059431390372293,4th,3rd,4th,1.2192520366470139,0.2593300404473277,1.2067400515113966
perc,resp,647,1,3.1.3left.bmp,3.1.3right.bmp,,ACC031,"[2, -2, 2]","[2, -2, 2]",[],match,1.0,,0.6724901349576465,0.5931414976693994,0.8987004192243956,4th,3rd,4th,1.2192520366470139,0.2593300404473277,1.2067400515113966
perc,resp,721,0,3.3.2left.bmp,3.3.2right.bmp,,ACC031,"[2, 2, 0]","[2, 2, 0]",[],match,1.0,,0.31886306552096816,0.3807493159818287,0.871752576537022,3rd,3rd,3rd,0.3839806384169253,0.2593300404473277,0.4886427461008023
perc,resp,768,1,2.2.2left.bmp,3.2.2right.bmp,,ACC031,"[0, 0, 0]","[2, 0, 0]",[],non-match,0.7113248654051871,4,0.6193945818953656,0.11842733275959612,0.8196710267307084,3rd,3rd,3rd,0.3839806384169253,0.2593300404473277,0.4886427461008023
perc,resp,652,0,1.1.3left.bmp,1.1.2right.bmp,,ACC031,"[-2, -2, 2]","[-2, -2, 0]",[],non-match,0.7113248654051871,4,0.47929378785949517,0.919662961676638,0.9722847337375985,3rd,4th,4th,0.3839806384169253,1.3553928197092542,1.2067400515113966
perc,resp,669,1,3.3.1left.bmp,1.3.1right.bmp,,ACC031,"[2, 2, -2]","[-2, 2, -2]",[],non-match,0.42264973081037416,2,1.7209715754241441,1.563272087689047,0.9868465414997236,4th,4th,4th,1.2192520366470139,1.3553928197092542,1.2067400515113966
perc,resp,733,1,3.2.1left.bmp,3.2.1right.bmp,,ACC031,"[2, 0, -2]","[2, 0, -2]",[],match,1.0,,1.4206338331701762,1.7420447116182798,0.9974595884127834,4th,4th,4th,1.2192520366470139,1.3553928197092542,1.2067400515113966
perc,resp,628,1,2.2.1left.bmp,1.2.3right.bmp,,ACC031,"[0, 0, -2]","[-2, 0, 2]",[],non-match,0.3545027756320971,2,-0.5897401703814481,-0.008754540332763681,1.176720204838535,2nd,3rd,4th,-0.30750016118454304,0.2593300404473277,1.2067400515113966
perc,resp,847,1,1.1.1left.bmp,1.1.1right.bmp,,ACC031,"[-2, -2, -2]","[-2, -2, -2]",[],match,1.0,,-0.03172703434641812,-1.752688957918339,1.0172843065206738,2nd,1st,4th,-0.30750016118454304,-1.1561481889053058,1.2067400515113966
perc,resp,720,1,2.3.3left.bmp,1.2.2right.bmp,,ACC031,"[0, 2, 2]","[-2, 0, 0]",[],non-match,0.5,3,-0.5325475839795976,-0.6188146057485346,0.7662852443260211,2nd,2nd,3rd,-0.30750016118454304,-0.45857467125127555,0.4886427461008023
perc,resp,837,1,3.3.3left.bmp,2.2.3right.bmp,,ACC031,"[2, 2, 2]","[0, 0, 2]",[],non-match,0.5917517095361369,3,0.3087887747005925,0.16045516130492887,0.6951129465003837,3rd,3rd,3rd,0.3839806384169253,0.2593300404473277,0.4886427461008023
perc,resp,754,1,1.1.2left.bmp,1.1.2right.bmp,,ACC031,"[-2, -2, 0]","[-2, -2, 0]",[],match,1.0,,0.09832609523559435,-0.3929494059876246,0.8424944810344686,3rd,2nd,3rd,0.3839806384169253,-0.45857467125127555,0.4886427461008023
perc,resp,790,0,3.2.2left.bmp,3.2.2right.bmp,,ACC031,"[2, 0, 0]","[2, 0, 0]",[],match,1.0,,-0.10631137621836753,-0.4593768605129124,0.9367968699310049,2nd,2nd,4th,-0.30750016118454304,-0.45857467125127555,1.2067400515113966
perc,resp,677,1,1.2.2left.bmp,1.2.2right.bmp,,ACC031,"[-2, 0, 0]","[-2, 0, 0]",[],match,1.0,,1.0390609161677076,-0.9527913805135324,0.7546275099349474,4th,1st,3rd,1.2192520366470139,-1.1561481889053058,0.4886427461008023
perc,resp,813,0,2.1.2left.bmp,2.1.2right.bmp,,ACC031,"[0, -2, 0]","[0, -2, 0]",[],match,1.0,,-1.5494483240788393,1.2527959821383468,0.5889998759599222,1st,4th,3rd,-1.2957325138793958,1.3553928197092542,0.4886427461008023
perc,resp,748,1,2.3.2left.bmp,1.1.1right.bmp,,ACC031,"[0, 2, 0]","[-2, -2, -2]",[],non-match,0.29289321881345254,1,0.45245746369864354,-0.8973766697883322,0.7731839390592866,3rd,1st,3rd,0.3839806384169253,-1.1561481889053058,0.4886427461008023
perc,resp,703,1,3.2.3left.bmp,3.2.3right.bmp,,ACC031,"[2, 0, 2]","[2, 0, 2]",[],match,1.0,,0.4699771385974203,-0.08719183313467417,0.6368490483382079,3rd,3rd,3rd,0.3839806384169253,0.2593300404473277,0.4886427461008023
perc,resp,677,1,3.3.3left.bmp,3.3.3right.bmp,,ACC031,"[2, 2, 2]","[2, 2, 2]",[],match,1.0,,1.3491608834927549,0.9682555975825973,0.622936865354716,4th,4th,3rd,1.2192520366470139,1.3553928197092542,0.4886427461008023
perc,resp,652,1,3.1.2left.bmp,1.3.2right.bmp,,ACC031,"[2, -2, 0]","[-2, 2, 0]",[],non-match,0.18350341907227385,1,0.9241262456281116,-0.74060674868225,0.23103792738139237,4th,2nd,3rd,1.2192520366470139,-0.45857467125127555,0.4886427461008023
perc,resp,909,1,3.1.1left.bmp,2.3.2right.bmp,,ACC031,"[2, -2, -2]","[0, 2, 0]",[],non-match,0.29289321881345254,1,0.691941123548884,0.08434335086628703,0.11112202349175136,4th,3rd,3rd,1.2192520366470139,0.2593300404473277,0.4886427461008023
perc,resp,673,1,1.2.3left.bmp,2.2.1right.bmp,,ACC031,"[-2, 0, 2]","[0, 0, -2]",[],non-match,0.3545027756320971,2,-0.004318285362180273,0.22570313501300254,-0.12305363778214974,2nd,3rd,2nd,-0.30750016118454304,0.2593300404473277,-0.36817657266836473
perc,resp,638,1,2.2.3left.bmp,1.1.3right.bmp,,ACC031,"[0, 0, 2]","[-2, -2, 2]",[],non-match,0.5917517095361369,3,0.13534572712483262,0.7528423785741122,-0.3835956929744931,3rd,4th,2nd,0.3839806384169253,1.3553928197092542,-0.36817657266836473
perc,resp,643,1,2.1.3left.bmp,2.1.3right.bmp,,ACC031,"[0, -2, 2]","[0, -2, 2]",[],match,1.0,,0.6895487924576955,1.051375722344486,-0.48527871790557486,4th,4th,2nd,1.2192520366470139,1.3553928197092542,-0.36817657266836473
perc,resp,740,1,2.2.2left.bmp,3.3.2right.bmp,,ACC031,"[0, 0, 0]","[2, 2, 0]",[],non-match,0.5917517095361369,3,-0.5340245801385817,-0.03646432849618921,-0.41892317429751075,2nd,3rd,2nd,-0.30750016118454304,0.2593300404473277,-0.36817657266836473
perc,resp,725,1,3.2.2left.bmp,3.2.2right.bmp,,ACC031,"[2, 0, 0]","[2, 0, 0]",[],match,1.0,,-0.39838539667156997,-0.5752041886613192,-0.43845198340638686,2nd,2nd,2nd,-0.30750016118454304,-0.45857467125127555,-0.36817657266836473
perc,resp,791,0,1.1.1left.bmp,2.1.2right.bmp,,ACC031,"[-2, -2, -2]","[0, -2, 0]",[],non-match,0.5917517095361369,3,-1.3202082026552429,-1.0795089965723919,-0.29584924137023266,1st,1st,2nd,-1.2957325138793958,-1.1561481889053058,-0.36817657266836473
perc,resp,676,1,1.2.2left.bmp,1.2.2right.bmp,,ACC031,"[-2, 0, 0]","[-2, 0, 0]",[],match,1.0,,1.214550093578821,1.4263438738671483,-0.3065667733764568,4th,4th,2nd,1.2192520366470139,1.3553928197092542,-0.36817657266836473
perc,resp,672,0,3.2.3left.bmp,3.3.3right.bmp,,ACC031,"[2, 0, 2]","[2, 2, 2]",[],non-match,0.7113248654051871,4,-0.6286264609614809,-0.7681325482967765,-0.4549909946766602,1st,1st,2nd,-1.2957325138793958,-1.1561481889053058,-0.36817657266836473
perc,resp,669,1,2.3.2left.bmp,2.3.2right.bmp,,ACC031,"[0, 2, 0]","[0, 2, 0]",[],match,1.0,,0.9241959358444016,0.2568356331152621,-0.25443731339463477,4th,3rd,2nd,1.2192520366470139,0.2593300404473277,-0.36817657266836473
perc,resp,721,1,3.3.1left.bmp,2.2.2right.bmp,,ACC031,"[2, 2, -2]","[0, 0, 0]",[],non-match,0.5,3,-0.8424188223987774,0.34307634835669615,-0.3223928196486662,1st,3rd,2nd,-1.2957325138793958,0.2593300404473277,-0.36817657266836473
perc,resp,778,1,2.1.1left.bmp,2.1.1right.bmp,,ACC031,"[0, -2, -2]","[0, -2, -2]",[],match,1.0,,0.7915218420008269,1.146521176672295,-0.1741536813215042,4th,4th,2nd,1.2192520366470139,1.3553928197092542,-0.36817657266836473
perc,resp,678,1,3.1.3left.bmp,1.3.3right.bmp,,ACC031,"[2, -2, 2]","[-2, 2, 2]",[],non-match,0.18350341907227385,1,2.1831007716453588,1.1189166427765056,-0.10470111543212629,4th,4th,2nd,1.2192520366470139,1.3553928197092542,-0.36817657266836473
perc,resp,679,1,3.3.2left.bmp,2.1.3right.bmp,,ACC031,"[2, 2, 0]","[0, -2, 2]",[],non-match,0.29289321881345254,1,0.8164853241047303,-0.5474815435141367,-0.008198872547145934,4th,2nd,3rd,1.2192520366470139,-0.45857467125127555,0.4886427461008023
perc,resp,908,1,1.3.2left.bmp,1.3.2right.bmp,,ACC031,"[-2, 2, 0]","[-2, 2, 0]",[],match,1.0,,0.7394505901060714,0.43364967053421277,-0.08721127683334692,4th,3rd,2nd,1.2192520366470139,0.2593300404473277,-0.36817657266836473
perc,resp,645,0,2.3.1left.bmp,3.3.1right.bmp,,ACC031,"[0, 2, -2]","[2, 2, -2]",[],non-match,0.7113248654051871,4,-1.4639488196784805,-0.5016741156062373,-0.013138805837962992,1st,2nd,3rd,-1.2957325138793958,-0.45857467125127555,0.4886427461008023
perc,resp,911,1,2.2.1left.bmp,2.3.2right.bmp,,ACC031,"[0, 0, -2]","[0, 2, 0]",[],non-match,0.5917517095361369,3,-0.0946387063272404,-1.1488898295245238,0.19625506806823328,2nd,1st,3rd,-0.30750016118454304,-1.1561481889053058,0.4886427461008023
perc,resp,665,1,1.3.3left.bmp,2.1.1right.bmp,,ACC031,"[-2, 2, 2]","[0, -2, -2]",[],non-match,0.1339745962155613,1,2.9543456096314307,2.0240033981084626,0.059603583558583084,4th,4th,3rd,1.2192520366470139,1.3553928197092542,0.4886427461008023
perc,resp,678,1,3.2.1left.bmp,3.2.1right.bmp,,ACC031,"[2, 0, -2]","[2, 0, -2]",[],match,1.0,,-0.004021032489312944,-0.9557361212687584,-0.43255932663860946,2nd,1st,2nd,-0.30750016118454304,-1.1561481889053058,-0.36817657266836473
perc,resp,760,1,2.3.3left.bmp,2.3.3right.bmp,,ACC031,"[0, 2, 2]","[0, 2, 2]",[],match,1.0,,-0.48384246927212127,-1.0899797049764246,-0.5816346389812964,2nd,1st,2nd,-0.30750016118454304,-1.1561481889053058,-0.36817657266836473
perc,resp,565,1,1.1.3left.bmp,3.1.1right.bmp,,ACC031,"[-2, -2, 2]","[2, -2, -2]",[],non-match,0.18350341907227385,1,1.744953349348891,0.3754501941383755,-0.6077048329934488,4th,3rd,2nd,1.2192520366470139,0.2593300404473277,-0.36817657266836473
perc,resp,691,1,1.1.2left.bmp,3.1.3right.bmp,,ACC031,"[-2, -2, 0]","[2, -2, 2]",[],non-match,0.3545027756320971,2,-0.3071937122491875,1.2740831368043406,-0.7479643592400023,2nd,4th,1st,-0.30750016118454304,1.3553928197092542,-1.3272062249438341
perc,resp,678,1,1.3.1left.bmp,3.2.1right.bmp,,ACC031,"[-2, 2, -2]","[2, 0, -2]",[],non-match,0.3545027756320971,2,0.6159860375909326,-0.5861235620571973,-0.8834473049510679,3rd,2nd,1st,0.3839806384169253,-0.45857467125127555,-1.3272062249438341
perc,resp,713,1,1.2.1left.bmp,3.2.3right.bmp,,ACC031,"[-2, 0, -2]","[2, 0, 2]",[],non-match,0.18350341907227385,1,-0.732522011261925,-0.7516585057610309,-1.0863001390173352,1st,1st,1st,-1.2957325138793958,-1.1561481889053058,-1.3272062249438341
perc,resp,741,0,2.1.2left.bmp,2.1.3right.bmp,,ACC031,"[0, -2, 0]","[0, -2, 2]",[],non-match,0.7113248654051871,4,-1.0524095550711123,-0.8497281571926503,-1.1222274414187279,1st,1st,1st,-1.2957325138793958,-1.1561481889053058,-1.3272062249438341
