mode,type,rt,acc,item_1,item_2,item_cue,subj_idx,item_1_number,item_2_number,item_cue_number,trial_type,similarity,similarity_bin,ams,pams,slps,ams_quantile,pams_quantile,slps_quantile,ams_bin,pam_bin,slp_bin
perc,resp,1340,0,2.3.1left.bmp,3.3.1right.bmp,,ACC035,"[0, 2, -2]","[2, 2, -2]",[],non-match,0.7113248654051871,4,0.5457153535337644,-0.022546477288796087,0.831389520816075,3rd,3rd,4th,0.31888106015889,0.22351489267456812,1.1373704713899193
perc,resp,1077,1,3.1.3left.bmp,1.3.2right.bmp,,ACC035,"[2, -2, 2]","[-2, 2, 0]",[],non-match,0.1339745962155613,1,0.5246673789714856,0.7834459586336607,0.6120780180555332,3rd,4th,3rd,0.31888106015889,1.2716924955881312,0.5475558200059646
perc,resp,1276,1,3.2.1left.bmp,2.3.3right.bmp,,ACC035,"[2, 0, -2]","[0, 2, 2]",[],non-match,0.29289321881345254,1,0.9516075614634913,0.31212073360764686,0.5172342356906683,4th,3rd,3rd,1.2584034579676675,0.22351489267456812,0.5475558200059646
perc,resp,2295,0,1.3.1left.bmp,1.3.1right.bmp,,ACC035,"[-2, 2, -2]","[-2, 2, -2]",[],match,1.0,,-0.8017275291121646,-0.42867641586669053,0.5109110201178284,1st,2nd,3rd,-1.2504037530182666,-0.34250764781083054,0.5475558200059646
perc,resp,2092,1,2.2.3left.bmp,2.2.3right.bmp,,ACC035,"[0, 0, 2]","[0, 0, 2]",[],match,1.0,,-2.0557461943705584,0.7967569122709062,0.48668739119793525,1st,4th,3rd,-1.2504037530182666,1.2716924955881312,0.5475558200059646
perc,resp,1100,0,1.2.1left.bmp,1.2.1right.bmp,,ACC035,"[-2, 0, -2]","[-2, 0, -2]",[],match,1.0,,-0.3781226586314535,1.9099877573610256,0.788138723821861,2nd,4th,4th,-0.3270038374921277,1.2716924955881312,1.1373704713899193
perc,resp,1765,1,3.1.1left.bmp,3.1.1right.bmp,,ACC035,"[2, -2, -2]","[2, -2, -2]",[],match,1.0,,-1.2149494320043968,-0.26082354967916005,0.8835764081155739,1st,2nd,4th,-1.2504037530182666,-0.34250764781083054,1.1373704713899193
perc,resp,1386,1,2.2.1left.bmp,1.1.2right.bmp,,ACC035,"[0, 0, -2]","[-2, -2, 0]",[],non-match,0.5,3,0.9864101118015891,0.3601821347653963,0.93723019368436,4th,3rd,4th,1.2584034579676675,0.22351489267456812,1.1373704713899193
perc,resp,1207,1,2.1.1left.bmp,1.1.1right.bmp,,ACC035,"[0, -2, -2]","[-2, -2, -2]",[],non-match,0.7113248654051871,4,1.255294708664796,-0.5568738910153772,0.7352976429444236,4th,2nd,3rd,1.2584034579676675,-0.34250764781083054,0.5475558200059646
perc,resp,1416,1,2.3.3left.bmp,2.3.3right.bmp,,ACC035,"[0, 2, 2]","[0, 2, 2]",[],match,1.0,,0.07637521793186791,-0.1422618793816813,0.648988814247846,3rd,2nd,3rd,0.31888106015889,-0.34250764781083054,0.5475558200059646
perc,resp,1459,1,1.1.3left.bmp,1.3.1right.bmp,,ACC035,"[-2, -2, 2]","[-2, 2, -2]",[],non-match,0.18350341907227385,1,1.8326154075022645,0.7683952688933599,0.6329990295780044,4th,4th,3rd,1.2584034579676675,1.2716924955881312,0.5475558200059646
perc,resp,1692,1,1.1.2left.bmp,1.1.2right.bmp,,ACC035,"[-2, -2, 0]","[-2, -2, 0]",[],match,1.0,,-0.9411058245950199,-0.32651671359051315,0.7186002103031693,1st,2nd,3rd,-1.2504037530182666,-0.34250764781083054,0.5475558200059646
perc,resp,1456,1,3.1.2left.bmp,3.1.2right.bmp,,ACC035,"[2, -2, 0]","[2, -2, 0]",[],match,1.0,,-1.186012045040498,-0.832414232382769,0.903946735186661,1st,1st,4th,-1.2504037530182666,-1.1545026609842377,1.1373704713899193
perc,resp,1043,1,1.2.2left.bmp,2.3.1right.bmp,,ACC035,"[-2, 0, 0]","[0, 2, -2]",[],non-match,0.5,3,1.9552878471195279,1.7709979105474574,1.0208636054316151,4th,4th,4th,1.2584034579676675,1.2716924955881312,1.1373704713899193
perc,resp,1222,1,3.2.3left.bmp,3.2.3right.bmp,,ACC035,"[2, 0, 2]","[2, 0, 2]",[],match,1.0,,0.21978132219303154,1.0322205004696483,0.8460260877214515,3rd,4th,4th,0.31888106015889,1.2716924955881312,1.1373704713899193
perc,resp,1123,1,3.3.3left.bmp,1.3.3right.bmp,,ACC035,"[2, 2, 2]","[-2, 2, 2]",[],non-match,0.42264973081037416,2,0.3210599918873828,1.4127676564470437,0.7573366736826055,3rd,4th,3rd,0.31888106015889,1.2716924955881312,0.5475558200059646
perc,resp,2218,0,1.2.3left.bmp,1.2.1right.bmp,,ACC035,"[-2, 0, 2]","[-2, 0, -2]",[],non-match,0.42264973081037416,2,-0.43477573938029196,0.43926943295632614,0.6283061490117997,2nd,3rd,3rd,-0.3270038374921277,0.22351489267456812,0.5475558200059646
perc,resp,1262,1,1.1.1left.bmp,3.1.2right.bmp,,ACC035,"[-2, -2, -2]","[2, -2, 0]",[],non-match,0.3545027756320971,2,0.4293900446163315,1.9757856359896282,0.9045379854844704,3rd,4th,4th,0.31888106015889,1.2716924955881312,1.1373704713899193
perc,resp,1543,1,1.3.2left.bmp,1.3.2right.bmp,,ACC035,"[-2, 2, 0]","[-2, 2, 0]",[],match,1.0,,0.19102402140584215,0.9172215433401472,1.0415816520433268,3rd,4th,4th,0.31888106015889,1.2716924955881312,1.1373704713899193
perc,resp,1506,1,3.3.1left.bmp,3.3.1right.bmp,,ACC035,"[2, 2, -2]","[2, 2, -2]",[],match,1.0,,0.1860929403566985,-1.2923123432498835,1.0225672822029712,3rd,1st,4th,0.31888106015889,-1.1545026609842377,1.1373704713899193
perc,resp,1524,1,2.3.2left.bmp,1.1.2right.bmp,,ACC035,"[0, 2, 0]","[-2, -2, 0]",[],non-match,0.3545027756320971,2,0.9305845839148534,0.2014692468301178,1.1196786230512181,4th,3rd,4th,1.2584034579676675,0.22351489267456812,1.1373704713899193
perc,resp,1265,1,2.1.3left.bmp,3.2.1right.bmp,,ACC035,"[0, -2, 2]","[2, 0, -2]",[],non-match,0.29289321881345254,1,-0.2835782915136191,-0.1371000349527621,1.2383506909212123,2nd,2nd,4th,-0.3270038374921277,-0.34250764781083054,1.1373704713899193
perc,resp,1235,0,2.2.2left.bmp,2.2.2right.bmp,,ACC035,"[0, 0, 0]","[0, 0, 0]",[],match,1.0,,0.5181609191818854,1.240907401460452,1.3924386875600205,3rd,4th,4th,0.31888106015889,1.2716924955881312,1.1373704713899193
perc,resp,0,0,3.3.3left.bmp,3.2.2right.bmp,,ACC035,"[2, 2, 2]","[2, 0, 0]",[],non-match,0.5917517095361369,3,0.004640546893015648,-0.3366530499646101,1.5828487952008776,2nd,2nd,4th,-0.3270038374921277,-0.34250764781083054,1.1373704713899193
perc,resp,2130,1,2.3.3left.bmp,2.3.3right.bmp,,ACC035,"[0, 2, 2]","[0, 2, 2]",[],match,1.0,,0.1575809405707566,0.7670212501466884,1.4523852203008565,3rd,4th,4th,0.31888106015889,1.2716924955881312,1.1373704713899193
perc,resp,1080,1,1.3.1left.bmp,1.3.1right.bmp,,ACC035,"[-2, 2, -2]","[-2, 2, -2]",[],match,1.0,,0.37747806547014295,0.1733460465846476,1.442893458798312,3rd,3rd,4th,0.31888106015889,0.22351489267456812,1.1373704713899193
perc,resp,887,1,2.1.1left.bmp,1.1.3right.bmp,,ACC035,"[0, -2, -2]","[-2, -2, 2]",[],non-match,0.3545027756320971,2,2.6664963581670014,6.271400970445201,1.3538912777858636,4th,4th,4th,1.2584034579676675,1.2716924955881312,1.1373704713899193
perc,resp,1922,1,1.2.2left.bmp,2.2.1right.bmp,,ACC035,"[-2, 0, 0]","[0, 0, -2]",[],non-match,0.5917517095361369,3,0.2779052507627737,0.10505751392958235,1.4171736956073566,3rd,3rd,4th,0.31888106015889,0.22351489267456812,1.1373704713899193
perc,resp,1193,1,1.3.2left.bmp,2.1.2right.bmp,,ACC035,"[-2, 2, 0]","[0, -2, 0]",[],non-match,0.3545027756320971,2,-0.2393790185844993,0.04205616970254107,1.4769587990045046,2nd,3rd,4th,-0.3270038374921277,0.22351489267456812,1.1373704713899193
perc,resp,1100,1,1.3.3left.bmp,1.3.3right.bmp,,ACC035,"[-2, 2, 2]","[-2, 2, 2]",[],match,1.0,,-0.07561183325437289,0.7132295532378107,1.3498285757374604,2nd,4th,4th,-0.3270038374921277,1.2716924955881312,1.1373704713899193
perc,resp,1289,0,3.1.1left.bmp,3.1.1right.bmp,,ACC035,"[2, -2, -2]","[2, -2, -2]",[],match,1.0,,0.2906033391880621,0.012358991443302934,0.8479536857769683,3rd,3rd,4th,0.31888106015889,0.22351489267456812,1.1373704713899193
perc,resp,2762,1,2.2.1left.bmp,2.2.2right.bmp,,ACC035,"[0, 0, -2]","[0, 0, 0]",[],non-match,0.7113248654051871,4,-1.0514604053574839,1.1040327195518724,0.9238597209880366,1st,4th,4th,-1.2504037530182666,1.2716924955881312,1.1373704713899193
perc,resp,2966,0,2.1.3left.bmp,3.1.2right.bmp,,ACC035,"[0, -2, 2]","[2, -2, 0]",[],non-match,0.5917517095361369,3,-0.03227309929010389,0.46104321771688483,0.8987174185046443,2nd,3rd,4th,-0.3270038374921277,0.22351489267456812,1.1373704713899193
perc,resp,1534,1,3.3.1left.bmp,3.3.1right.bmp,,ACC035,"[2, 2, -2]","[2, 2, -2]",[],match,1.0,,0.18414971932156138,-0.5633070300184585,0.8133537157770552,3rd,2nd,4th,0.31888106015889,-0.34250764781083054,1.1373704713899193
perc,resp,2775,1,2.3.1left.bmp,2.3.1right.bmp,,ACC035,"[0, 2, -2]","[0, 2, -2]",[],match,1.0,,-1.4045580741736827,-1.2278526988022787,0.9622381387666351,1st,1st,4th,-1.2504037530182666,-1.1545026609842377,1.1373704713899193
perc,resp,2053,1,3.1.3left.bmp,3.1.3right.bmp,,ACC035,"[2, -2, 2]","[2, -2, 2]",[],match,1.0,,1.1360927432428325,0.3979486194847345,1.1676626136123442,4th,3rd,4th,1.2584034579676675,0.22351489267456812,1.1373704713899193
perc,resp,949,0,2.3.2left.bmp,2.3.3right.bmp,,ACC035,"[0, 2, 0]","[0, 2, 2]",[],non-match,0.7113248654051871,4,0.12304495474924142,0.45849133935977276,0.9917497791919367,3rd,3rd,4th,0.31888106015889,0.22351489267456812,1.1373704713899193
perc,resp,1764,1,1.1.3left.bmp,1.2.1right.bmp,,ACC035,"[-2, -2, 2]","[-2, 0, -2]",[],non-match,0.3545027756320971,2,0.4575384132522005,-0.4596553842996301,0.7563845528499551,3rd,2nd,3rd,0.31888106015889,-0.34250764781083054,0.5475558200059646
perc,resp,2683,1,3.2.3left.bmp,3.2.3right.bmp,,ACC035,"[2, 0, 2]","[2, 0, 2]",[],match,1.0,,-0.3917550106481632,-0.19314189189174782,0.7273511171295127,2nd,2nd,3rd,-0.3270038374921277,-0.34250764781083054,0.5475558200059646
perc,resp,1779,1,1.2.3left.bmp,2.2.3right.bmp,,ACC035,"[-2, 0, 2]","[0, 0, 2]",[],non-match,0.7113248654051871,4,-0.49625449192700166,-1.526595523337721,0.7720773632907046,2nd,1st,3rd,-0.3270038374921277,-1.1545026609842377,0.5475558200059646
perc,resp,1551,1,2.2.2left.bmp,3.3.1right.bmp,,ACC035,"[0, 0, 0]","[2, 2, -2]",[],non-match,0.5,3,-0.2376081127565736,0.19114211975863657,0.707756241539031,2nd,3rd,3rd,-0.3270038374921277,0.22351489267456812,0.5475558200059646
perc,resp,1332,1,1.2.1left.bmp,2.2.1right.bmp,,ACC035,"[-2, 0, -2]","[0, 0, -2]",[],non-match,0.7113248654051871,4,-0.6768442407370369,0.6070946124761051,0.6116547475262439,1st,4th,3rd,-1.2504037530182666,1.2716924955881312,0.5475558200059646
perc,resp,1393,0,3.3.2left.bmp,2.1.1right.bmp,,ACC035,"[2, 2, 0]","[0, -2, -2]",[],non-match,0.29289321881345254,1,0.5992807368028841,1.4981958047485484,0.6239316845124669,3rd,4th,3rd,0.31888106015889,1.2716924955881312,0.5475558200059646
perc,resp,1033,1,3.2.1left.bmp,3.2.1right.bmp,,ACC035,"[2, 0, -2]","[2, 0, -2]",[],match,1.0,,-0.4495913292718081,0.9688974118291228,0.7321874450027963,2nd,4th,3rd,-0.3270038374921277,1.2716924955881312,0.5475558200059646
perc,resp,969,1,3.2.2left.bmp,3.2.2right.bmp,,ACC035,"[2, 0, 0]","[2, 0, 0]",[],match,1.0,,-0.3338200347041113,1.0633048471347506,0.7778038053567584,2nd,4th,3rd,-0.3270038374921277,1.2716924955881312,0.5475558200059646
perc,resp,1352,0,3.1.2left.bmp,3.1.3right.bmp,,ACC035,"[2, -2, 0]","[2, -2, 2]",[],non-match,0.7113248654051871,4,-0.2684299957473016,0.6456172629186215,0.8919272842600563,2nd,4th,4th,-0.3270038374921277,1.2716924955881312,1.1373704713899193
perc,resp,1091,1,1.1.2left.bmp,1.1.2right.bmp,,ACC035,"[-2, -2, 0]","[-2, -2, 0]",[],match,1.0,,0.12273162531423434,0.8315399323417059,0.9999319030002247,3rd,4th,4th,0.31888106015889,1.2716924955881312,1.1373704713899193
perc,resp,1150,1,2.1.2left.bmp,2.1.2right.bmp,,ACC035,"[0, -2, 0]","[0, -2, 0]",[],match,1.0,,-0.3089712384192937,1.3180294287972945,1.131727569436904,2nd,4th,4th,-0.3270038374921277,1.2716924955881312,1.1373704713899193
perc,resp,1219,1,1.1.1left.bmp,3.2.1right.bmp,,ACC035,"[-2, -2, -2]","[2, 0, -2]",[],non-match,0.3545027756320971,2,0.9248992212957982,0.019555051957771498,1.0979511627242924,4th,3rd,4th,1.2584034579676675,0.22351489267456812,1.1373704713899193
perc,resp,1300,1,1.2.3left.bmp,1.2.3right.bmp,,ACC035,"[-2, 0, 2]","[-2, 0, 2]",[],match,1.0,,-0.4691990030275832,-1.545817640859548,0.8160887361465426,2nd,1st,4th,-0.3270038374921277,-1.1545026609842377,1.1373704713899193
perc,resp,1441,1,1.1.3left.bmp,1.1.3right.bmp,,ACC035,"[-2, -2, 2]","[-2, -2, 2]",[],match,1.0,,-1.175898899964459,-0.7230907103849633,0.6630769163040512,1st,1st,3rd,-1.2504037530182666,-1.1545026609842377,0.5475558200059646
perc,resp,1139,1,2.1.2left.bmp,2.1.2right.bmp,,ACC035,"[0, -2, 0]","[0, -2, 0]",[],match,1.0,,-0.5488597845739318,-2.460561107933567,0.5658561324153987,2nd,1st,3rd,-0.3270038374921277,-1.1545026609842377,0.5475558200059646
perc,resp,1108,1,1.1.2left.bmp,3.2.2right.bmp,,ACC035,"[-2, -2, 0]","[2, 0, 0]",[],non-match,0.3545027756320971,2,1.0605757170209273,2.056121608928126,0.7614591307271726,4th,4th,3rd,1.2584034579676675,1.2716924955881312,0.5475558200059646
perc,resp,865,1,1.3.3left.bmp,1.3.3right.bmp,,ACC035,"[-2, 2, 2]","[-2, 2, 2]",[],match,1.0,,-0.6216291275947871,-0.44018655986907645,0.6976603885738616,2nd,2nd,3rd,-0.3270038374921277,-0.34250764781083054,0.5475558200059646
perc,resp,1426,1,1.2.1left.bmp,1.3.2right.bmp,,ACC035,"[-2, 0, -2]","[-2, 2, 0]",[],non-match,0.5917517095361369,3,0.3570438498586864,-0.15463637219790555,0.6856330396719962,3rd,2nd,3rd,0.31888106015889,-0.34250764781083054,0.5475558200059646
perc,resp,1125,1,2.1.3left.bmp,2.1.3right.bmp,,ACC035,"[0, -2, 2]","[0, -2, 2]",[],match,1.0,,0.2080320505818522,-0.030398874691737073,0.7609515128696851,3rd,3rd,3rd,0.31888106015889,0.22351489267456812,0.5475558200059646
perc,resp,979,0,1.2.2left.bmp,1.3.3right.bmp,,ACC035,"[-2, 0, 0]","[-2, 2, 2]",[],non-match,0.5917517095361369,3,-0.8465542796434254,0.47806864847867525,0.606959850631957,1st,3rd,3rd,-1.2504037530182666,0.22351489267456812,0.5475558200059646
perc,resp,1203,0,2.3.1left.bmp,2.3.1right.bmp,,ACC035,"[0, 2, -2]","[0, 2, -2]",[],match,1.0,,1.0277859035397616,0.5976740277350033,0.5677103546748011,4th,4th,3rd,1.2584034579676675,1.2716924955881312,0.5475558200059646
perc,resp,1052,1,1.1.2left.bmp,1.1.2right.bmp,,ACC035,"[-2, -2, 0]","[-2, -2, 0]",[],match,1.0,,-0.08620672246416893,-0.0018281034773795113,0.4915916987290279,2nd,3rd,3rd,-0.3270038374921277,0.22351489267456812,0.5475558200059646
perc,resp,1199,1,1.2.1left.bmp,1.2.1right.bmp,,ACC035,"[-2, 0, -2]","[-2, 0, -2]",[],match,1.0,,-1.347215637910507,-1.257948483645769,0.5813705879916552,1st,1st,3rd,-1.2504037530182666,-1.1545026609842377,0.5475558200059646
perc,resp,1478,1,3.3.2left.bmp,3.3.2right.bmp,,ACC035,"[2, 2, 0]","[2, 2, 0]",[],match,1.0,,-2.480972539844588,-2.4541537197180783,0.5852913509879643,1st,1st,3rd,-1.2504037530182666,-1.1545026609842377,0.5475558200059646
perc,resp,785,1,1.2.3left.bmp,1.2.3right.bmp,,ACC035,"[-2, 0, 2]","[-2, 0, 2]",[],match,1.0,,-0.06310748851479475,0.406809137319351,0.4773278672553426,2nd,3rd,3rd,-0.3270038374921277,0.22351489267456812,0.5475558200059646
perc,resp,862,1,2.1.1left.bmp,2.1.1right.bmp,,ACC035,"[0, -2, -2]","[0, -2, -2]",[],match,1.0,,-1.0037075733328689,-1.0847339042415283,0.2313174634259164,1st,1st,3rd,-1.2504037530182666,-1.1545026609842377,0.5475558200059646
perc,resp,787,1,2.1.2left.bmp,2.1.2right.bmp,,ACC035,"[0, -2, 0]","[0, -2, 0]",[],match,1.0,,-0.8161475159527881,0.16611958502323565,0.38022808369127126,1st,3rd,3rd,-1.2504037530182666,0.22351489267456812,0.5475558200059646
perc,resp,1237,1,2.2.2left.bmp,1.2.2right.bmp,,ACC035,"[0, 0, 0]","[-2, 0, 0]",[],non-match,0.7113248654051871,4,2.8589487972672925,1.154100107251581,0.3766644081569109,4th,4th,3rd,1.2584034579676675,1.2716924955881312,0.5475558200059646
perc,resp,976,0,2.2.1left.bmp,3.2.3right.bmp,,ACC035,"[0, 0, -2]","[2, 0, 2]",[],non-match,0.3545027756320971,2,-1.3600797191742624,-0.42601523850747236,0.624316637867564,1st,2nd,3rd,-1.2504037530182666,-0.34250764781083054,0.5475558200059646
perc,resp,881,1,3.1.1left.bmp,1.1.1right.bmp,,ACC035,"[2, -2, -2]","[-2, -2, -2]",[],non-match,0.42264973081037416,2,0.9384158078431962,-0.5602981105250576,0.5699073022257952,4th,2nd,3rd,1.2584034579676675,-0.34250764781083054,0.5475558200059646
perc,resp,1130,1,2.3.3left.bmp,2.3.3right.bmp,,ACC035,"[0, 2, 2]","[0, 2, 2]",[],match,1.0,,0.3671145544562889,-0.5523315282374657,0.5291807556672418,3rd,2nd,3rd,0.31888106015889,-0.34250764781083054,0.5475558200059646
perc,resp,936,0,3.3.1left.bmp,1.2.3right.bmp,,ACC035,"[2, 2, -2]","[-2, 0, 2]",[],non-match,0.1339745962155613,1,0.4171198566336683,1.9370785887207118,0.403170000463778,3rd,4th,3rd,0.31888106015889,1.2716924955881312,0.5475558200059646
perc,resp,1135,1,1.3.3left.bmp,2.2.2right.bmp,,ACC035,"[-2, 2, 2]","[0, 0, 0]",[],non-match,0.5,3,1.125535259128682,-0.12147793823290935,0.16686235649475067,4th,2nd,2nd,1.2584034579676675,-0.34250764781083054,-0.3064364958611756
perc,resp,1355,1,1.3.1left.bmp,1.1.2right.bmp,,ACC035,"[-2, 2, -2]","[-2, -2, 0]",[],non-match,0.3545027756320971,2,0.28061163996877353,0.6792150040758563,0.17784885581041812,3rd,4th,3rd,0.31888106015889,1.2716924955881312,0.5475558200059646
perc,resp,904,1,3.1.3left.bmp,1.2.2right.bmp,,ACC035,"[2, -2, 2]","[-2, 0, 0]",[],non-match,0.29289321881345254,1,1.0147018452251737,-0.41760325675434573,0.1346751361844778,4th,2nd,2nd,1.2584034579676675,-0.34250764781083054,-0.3064364958611756
perc,resp,1049,1,1.1.1left.bmp,1.1.1right.bmp,,ACC035,"[-2, -2, -2]","[-2, -2, -2]",[],match,1.0,,-0.5835223881008543,0.1976472199700573,0.16177446790630254,2nd,3rd,2nd,-0.3270038374921277,0.22351489267456812,-0.3064364958611756
perc,resp,1048,1,3.2.3left.bmp,1.3.2right.bmp,,ACC035,"[2, 0, 2]","[-2, 2, 0]",[],non-match,0.29289321881345254,1,0.8421489269277003,1.2772431670677888,-0.022875178224418424,4th,4th,2nd,1.2584034579676675,1.2716924955881312,-0.3064364958611756
perc,resp,1195,1,3.3.3left.bmp,2.1.3right.bmp,,ACC035,"[2, 2, 2]","[0, -2, 2]",[],non-match,0.3545027756320971,2,0.24360823458579378,1.2980739161777273,-0.24804925825643087,3rd,4th,2nd,0.31888106015889,1.2716924955881312,-0.3064364958611756
perc,resp,964,1,1.1.3left.bmp,3.3.2right.bmp,,ACC035,"[-2, -2, 2]","[2, 2, 0]",[],non-match,0.1339745962155613,1,-0.6440274502260156,-1.1726119607218568,-0.10147263743474183,2nd,1st,2nd,-0.3270038374921277,-1.1545026609842377,-0.3064364958611756
perc,resp,1707,1,3.2.1left.bmp,3.3.1right.bmp,,ACC035,"[2, 0, -2]","[2, 2, -2]",[],non-match,0.7113248654051871,4,-1.3944238378784066,-0.7792951586375118,-0.25847180490175065,1st,1st,2nd,-1.2504037530182666,-1.1545026609842377,-0.3064364958611756
perc,resp,1478,1,2.3.2left.bmp,2.3.2right.bmp,,ACC035,"[0, 2, 0]","[0, 2, 0]",[],match,1.0,,-0.5951532199313178,-1.0685513485381957,-0.12946629126768078,2nd,1st,2nd,-0.3270038374921277,-1.1545026609842377,-0.3064364958611756
perc,resp,2225,0,1.3.2left.bmp,1.3.2right.bmp,,ACC035,"[-2, 2, 0]","[-2, 2, 0]",[],match,1.0,,-0.06210674390395345,0.2337815183218578,-0.18466493237513587,2nd,3rd,2nd,-0.3270038374921277,0.22351489267456812,-0.3064364958611756
perc,resp,2133,1,3.1.2left.bmp,3.1.2right.bmp,,ACC035,"[2, -2, 0]","[2, -2, 0]",[],match,1.0,,-2.6788977280023043,-0.3161478453990231,-0.21753772685598147,1st,2nd,2nd,-1.2504037530182666,-0.34250764781083054,-0.3064364958611756
perc,resp,941,1,3.2.2left.bmp,1.3.1right.bmp,,ACC035,"[2, 0, 0]","[-2, 2, -2]",[],non-match,0.29289321881345254,1,0.7175158272784226,1.092398287142291,-0.18304858491823556,4th,4th,2nd,1.2584034579676675,1.2716924955881312,-0.3064364958611756
perc,resp,1018,1,2.1.3left.bmp,2.1.3right.bmp,,ACC035,"[0, -2, 2]","[0, -2, 2]",[],match,1.0,,0.2756346234120552,-0.5243035725418442,-0.17013021298721995,3rd,2nd,2nd,0.31888106015889,-0.34250764781083054,-0.3064364958611756
perc,resp,1179,1,2.2.3left.bmp,2.2.3right.bmp,,ACC035,"[0, 0, 2]","[0, 0, 2]",[],match,1.0,,0.20050425419367732,-0.506783793009768,-0.2082887428006283,3rd,2nd,2nd,0.31888106015889,-0.34250764781083054,-0.3064364958611756
perc,resp,1227,1,3.2.2left.bmp,3.2.2right.bmp,,ACC035,"[2, 0, 0]","[2, 0, 0]",[],match,1.0,,-1.9849504855962963,-2.161728985977686,-0.32569354831030534,1st,1st,2nd,-1.2504037530182666,-1.1545026609842377,-0.3064364958611756
perc,resp,864,1,2.2.1left.bmp,2.2.1right.bmp,,ACC035,"[0, 0, -2]","[0, 0, -2]",[],match,1.0,,-0.7922866515747686,0.9830062723095566,-0.25891448170337034,1st,4th,2nd,-1.2504037530182666,1.2716924955881312,-0.3064364958611756
perc,resp,739,1,3.1.1left.bmp,3.1.1right.bmp,,ACC035,"[2, -2, -2]","[2, -2, -2]",[],match,1.0,,-0.8364079000491728,0.22987257100813605,-0.5027859968051768,1st,3rd,2nd,-1.2504037530182666,0.22351489267456812,-0.3064364958611756
perc,resp,1290,1,1.1.3left.bmp,1.3.1right.bmp,,ACC035,"[-2, -2, 2]","[-2, 2, -2]",[],non-match,0.18350341907227385,1,-1.3949498637072304,0.633061027335651,-0.5638488846811921,1st,4th,2nd,-1.2504037530182666,1.2716924955881312,-0.3064364958611756
perc,resp,1319,1,3.1.3left.bmp,3.1.3right.bmp,,ACC035,"[2, -2, 2]","[2, -2, 2]",[],match,1.0,,-1.09415692454712,-0.8129019778851532,-0.38710678572220625,1st,1st,2nd,-1.2504037530182666,-1.1545026609842377,-0.3064364958611756
perc,resp,944,0,1.1.1left.bmp,2.1.2right.bmp,,ACC035,"[-2, -2, -2]","[0, -2, 0]",[],non-match,0.5917517095361369,3,-0.6474087049397644,-0.12485160997009248,-0.153893056222687,2nd,2nd,2nd,-0.3270038374921277,-0.34250764781083054,-0.3064364958611756
perc,resp,1343,1,1.3.2left.bmp,1.3.2right.bmp,,ACC035,"[-2, 2, 0]","[-2, 2, 0]",[],match,1.0,,0.308239405942608,-0.42534526940350503,-0.31383468623187205,3rd,2nd,2nd,0.31888106015889,-0.34250764781083054,-0.3064364958611756
perc,resp,1214,1,2.1.3left.bmp,2.2.1right.bmp,,ACC035,"[0, -2, 2]","[0, 0, -2]",[],non-match,0.3545027756320971,2,-0.7211470705342214,0.9137228895210863,-0.2156640369960386,1st,4th,2nd,-1.2504037530182666,1.2716924955881312,-0.3064364958611756
perc,resp,1053,1,2.3.2left.bmp,3.1.2right.bmp,,ACC035,"[0, 2, 0]","[2, -2, 0]",[],non-match,0.3545027756320971,2,1.221931672200397,0.25273602821518487,-0.015229625561603694,4th,3rd,2nd,1.2584034579676675,0.22351489267456812,-0.3064364958611756
perc,resp,877,1,1.2.3left.bmp,3.3.1right.bmp,,ACC035,"[-2, 0, 2]","[2, 2, -2]",[],non-match,0.1339745962155613,1,-1.0468392876878492,-0.4859229142908051,0.09987157025326943,1st,2nd,2nd,-1.2504037530182666,-0.34250764781083054,-0.3064364958611756
perc,resp,1034,1,2.2.2left.bmp,2.2.2right.bmp,,ACC035,"[0, 0, 0]","[0, 0, 0]",[],match,1.0,,0.7468939313655141,-0.4864822272030712,-0.14779447945687926,4th,2nd,2nd,1.2584034579676675,-0.34250764781083054,-0.3064364958611756
perc,resp,1351,1,3.3.2left.bmp,3.2.1right.bmp,,ACC035,"[2, 2, 0]","[2, 0, -2]",[],non-match,0.5917517095361369,3,-0.19655567554479317,-0.0032062842721440003,-0.3878632684840906,2nd,3rd,2nd,-0.3270038374921277,0.22351489267456812,-0.3064364958611756
perc,resp,1402,1,3.2.3left.bmp,2.2.1right.bmp,,ACC035,"[2, 0, 2]","[0, 0, -2]",[],non-match,0.3545027756320971,2,-1.3884206377582058,-1.139393719935344,-0.2928706488679623,1st,1st,2nd,-1.2504037530182666,-1.1545026609842377,-0.3064364958611756
perc,resp,1745,1,1.3.1left.bmp,1.3.1right.bmp,,ACC035,"[-2, 2, -2]","[-2, 2, -2]",[],match,1.0,,-0.6013733410664246,-1.809512913992108,-0.3717481938053171,2nd,1st,2nd,-0.3270038374921277,-1.1545026609842377,-0.3064364958611756
perc,resp,1074,1,2.1.1left.bmp,1.2.1right.bmp,,ACC035,"[0, -2, -2]","[-2, 0, -2]",[],non-match,0.5917517095361369,3,0.7871563063796404,1.1656537114807974,-0.7640537691215475,4th,4th,2nd,1.2584034579676675,1.2716924955881312,-0.3064364958611756
perc,resp,1173,1,3.2.1left.bmp,1.2.2right.bmp,,ACC035,"[2, 0, -2]","[-2, 0, 0]",[],non-match,0.3545027756320971,2,-0.2705028275597253,0.5282458780563268,-0.7782588131053848,2nd,4th,2nd,-0.3270038374921277,1.2716924955881312,-0.3064364958611756
perc,resp,1089,1,2.3.1left.bmp,1.2.3right.bmp,,ACC035,"[0, 2, -2]","[-2, 0, 2]",[],non-match,0.29289321881345254,1,0.7285840007950413,-0.1997098450613334,-0.8350073688798801,4th,2nd,1st,1.2584034579676675,-0.34250764781083054,-1.3748364724416056
perc,resp,1008,1,3.3.3left.bmp,3.1.3right.bmp,,ACC035,"[2, 2, 2]","[2, -2, 2]",[],non-match,0.42264973081037416,2,-0.6867005698570957,1.0008712303954683,-0.8610520050525953,1st,4th,1st,-1.2504037530182666,1.2716924955881312,-1.3748364724416056
perc,resp,1539,0,3.1.2left.bmp,3.1.2right.bmp,,ACC035,"[2, -2, 0]","[2, -2, 0]",[],match,1.0,,0.6282721803997087,1.5495390713072763,-0.8343823022405846,3rd,4th,1st,0.31888106015889,1.2716924955881312,-1.3748364724416056
perc,resp,1834,1,2.1.2left.bmp,3.2.2right.bmp,,ACC035,"[0, -2, 0]","[2, 0, 0]",[],non-match,0.5917517095361369,3,1.2272080957015405,-0.32766776116649715,-0.8013579171718879,4th,2nd,1st,1.2584034579676675,-0.34250764781083054,-1.3748364724416056
perc,resp,922,1,3.3.1left.bmp,1.1.3right.bmp,,ACC035,"[2, 2, -2]","[-2, -2, 2]",[],non-match,0.0,1,-0.006987573581889897,-0.6688583792540191,-1.005079151890443,2nd,1st,1st,-0.3270038374921277,-1.1545026609842377,-1.3748364724416056
perc,resp,1180,1,1.2.1left.bmp,3.3.3right.bmp,,ACC035,"[-2, 0, -2]","[2, 2, 2]",[],non-match,0.1339745962155613,1,-0.05975798033395722,-0.9097663184359641,-1.0644544180048556,2nd,1st,1st,-0.3270038374921277,-1.1545026609842377,-1.3748364724416056
perc,resp,967,1,2.2.3left.bmp,1.1.1right.bmp,,ACC035,"[0, 0, 2]","[-2, -2, -2]",[],non-match,0.29289321881345254,1,1.9437526430212764,1.1635562805198583,-1.0843789589117045,4th,4th,1st,1.2584034579676675,1.2716924955881312,-1.3748364724416056
perc,resp,966,1,1.2.2left.bmp,2.3.1right.bmp,,ACC035,"[-2, 0, 0]","[0, 2, -2]",[],non-match,0.5,3,1.4626350574798586,-0.22099733370987318,-1.0515842418015329,4th,2nd,1st,1.2584034579676675,-0.34250764781083054,-1.3748364724416056
perc,resp,993,1,1.3.3left.bmp,1.3.3right.bmp,,ACC035,"[-2, 2, 2]","[-2, 2, 2]",[],match,1.0,,-0.9498788932386381,-0.34212011125371444,-1.1978045009220855,1st,2nd,1st,-1.2504037530182666,-0.34250764781083054,-1.3748364724416056
perc,resp,1314,1,1.1.2left.bmp,1.1.2right.bmp,,ACC035,"[-2, -2, 0]","[-2, -2, 0]",[],match,1.0,,-0.06193790014670436,0.3756227299966526,-1.0812521192533822,2nd,3rd,1st,-0.3270038374921277,0.22351489267456812,-1.3748364724416056
perc,resp,1052,1,2.3.3left.bmp,2.3.3right.bmp,,ACC035,"[0, 2, 2]","[0, 2, 2]",[],match,1.0,,-0.005356870300988324,1.1712598093040374,-1.03034953408594,2nd,4th,1st,-0.3270038374921277,1.2716924955881312,-1.3748364724416056
perc,resp,810,0,3.3.2left.bmp,3.2.2right.bmp,,ACC035,"[2, 2, 0]","[2, 0, 0]",[],non-match,0.7113248654051871,4,-0.2762586459283555,-0.008406793524655768,-1.0841008614100678,2nd,3rd,1st,-0.3270038374921277,0.22351489267456812,-1.3748364724416056
perc,resp,1278,1,1.3.2left.bmp,1.2.1right.bmp,,ACC035,"[-2, 2, 0]","[-2, 0, -2]",[],non-match,0.5917517095361369,3,-0.8682591296781889,0.28047318342010397,-1.0251446595032396,1st,3rd,1st,-1.2504037530182666,0.22351489267456812,-1.3748364724416056
perc,resp,1359,1,2.2.1left.bmp,2.2.1right.bmp,,ACC035,"[0, 0, -2]","[0, 0, -2]",[],match,1.0,,0.23281798836136675,-0.18583737684869892,-0.8859049111336106,3rd,2nd,1st,0.31888106015889,-0.34250764781083054,-1.3748364724416056
perc,resp,1156,0,2.1.2left.bmp,2.1.2right.bmp,,ACC035,"[0, -2, 0]","[0, -2, 0]",[],match,1.0,,0.02992947727055714,0.05511927035984632,-0.8105317300947715,3rd,3rd,1st,0.31888106015889,0.22351489267456812,-1.3748364724416056
perc,resp,1217,0,1.1.2left.bmp,2.1.1right.bmp,,ACC035,"[-2, -2, 0]","[0, -2, -2]",[],non-match,0.5917517095361369,3,-0.3927898440055439,0.5060291669312755,-1.004463111145697,2nd,3rd,1st,-0.3270038374921277,0.22351489267456812,-1.3748364724416056
perc,resp,1014,1,2.2.3left.bmp,2.2.3right.bmp,,ACC035,"[0, 0, 2]","[0, 0, 2]",[],match,1.0,,-0.43998782727775926,-0.02896586343730747,-0.8867932663359333,2nd,3rd,1st,-0.3270038374921277,0.22351489267456812,-1.3748364724416056
perc,resp,1235,1,3.2.1left.bmp,2.3.2right.bmp,,ACC035,"[2, 0, -2]","[0, 2, 0]",[],non-match,0.5,3,0.022469234173550474,-1.5198478179461286,-1.0446445173551802,3rd,1st,1st,0.31888106015889,-1.1545026609842377,-1.3748364724416056
perc,resp,2314,0,2.3.1left.bmp,3.3.3right.bmp,,ACC035,"[0, 2, -2]","[2, 2, 2]",[],non-match,0.3545027756320971,2,-0.9827926619786163,-1.1931369953354254,-1.0755329250939007,1st,1st,1st,-1.2504037530182666,-1.1545026609842377,-1.3748364724416056
perc,resp,1970,1,3.1.2left.bmp,3.1.2right.bmp,,ACC035,"[2, -2, 0]","[2, -2, 0]",[],match,1.0,,-1.6130763672747501,-0.9783595552351447,-0.8073859400166843,1st,1st,1st,-1.2504037530182666,-1.1545026609842377,-1.3748364724416056
perc,resp,1058,1,1.1.1left.bmp,1.1.1right.bmp,,ACC035,"[-2, -2, -2]","[-2, -2, -2]",[],match,1.0,,0.007461664564377638,-0.5465315031008868,-0.8456219105810007,3rd,2nd,1st,0.31888106015889,-0.34250764781083054,-1.3748364724416056
perc,resp,1164,1,2.2.2left.bmp,2.2.2right.bmp,,ACC035,"[0, 0, 0]","[0, 0, 0]",[],match,1.0,,-0.9664723684406121,2.3991953728193134,-1.0461517282056907,1st,4th,1st,-1.2504037530182666,1.2716924955881312,-1.3748364724416056
perc,resp,899,1,1.3.3left.bmp,1.3.3right.bmp,,ACC035,"[-2, 2, 2]","[-2, 2, 2]",[],match,1.0,,-0.2635854583872843,-0.7348716891111102,-1.2319534883467507,2nd,1st,1st,-0.3270038374921277,-1.1545026609842377,-1.3748364724416056
perc,resp,774,1,3.3.3left.bmp,3.3.3right.bmp,,ACC035,"[2, 2, 2]","[2, 2, 2]",[],match,1.0,,0.7880858766919601,-0.17972356947759793,-1.2821493606263323,4th,2nd,1st,1.2584034579676675,-0.34250764781083054,-1.3748364724416056
perc,resp,779,1,3.3.1left.bmp,1.2.3right.bmp,,ACC035,"[2, 2, -2]","[-2, 0, 2]",[],non-match,0.1339745962155613,1,0.5039274451860833,1.714867685485908,-1.413112919740264,3rd,4th,1st,0.31888106015889,1.2716924955881312,-1.3748364724416056
perc,resp,835,1,3.1.3left.bmp,3.1.3right.bmp,,ACC035,"[2, -2, 2]","[2, -2, 2]",[],match,1.0,,1.2109802173610515,-0.09019966425446785,-1.3366240849160322,4th,3rd,1st,1.2584034579676675,0.22351489267456812,-1.3748364724416056
perc,resp,933,1,3.3.3left.bmp,3.3.3right.bmp,,ACC035,"[2, 2, 2]","[2, 2, 2]",[],match,1.0,,-0.9136333179976399,-0.3847023872148419,-1.3286723297595864,1st,2nd,1st,-1.2504037530182666,-0.34250764781083054,-1.3748364724416056
perc,resp,807,1,1.1.2left.bmp,1.1.2right.bmp,,ACC035,"[-2, -2, 0]","[-2, -2, 0]",[],match,1.0,,1.0457359010768308,0.1699054804802813,-1.4503713593155387,4th,3rd,1st,1.2584034579676675,0.22351489267456812,-1.3748364724416056
perc,resp,916,1,2.1.3left.bmp,2.3.3right.bmp,,ACC035,"[0, -2, 2]","[0, 2, 2]",[],non-match,0.42264973081037416,2,1.4510638910109073,2.299563783002439,-1.2557812685466896,4th,4th,1st,1.2584034579676675,1.2716924955881312,-1.3748364724416056
perc,resp,1113,1,2.2.3left.bmp,3.1.3right.bmp,,ACC035,"[0, 0, 2]","[2, -2, 2]",[],non-match,0.5917517095361369,3,0.1856831868651647,0.22613185488474244,-1.3059116306850784,3rd,3rd,1st,0.31888106015889,0.22351489267456812,-1.3748364724416056
perc,resp,690,1,2.2.2left.bmp,2.2.2right.bmp,,ACC035,"[0, 0, 0]","[0, 0, 0]",[],match,1.0,,0.11092771417892114,0.37933479433969325,-0.9985696414391074,3rd,3rd,1st,0.31888106015889,0.22351489267456812,-1.3748364724416056
perc,resp,884,1,3.3.1left.bmp,1.1.2right.bmp,,ACC035,"[2, 2, -2]","[-2, -2, 0]",[],non-match,0.1339745962155613,1,1.365294080656508,0.8793483533588187,-1.0772538908784326,4th,4th,1st,1.2584034579676675,1.2716924955881312,-1.3748364724416056
perc,resp,893,1,3.2.1left.bmp,3.2.1right.bmp,,ACC035,"[2, 0, -2]","[2, 0, -2]",[],match,1.0,,-0.314781325837138,1.9765699106173218,-0.9019340663829092,2nd,4th,1st,-0.3270038374921277,1.2716924955881312,-1.3748364724416056
perc,resp,1019,1,2.3.2left.bmp,2.1.1right.bmp,,ACC035,"[0, 2, 0]","[0, -2, -2]",[],non-match,0.3545027756320971,2,-0.6286989120667621,-0.4756094194348187,-0.6999693675888037,2nd,2nd,2nd,-0.3270038374921277,-0.34250764781083054,-0.3064364958611756
perc,resp,2036,1,2.2.1left.bmp,2.2.1right.bmp,,ACC035,"[0, 0, -2]","[0, 0, -2]",[],match,1.0,,-0.45160700271962345,-0.8256255398653873,-0.7633612510822726,2nd,1st,2nd,-0.3270038374921277,-1.1545026609842377,-0.3064364958611756
perc,resp,1408,1,1.3.1left.bmp,1.2.3right.bmp,,ACC035,"[-2, 2, -2]","[-2, 0, 2]",[],non-match,0.3545027756320971,2,-1.2106697424349635,-0.3112041767375518,-0.6771962880163721,1st,2nd,2nd,-1.2504037530182666,-0.34250764781083054,-0.3064364958611756
perc,resp,1090,1,1.3.2left.bmp,2.1.2right.bmp,,ACC035,"[-2, 2, 0]","[0, -2, 0]",[],non-match,0.3545027756320971,2,0.16151179819793085,-1.0143641967409034,-0.7834668821244084,3rd,1st,2nd,0.31888106015889,-1.1545026609842377,-0.3064364958611756
perc,resp,1236,1,1.1.3left.bmp,3.2.3right.bmp,,ACC035,"[-2, -2, 2]","[2, 0, 2]",[],non-match,0.3545027756320971,2,0.825120316366895,-0.9060657449648338,-0.5298462180088952,4th,1st,2nd,1.2584034579676675,-1.1545026609842377,-0.3064364958611756
perc,resp,861,1,1.1.1left.bmp,1.1.1right.bmp,,ACC035,"[-2, -2, -2]","[-2, -2, -2]",[],match,1.0,,0.4479192607813159,0.14076306100822125,-0.3981152512225315,3rd,3rd,2nd,0.31888106015889,0.22351489267456812,-0.3064364958611756
perc,resp,928,1,3.3.2left.bmp,3.3.2right.bmp,,ACC035,"[2, 2, 0]","[2, 2, 0]",[],match,1.0,,-0.11704762445095726,-0.0946831551636955,-0.3817474680239618,2nd,3rd,2nd,-0.3270038374921277,0.22351489267456812,-0.3064364958611756
perc,resp,858,1,3.1.2left.bmp,1.3.3right.bmp,,ACC035,"[2, -2, 0]","[-2, 2, 2]",[],non-match,0.1339745962155613,1,1.156410659690183,-0.5349818799611511,-0.5495147669648169,4th,2nd,2nd,1.2584034579676675,-0.34250764781083054,-0.3064364958611756
perc,resp,2049,1,3.2.2left.bmp,3.3.3right.bmp,,ACC035,"[2, 0, 0]","[2, 2, 2]",[],non-match,0.5917517095361369,3,0.853753544653295,0.15112698299762983,-0.45166139978563147,4th,3rd,2nd,1.2584034579676675,0.22351489267456812,-0.3064364958611756
perc,resp,1533,1,3.2.3left.bmp,3.2.3right.bmp,,ACC035,"[2, 0, 2]","[2, 0, 2]",[],match,1.0,,-0.21595249524711893,-1.2475464397086062,-0.5290820433288097,2nd,1st,2nd,-0.3270038374921277,-1.1545026609842377,-0.3064364958611756
perc,resp,920,1,1.2.2left.bmp,1.2.2right.bmp,,ACC035,"[-2, 0, 0]","[-2, 0, 0]",[],match,1.0,,0.389943766903536,0.15433634431442889,-0.6653483011440495,3rd,3rd,2nd,0.31888106015889,0.22351489267456812,-0.3064364958611756
perc,resp,1421,1,2.1.2left.bmp,2.1.2right.bmp,,ACC035,"[0, -2, 0]","[0, -2, 0]",[],match,1.0,,-2.3290162129809318,-1.6546847324563831,-0.7136722807566541,1st,1st,2nd,-1.2504037530182666,-1.1545026609842377,-0.3064364958611756
perc,resp,1058,1,2.3.1left.bmp,1.2.3right.bmp,,ACC035,"[0, 2, -2]","[-2, 0, 2]",[],non-match,0.29289321881345254,1,2.164412639911751,0.452973308061408,-0.5739319275943221,4th,3rd,2nd,1.2584034579676675,0.22351489267456812,-0.3064364958611756
perc,resp,1054,1,1.3.3left.bmp,3.3.2right.bmp,,ACC035,"[-2, 2, 2]","[2, 2, 0]",[],non-match,0.3545027756320971,2,1.3389854168649438,-0.6988405371685821,-0.22288743825376103,4th,1st,2nd,1.2584034579676675,-1.1545026609842377,-0.3064364958611756
perc,resp,2515,0,3.1.1left.bmp,3.2.1right.bmp,,ACC035,"[2, -2, -2]","[2, 0, -2]",[],non-match,0.7113248654051871,4,-0.10365639940189529,-0.14610616415111038,-0.3129065901557317,2nd,2nd,2nd,-0.3270038374921277,-0.34250764781083054,-0.3064364958611756
perc,resp,901,1,1.2.1left.bmp,1.2.1right.bmp,,ACC035,"[-2, 0, -2]","[-2, 0, -2]",[],match,1.0,,-0.4998584798189996,-0.8027517076978741,-0.2720811348006483,2nd,1st,2nd,-0.3270038374921277,-1.1545026609842377,-0.3064364958611756
perc,resp,838,1,3.1.3left.bmp,2.3.1right.bmp,,ACC035,"[2, -2, 2]","[0, 2, -2]",[],non-match,0.1339745962155613,1,0.9250615279465252,0.9149839297738578,0.2737827594305166,4th,4th,3rd,1.2584034579676675,1.2716924955881312,0.5475558200059646
perc,resp,2758,1,2.1.1left.bmp,2.1.1right.bmp,,ACC035,"[0, -2, -2]","[0, -2, -2]",[],match,1.0,,-2.567196758055126,-1.5157387002469287,0.3370042021153171,1st,1st,3rd,-1.2504037530182666,-1.1545026609842377,0.5475558200059646
perc,resp,959,1,1.2.3left.bmp,1.2.3right.bmp,,ACC035,"[-2, 0, 2]","[-2, 0, 2]",[],match,1.0,,-1.0796619496737925,-0.03994094298153728,0.37123648541663556,1st,3rd,3rd,-1.2504037530182666,0.22351489267456812,0.5475558200059646
perc,resp,1447,1,2.3.3left.bmp,2.3.3right.bmp,,ACC035,"[0, 2, 2]","[0, 2, 2]",[],match,1.0,,-1.177141183113365,-0.6942056442200139,0.45041447519959227,1st,1st,3rd,-1.2504037530182666,-1.1545026609842377,0.5475558200059646
perc,resp,1248,1,1.2.1left.bmp,1.1.3right.bmp,,ACC035,"[-2, 0, -2]","[-2, -2, 2]",[],non-match,0.3545027756320971,2,1.0665987915780688,-1.0488342488909377,0.5619351631287568,4th,1st,3rd,1.2584034579676675,-1.1545026609842377,0.5475558200059646
perc,resp,1580,1,1.2.3left.bmp,1.2.3right.bmp,,ACC035,"[-2, 0, 2]","[-2, 0, 2]",[],match,1.0,,-0.5645900857698779,-0.3324536640774127,0.7105331377376408,2nd,2nd,3rd,-0.3270038374921277,-0.34250764781083054,0.5475558200059646
perc,resp,1251,1,2.3.1left.bmp,2.3.1right.bmp,,ACC035,"[0, 2, -2]","[0, 2, -2]",[],match,1.0,,0.24509478228509698,-0.5060784464970065,0.6796511676644088,3rd,2nd,3rd,0.31888106015889,-0.34250764781083054,0.5475558200059646
perc,resp,1782,1,2.1.3left.bmp,2.1.3right.bmp,,ACC035,"[0, -2, 2]","[0, -2, 2]",[],match,1.0,,-1.2079441080035274,-1.3469175546822993,0.8402320548415794,1st,1st,4th,-1.2504037530182666,-1.1545026609842377,1.1373704713899193
perc,resp,1989,1,3.1.1left.bmp,3.1.1right.bmp,,ACC035,"[2, -2, -2]","[2, -2, -2]",[],match,1.0,,-0.5083226020667054,0.09009766541288676,0.9644247918423505,2nd,3rd,4th,-0.3270038374921277,0.22351489267456812,1.1373704713899193
perc,resp,1124,1,1.3.1left.bmp,3.2.3right.bmp,,ACC035,"[-2, 2, -2]","[2, 0, 2]",[],non-match,0.1339745962155613,1,0.6235995583997829,1.3766924712420785,0.9013096920466631,3rd,4th,4th,0.31888106015889,1.2716924955881312,1.1373704713899193
perc,resp,1183,1,2.2.3left.bmp,2.2.3right.bmp,,ACC035,"[0, 0, 2]","[0, 0, 2]",[],match,1.0,,0.09211053491084857,-0.7927055791922374,1.1734811061557444,3rd,1st,4th,0.31888106015889,-1.1545026609842377,1.1373704713899193
perc,resp,1222,1,1.3.2left.bmp,2.2.1right.bmp,,ACC035,"[-2, 2, 0]","[0, 0, -2]",[],non-match,0.5,3,2.1548042497811917,0.5376657389629775,1.0915113346537648,4th,4th,4th,1.2584034579676675,1.2716924955881312,1.1373704713899193
perc,resp,1203,1,3.1.2left.bmp,2.3.1right.bmp,,ACC035,"[2, -2, 0]","[0, 2, -2]",[],non-match,0.29289321881345254,1,1.592142701277116,0.18320256062388332,1.2327082158819505,4th,3rd,4th,1.2584034579676675,0.22351489267456812,1.1373704713899193
perc,resp,848,1,1.3.3left.bmp,1.3.3right.bmp,,ACC035,"[-2, 2, 2]","[-2, 2, 2]",[],match,1.0,,-1.0221468976866868,-0.9448462614305302,1.2864035400469847,1st,1st,4th,-1.2504037530182666,-1.1545026609842377,1.1373704713899193
perc,resp,2134,1,3.1.3left.bmp,3.1.3right.bmp,,ACC035,"[2, -2, 2]","[2, -2, 2]",[],match,1.0,,-1.8654454121642319,-0.8799548648127695,1.346994649600312,1st,1st,4th,-1.2504037530182666,-1.1545026609842377,1.1373704713899193
perc,resp,832,1,3.3.2left.bmp,3.3.2right.bmp,,ACC035,"[2, 2, 0]","[2, 2, 0]",[],match,1.0,,-1.0636041765249973,-0.18468105131317616,1.3099751410028428,1st,2nd,4th,-1.2504037530182666,-0.34250764781083054,1.1373704713899193
perc,resp,969,0,2.2.2left.bmp,3.2.2right.bmp,,ACC035,"[0, 0, 0]","[2, 0, 0]",[],non-match,0.7113248654051871,4,0.05097075519229449,2.088314146137757,1.3056909907624683,3rd,4th,4th,0.31888106015889,1.2716924955881312,1.1373704713899193
perc,resp,915,0,1.1.3left.bmp,1.1.2right.bmp,,ACC035,"[-2, -2, 2]","[-2, -2, 0]",[],non-match,0.7113248654051871,4,-0.04351748174521606,0.462419468286446,1.2724139026161683,2nd,3rd,4th,-0.3270038374921277,0.22351489267456812,1.1373704713899193
perc,resp,904,1,3.3.1left.bmp,1.3.1right.bmp,,ACC035,"[2, 2, -2]","[-2, 2, -2]",[],non-match,0.42264973081037416,2,1.256430462624282,-0.12944421892281338,0.9757765673334902,4th,2nd,4th,1.2584034579676675,-0.34250764781083054,1.1373704713899193
perc,resp,1363,1,3.2.1left.bmp,3.2.1right.bmp,,ACC035,"[2, 0, -2]","[2, 0, -2]",[],match,1.0,,-1.2333930030299143,0.27893334626460975,1.0949881926722347,1st,3rd,4th,-1.2504037530182666,0.22351489267456812,1.1373704713899193
perc,resp,940,1,2.2.1left.bmp,1.2.3right.bmp,,ACC035,"[0, 0, -2]","[-2, 0, 2]",[],non-match,0.3545027756320971,2,0.7742977961937992,-1.1549338273237333,1.1166628051211611,4th,1st,4th,1.2584034579676675,-1.1545026609842377,1.1373704713899193
perc,resp,1079,0,1.1.1left.bmp,1.1.1right.bmp,,ACC035,"[-2, -2, -2]","[-2, -2, -2]",[],match,1.0,,0.6680107460520426,0.5105106672957629,0.8751750749986345,3rd,3rd,4th,0.31888106015889,0.22351489267456812,1.1373704713899193
perc,resp,794,0,2.3.3left.bmp,1.2.2right.bmp,,ACC035,"[0, 2, 2]","[-2, 0, 0]",[],non-match,0.5,3,-0.14507254128294583,-0.33684347874476905,0.8346653541317728,2nd,2nd,4th,-0.3270038374921277,-0.34250764781083054,1.1373704713899193
perc,resp,912,1,3.3.3left.bmp,2.2.3right.bmp,,ACC035,"[2, 2, 2]","[0, 0, 2]",[],non-match,0.5917517095361369,3,0.7110539637228669,0.6071545700964657,1.187842074172913,4th,4th,4th,1.2584034579676675,1.2716924955881312,1.1373704713899193
perc,resp,1493,1,1.1.2left.bmp,1.1.2right.bmp,,ACC035,"[-2, -2, 0]","[-2, -2, 0]",[],match,1.0,,-0.583644660642136,-0.11991240495440302,1.2436451190494155,2nd,2nd,4th,-0.3270038374921277,-0.34250764781083054,1.1373704713899193
perc,resp,918,1,3.2.2left.bmp,3.2.2right.bmp,,ACC035,"[2, 0, 0]","[2, 0, 0]",[],match,1.0,,-0.1212487495178383,-0.17029761629765128,1.2074007469753911,2nd,2nd,4th,-0.3270038374921277,-0.34250764781083054,1.1373704713899193
perc,resp,789,1,1.2.2left.bmp,1.2.2right.bmp,,ACC035,"[-2, 0, 0]","[-2, 0, 0]",[],match,1.0,,-1.4517991523539595,-0.07754456494939352,1.059915467481745,1st,3rd,4th,-1.2504037530182666,0.22351489267456812,1.1373704713899193
perc,resp,1370,1,2.1.2left.bmp,2.1.2right.bmp,,ACC035,"[0, -2, 0]","[0, -2, 0]",[],match,1.0,,-0.8169163676824616,-1.7945298575333253,1.099782258774644,1st,1st,4th,-1.2504037530182666,-1.1545026609842377,1.1373704713899193
perc,resp,946,1,2.3.2left.bmp,1.1.1right.bmp,,ACC035,"[0, 2, 0]","[-2, -2, -2]",[],non-match,0.29289321881345254,1,1.770622036742019,0.47695623556651406,1.30321265544778,4th,3rd,4th,1.2584034579676675,0.22351489267456812,1.1373704713899193
perc,resp,1324,1,3.2.3left.bmp,3.2.3right.bmp,,ACC035,"[2, 0, 2]","[2, 0, 2]",[],match,1.0,,0.131453334275279,1.0098631845024844,1.6731487347526537,3rd,4th,4th,0.31888106015889,1.2716924955881312,1.1373704713899193
perc,resp,1575,1,3.3.3left.bmp,3.3.3right.bmp,,ACC035,"[2, 2, 2]","[2, 2, 2]",[],match,1.0,,-0.4372741109498775,-0.1830507951708406,1.6174200174511417,2nd,2nd,4th,-0.3270038374921277,-0.34250764781083054,1.1373704713899193
perc,resp,763,1,3.1.2left.bmp,1.3.2right.bmp,,ACC035,"[2, -2, 0]","[-2, 2, 0]",[],non-match,0.18350341907227385,1,2.2804160061210994,-0.6345254635726867,1.672230487562086,4th,2nd,4th,1.2584034579676675,-0.34250764781083054,1.1373704713899193
perc,resp,867,1,3.1.1left.bmp,2.3.2right.bmp,,ACC035,"[2, -2, -2]","[0, 2, 0]",[],non-match,0.29289321881345254,1,0.5498680307304176,0.1696310869038027,1.443960794885185,3rd,3rd,4th,0.31888106015889,0.22351489267456812,1.1373704713899193
perc,resp,784,1,1.2.3left.bmp,2.2.1right.bmp,,ACC035,"[-2, 0, 2]","[0, 0, -2]",[],non-match,0.3545027756320971,2,-0.2411860827999917,-0.3663074013521619,1.3831914991699938,2nd,2nd,4th,-0.3270038374921277,-0.34250764781083054,1.1373704713899193
perc,resp,758,1,2.2.3left.bmp,1.1.3right.bmp,,ACC035,"[0, 0, 2]","[-2, -2, 2]",[],non-match,0.5917517095361369,3,-0.5841378100735537,-0.8310606016398023,1.287638846981597,2nd,1st,4th,-0.3270038374921277,-1.1545026609842377,1.1373704713899193
perc,resp,1691,0,2.1.3left.bmp,2.1.3right.bmp,,ACC035,"[0, -2, 2]","[0, -2, 2]",[],match,1.0,,-1.2220096878503492,-0.5802466260782639,1.3390636354369656,1st,2nd,4th,-1.2504037530182666,-0.34250764781083054,1.1373704713899193
perc,resp,1081,1,2.2.2left.bmp,3.3.2right.bmp,,ACC035,"[0, 0, 0]","[2, 2, 0]",[],non-match,0.5917517095361369,3,1.368380697979089,0.874309741745188,1.2962549255863818,4th,4th,4th,1.2584034579676675,1.2716924955881312,1.1373704713899193
perc,resp,1299,1,3.2.2left.bmp,3.2.2right.bmp,,ACC035,"[2, 0, 0]","[2, 0, 0]",[],match,1.0,,-0.39752279108448,0.22669258530614178,1.1865246697091116,2nd,3rd,4th,-0.3270038374921277,0.22351489267456812,1.1373704713899193
perc,resp,1530,0,1.1.1left.bmp,2.1.2right.bmp,,ACC035,"[-2, -2, -2]","[0, -2, 0]",[],non-match,0.5917517095361369,3,-0.8999176806738262,0.4083480696817812,1.1383409688879063,1st,3rd,4th,-1.2504037530182666,0.22351489267456812,1.1373704713899193
perc,resp,1533,1,1.2.2left.bmp,1.2.2right.bmp,,ACC035,"[-2, 0, 0]","[-2, 0, 0]",[],match,1.0,,-0.8039663183894642,-0.7074803458151709,0.9494401849986758,1st,1st,4th,-1.2504037530182666,-1.1545026609842377,1.1373704713899193
perc,resp,1757,1,3.2.3left.bmp,3.3.3right.bmp,,ACC035,"[2, 0, 2]","[2, 2, 2]",[],non-match,0.7113248654051871,4,1.3128446465008767,-0.1687729796656284,0.7449312644435798,4th,2nd,3rd,1.2584034579676675,-0.34250764781083054,0.5475558200059646
perc,resp,1608,1,2.3.2left.bmp,2.3.2right.bmp,,ACC035,"[0, 2, 0]","[0, 2, 0]",[],match,1.0,,-1.2927161349816711,-1.0216068239383886,0.638495568560173,1st,1st,3rd,-1.2504037530182666,-1.1545026609842377,0.5475558200059646
perc,resp,978,1,3.3.1left.bmp,2.2.2right.bmp,,ACC035,"[2, 2, -2]","[0, 0, 0]",[],non-match,0.5,3,2.0671576516602825,0.8544846399658826,0.4767851569339898,4th,4th,3rd,1.2584034579676675,1.2716924955881312,0.5475558200059646
perc,resp,977,1,2.1.1left.bmp,2.1.1right.bmp,,ACC035,"[0, -2, -2]","[0, -2, -2]",[],match,1.0,,1.2054812661260779,-0.17207475051400953,0.5760186655028584,4th,2nd,3rd,1.2584034579676675,-0.34250764781083054,0.5475558200059646
perc,resp,801,0,3.1.3left.bmp,1.3.3right.bmp,,ACC035,"[2, -2, 2]","[-2, 2, 2]",[],non-match,0.18350341907227385,1,0.42450017598862444,1.762734737093555,0.6990405828691876,3rd,4th,3rd,0.31888106015889,1.2716924955881312,0.5475558200059646
perc,resp,1188,1,1.2.3left.bmp,3.2.3right.bmp,,ACC035,"[-2, 0, 2]","[2, 0, 2]",[],non-match,0.42264973081037416,2,0.6572418785790468,0.9135822243594355,0.709040305670568,3rd,4th,3rd,0.31888106015889,1.2716924955881312,0.5475558200059646
perc,resp,785,0,2.3.1left.bmp,3.3.2right.bmp,,ACC035,"[0, 2, -2]","[2, 2, 0]",[],non-match,0.5917517095361369,3,-1.5037766150704015,-1.031445121477273,0.8055568640412805,1st,1st,4th,-1.2504037530182666,-1.1545026609842377,1.1373704713899193
perc,resp,882,1,1.1.1left.bmp,1.3.1right.bmp,,ACC035,"[-2, -2, -2]","[-2, 2, -2]",[],non-match,0.42264973081037416,2,0.7545258335345489,1.7426506232198549,0.7775781164520916,4th,4th,3rd,1.2584034579676675,1.2716924955881312,0.5475558200059646
perc,resp,866,1,2.3.3left.bmp,2.3.3right.bmp,,ACC035,"[0, 2, 2]","[0, 2, 2]",[],match,1.0,,0.03461608903084083,0.5446392203837541,0.5262739978511388,3rd,4th,3rd,0.31888106015889,1.2716924955881312,0.5475558200059646
perc,resp,875,1,3.1.2left.bmp,3.1.2right.bmp,,ACC035,"[2, -2, 0]","[2, -2, 0]",[],match,1.0,,0.38785397503547353,-0.8264035714209398,0.5323683074325327,3rd,1st,3rd,0.31888106015889,-1.1545026609842377,0.5475558200059646
perc,resp,1052,1,2.2.3left.bmp,1.1.3right.bmp,,ACC035,"[0, 0, 2]","[-2, -2, 2]",[],non-match,0.5917517095361369,3,1.2450323664239422,0.9110483815440615,0.39635874064811877,4th,4th,3rd,1.2584034579676675,1.2716924955881312,0.5475558200059646
perc,resp,2115,1,3.1.1left.bmp,3.1.1right.bmp,,ACC035,"[2, -2, -2]","[2, -2, -2]",[],match,1.0,,-2.9265091239083434,-0.46019578703686265,0.2555520574740176,1st,2nd,3rd,-1.2504037530182666,-0.34250764781083054,0.5475558200059646
perc,resp,1718,1,1.2.1left.bmp,1.2.1right.bmp,,ACC035,"[-2, 0, -2]","[-2, 0, -2]",[],match,1.0,,0.33879303836534014,0.5126544236615681,0.40134076411696934,3rd,3rd,3rd,0.31888106015889,0.22351489267456812,0.5475558200059646
perc,resp,1006,1,1.3.2left.bmp,1.1.1right.bmp,,ACC035,"[-2, 2, 0]","[-2, -2, -2]",[],non-match,0.3545027756320971,2,1.2158199355534556,1.5554638975671202,0.3992989628759245,4th,4th,3rd,1.2584034579676675,1.2716924955881312,0.5475558200059646
perc,resp,1115,1,3.2.1left.bmp,3.2.1right.bmp,,ACC035,"[2, 0, -2]","[2, 0, -2]",[],match,1.0,,0.7375795669178249,1.617982926771624,0.33630185240870786,4th,4th,3rd,1.2584034579676675,1.2716924955881312,0.5475558200059646
perc,resp,1001,1,3.1.3left.bmp,3.1.3right.bmp,,ACC035,"[2, -2, 2]","[2, -2, 2]",[],match,1.0,,-1.957799678348998,-1.0845986678382604,0.1945175560907671,1st,1st,3rd,-1.2504037530182666,-1.1545026609842377,0.5475558200059646
perc,resp,918,1,2.1.3left.bmp,2.1.3right.bmp,,ACC035,"[0, -2, 2]","[0, -2, 2]",[],match,1.0,,-0.03900940119940457,-0.6857155788254822,0.17528167299584269,2nd,1st,2nd,-0.3270038374921277,-1.1545026609842377,-0.3064364958611756
perc,resp,743,1,1.1.3left.bmp,1.1.3right.bmp,,ACC035,"[-2, -2, 2]","[-2, -2, 2]",[],match,1.0,,0.19871619888635333,-0.7317641471737562,0.23256720468730677,3rd,1st,3rd,0.31888106015889,-1.1545026609842377,0.5475558200059646
perc,resp,789,0,3.2.3left.bmp,3.2.2right.bmp,,ACC035,"[2, 0, 2]","[2, 0, 0]",[],non-match,0.7113248654051871,4,-0.1356435669508955,-1.081352541763303,0.32051158976019795,2nd,1st,3rd,-0.3270038374921277,-1.1545026609842377,0.5475558200059646
perc,resp,1088,1,2.3.2left.bmp,3.2.1right.bmp,,ACC035,"[0, 2, 0]","[2, 0, -2]",[],non-match,0.5,3,2.2730414414869418,1.2576001096529181,0.46290854687964234,4th,4th,3rd,1.2584034579676675,1.2716924955881312,0.5475558200059646
perc,resp,955,1,1.3.3left.bmp,1.3.3right.bmp,,ACC035,"[-2, 2, 2]","[-2, 2, 2]",[],match,1.0,,-1.3610128111327215,-0.8878543717745658,0.47000667148090447,1st,1st,3rd,-1.2504037530182666,-1.1545026609842377,0.5475558200059646
perc,resp,1254,1,1.1.2left.bmp,1.1.2right.bmp,,ACC035,"[-2, -2, 0]","[-2, -2, 0]",[],match,1.0,,-0.7454789180463065,-1.372613541974963,0.3615665173770645,1st,1st,3rd,-1.2504037530182666,-1.1545026609842377,0.5475558200059646
perc,resp,1667,1,1.2.2left.bmp,2.2.2right.bmp,,ACC035,"[-2, 0, 0]","[0, 0, 0]",[],non-match,0.7113248654051871,4,0.5344192624965459,0.2721125335934635,0.07996465518356435,3rd,3rd,2nd,0.31888106015889,0.22351489267456812,-0.3064364958611756
perc,resp,1064,0,2.1.2left.bmp,3.1.2right.bmp,,ACC035,"[0, -2, 0]","[2, -2, 0]",[],non-match,0.7113248654051871,4,-0.5852781969176937,-0.2401078902469352,-0.12816352858859992,2nd,2nd,2nd,-0.3270038374921277,-0.34250764781083054,-0.3064364958611756
perc,resp,1305,1,3.2.2left.bmp,2.1.3right.bmp,,ACC035,"[2, 0, 0]","[0, -2, 2]",[],non-match,0.5,3,0.5295859119058889,-0.66080578130583,-0.1912986553234066,3rd,1st,2nd,0.31888106015889,-1.1545026609842377,-0.3064364958611756
perc,resp,1274,1,3.3.1left.bmp,3.1.3right.bmp,,ACC035,"[2, 2, -2]","[2, -2, 2]",[],non-match,0.18350341907227385,1,-0.0536173017219382,0.22424331048246388,-0.28875547411588476,2nd,3rd,2nd,-0.3270038374921277,0.22351489267456812,-0.3064364958611756
perc,resp,1677,1,2.1.1left.bmp,2.1.1right.bmp,,ACC035,"[0, -2, -2]","[0, -2, -2]",[],match,1.0,,-1.748286053179218,-1.087554506138586,-0.4144552265651643,1st,1st,2nd,-1.2504037530182666,-1.1545026609842377,-0.3064364958611756
perc,resp,1229,1,3.3.3left.bmp,3.1.1right.bmp,,ACC035,"[2, 2, 2]","[2, -2, -2]",[],non-match,0.18350341907227385,1,0.5172096147206677,-0.923743742643998,-0.2856562052049138,3rd,1st,2nd,0.31888106015889,-1.1545026609842377,-0.3064364958611756
perc,resp,1378,0,2.2.1left.bmp,2.2.1right.bmp,,ACC035,"[0, 0, -2]","[0, 0, -2]",[],match,1.0,,-0.5766219025860015,0.4544438380682164,-0.36878718416065004,2nd,3rd,2nd,-0.3270038374921277,0.22351489267456812,-0.3064364958611756
perc,resp,1067,1,1.3.1left.bmp,1.3.1right.bmp,,ACC035,"[-2, 2, -2]","[-2, 2, -2]",[],match,1.0,,0.19527201004833694,-1.666378534370834,-0.3697242694097482,3rd,1st,2nd,0.31888106015889,-1.1545026609842377,-0.3064364958611756
perc,resp,1922,1,2.2.2left.bmp,2.3.1right.bmp,,ACC035,"[0, 0, 0]","[0, 2, -2]",[],non-match,0.5917517095361369,3,1.1042511045178005,0.9849918105282738,-0.46844173368933967,4th,4th,2nd,1.2584034579676675,1.2716924955881312,-0.3064364958611756
perc,resp,1281,1,3.3.2left.bmp,2.1.3right.bmp,,ACC035,"[2, 2, 0]","[0, -2, 2]",[],non-match,0.29289321881345254,1,1.019531951694203,0.478946840626389,-0.3364855332089877,4th,3rd,2nd,1.2584034579676675,0.22351489267456812,-0.3064364958611756
perc,resp,1352,1,2.2.3left.bmp,1.1.2right.bmp,,ACC035,"[0, 0, 2]","[-2, -2, 0]",[],non-match,0.5,3,0.3255750888027585,0.29203734356839844,-0.3429430773755242,3rd,3rd,2nd,0.31888106015889,0.22351489267456812,-0.3064364958611756
perc,resp,1231,1,1.1.1left.bmp,2.3.3right.bmp,,ACC035,"[-2, -2, -2]","[0, 2, 2]",[],non-match,0.1339745962155613,1,0.44854742857444674,-0.29758022501977166,-0.1703813586681237,3rd,2nd,2nd,0.31888106015889,-0.34250764781083054,-0.3064364958611756
perc,resp,1774,1,3.1.3left.bmp,2.2.1right.bmp,,ACC035,"[2, -2, 2]","[0, 0, -2]",[],non-match,0.29289321881345254,1,-2.0412027101818677,-1.5589393721073874,-0.16304584895332608,1st,1st,2nd,-1.2504037530182666,-1.1545026609842377,-0.3064364958611756
perc,resp,933,0,2.2.2left.bmp,1.2.1right.bmp,,ACC035,"[0, 0, 0]","[-2, 0, -2]",[],non-match,0.5917517095361369,3,0.763173141397798,1.5611338134611252,-0.1191476163233332,4th,4th,2nd,1.2584034579676675,1.2716924955881312,-0.3064364958611756
perc,resp,1625,1,2.1.1left.bmp,2.1.1right.bmp,,ACC035,"[0, -2, -2]","[0, -2, -2]",[],match,1.0,,-0.8213517843167677,-1.5272343524804095,-0.13185327008239636,1st,1st,2nd,-1.2504037530182666,-1.1545026609842377,-0.3064364958611756
perc,resp,1575,1,1.2.3left.bmp,2.1.3right.bmp,,ACC035,"[-2, 0, 2]","[0, -2, 2]",[],non-match,0.5917517095361369,3,-0.017216682779676546,0.47265352231143226,0.09477700967748784,2nd,3rd,2nd,-0.3270038374921277,0.22351489267456812,-0.3064364958611756
perc,resp,1990,1,2.2.1left.bmp,3.1.3right.bmp,,ACC035,"[0, 0, -2]","[2, -2, 2]",[],non-match,0.29289321881345254,1,-1.0051948849387398,-0.43284727061260975,-0.17260942924328118,1st,2nd,2nd,-1.2504037530182666,-0.34250764781083054,-0.3064364958611756
perc,resp,2612,0,1.1.3left.bmp,2.2.3right.bmp,,ACC035,"[-2, -2, 2]","[0, 0, 2]",[],non-match,0.5917517095361369,3,-1.548459743350657,-0.1605076950279108,-0.3998817836981356,1st,2nd,2nd,-1.2504037530182666,-0.34250764781083054,-0.3064364958611756
perc,resp,1312,1,3.3.1left.bmp,3.1.1right.bmp,,ACC035,"[2, 2, -2]","[2, -2, -2]",[],non-match,0.42264973081037416,2,0.6597222631939919,0.8836020871493812,-0.7515946511117638,3rd,4th,2nd,0.31888106015889,1.2716924955881312,-0.3064364958611756
perc,resp,1465,1,3.1.2left.bmp,3.2.2right.bmp,,ACC035,"[2, -2, 0]","[2, 0, 0]",[],non-match,0.7113248654051871,4,-0.9346184272449347,-1.2768453883807018,-0.7920798479286277,1st,1st,1st,-1.2504037530182666,-1.1545026609842377,-1.3748364724416056
perc,resp,1406,0,2.1.2left.bmp,2.1.2right.bmp,,ACC035,"[0, -2, 0]","[0, -2, 0]",[],match,1.0,,0.35415132310364084,-0.603646504933064,-0.9984674990086028,3rd,2nd,1st,0.31888106015889,-0.34250764781083054,-1.3748364724416056
perc,resp,1024,1,2.3.2left.bmp,2.3.2right.bmp,,ACC035,"[0, 2, 0]","[0, 2, 0]",[],match,1.0,,-0.7367138304969126,0.45607415453009015,-1.0400441384659633,1st,3rd,1st,-1.2504037530182666,0.22351489267456812,-1.3748364724416056
perc,resp,1000,1,1.3.3left.bmp,1.3.3right.bmp,,ACC035,"[-2, 2, 2]","[-2, 2, 2]",[],match,1.0,,-1.252149039008171,-0.16604937158500924,-1.2398358789041872,1st,2nd,1st,-1.2504037530182666,-0.34250764781083054,-1.3748364724416056
perc,resp,1903,1,3.2.3left.bmp,3.2.3right.bmp,,ACC035,"[2, 0, 2]","[2, 0, 2]",[],match,1.0,,-0.7215367059991119,0.2880858709806795,-1.4102113941755166,1st,3rd,1st,-1.2504037530182666,0.22351489267456812,-1.3748364724416056
perc,resp,2019,1,3.2.2left.bmp,3.3.3right.bmp,,ACC035,"[2, 0, 0]","[2, 2, 2]",[],non-match,0.5917517095361369,3,0.47400897910521933,0.14543547270916876,-1.6470347764918831,3rd,3rd,1st,0.31888106015889,0.22351489267456812,-1.3748364724416056
perc,resp,906,1,3.1.1left.bmp,1.2.3right.bmp,,ACC035,"[2, -2, -2]","[-2, 0, 2]",[],non-match,0.1339745962155613,1,1.100049271094773,-1.2824387587815111,-1.540343688076221,4th,1st,1st,1.2584034579676675,-1.1545026609842377,-1.3748364724416056
perc,resp,1569,1,2.3.3left.bmp,2.3.3right.bmp,,ACC035,"[0, 2, 2]","[0, 2, 2]",[],match,1.0,,-0.7569839154317479,-1.2076204853839212,-1.6097438914183047,1st,1st,1st,-1.2504037530182666,-1.1545026609842377,-1.3748364724416056
perc,resp,1630,1,1.2.2left.bmp,1.1.3right.bmp,,ACC035,"[-2, 0, 0]","[-2, -2, 2]",[],non-match,0.5917517095361369,3,0.11907567955289902,-0.1589303391200378,-1.6341338401969774,3rd,2nd,1st,0.31888106015889,-0.34250764781083054,-1.3748364724416056
perc,resp,1562,1,3.3.3left.bmp,2.1.1right.bmp,,ACC035,"[2, 2, 2]","[0, -2, -2]",[],non-match,0.1339745962155613,1,0.6007712515883056,-0.2706232427139895,-1.502259191425656,3rd,2nd,1st,0.31888106015889,-0.34250764781083054,-1.3748364724416056
perc,resp,1033,1,1.2.1left.bmp,3.2.3right.bmp,,ACC035,"[-2, 0, -2]","[2, 0, 2]",[],non-match,0.18350341907227385,1,-0.5508680326935226,-2.17029271849248,-1.458725406334225,2nd,1st,1st,-0.3270038374921277,-1.1545026609842377,-1.3748364724416056
perc,resp,1078,1,1.3.2left.bmp,1.3.2right.bmp,,ACC035,"[-2, 2, 0]","[-2, 2, 0]",[],match,1.0,,-0.4106767392632146,-0.6469635331815264,-1.4289574294857585,2nd,1st,1st,-0.3270038374921277,-1.1545026609842377,-1.3748364724416056
perc,resp,1671,1,3.2.1left.bmp,3.2.1right.bmp,,ACC035,"[2, 0, -2]","[2, 0, -2]",[],match,1.0,,-0.2718955646861511,-0.6721367159620476,-1.279368660008635,2nd,1st,1st,-0.3270038374921277,-1.1545026609842377,-1.3748364724416056
perc,resp,1400,1,1.1.2left.bmp,2.1.2right.bmp,,ACC035,"[-2, -2, 0]","[0, -2, 0]",[],non-match,0.7113248654051871,4,-0.4443320478814097,-0.40030168314948705,-1.3815122409254572,2nd,2nd,1st,-0.3270038374921277,-0.34250764781083054,-1.3748364724416056
perc,resp,907,1,3.3.2left.bmp,1.3.3right.bmp,,ACC035,"[2, 2, 0]","[-2, 2, 2]",[],non-match,0.3545027756320971,2,1.1368723654299995,0.4906801970776121,-1.4575496278210494,4th,3rd,1st,1.2584034579676675,0.22351489267456812,-1.3748364724416056
perc,resp,1550,0,2.3.1left.bmp,2.3.1right.bmp,,ACC035,"[0, 2, -2]","[0, 2, -2]",[],match,1.0,,-0.9303414143483795,-0.36851290984457113,-1.3594360202629965,1st,2nd,1st,-1.2504037530182666,-0.34250764781083054,-1.3748364724416056
perc,resp,977,1,1.3.1left.bmp,1.3.1right.bmp,,ACC035,"[-2, 2, -2]","[-2, 2, -2]",[],match,1.0,,-0.8331979164606207,-1.3432935568641342,-1.420754706080568,1st,1st,1st,-1.2504037530182666,-1.1545026609842377,-1.3748364724416056
perc,resp,1204,1,2.1.3left.bmp,2.1.3right.bmp,,ACC035,"[0, -2, 2]","[0, -2, 2]",[],match,1.0,,0.07647679852950919,-0.04363925447000799,-1.3846611174185395,3rd,3rd,1st,0.31888106015889,0.22351489267456812,-1.3748364724416056
perc,resp,809,1,3.1.2left.bmp,1.2.3right.bmp,,ACC035,"[2, -2, 0]","[-2, 0, 2]",[],non-match,0.29289321881345254,1,0.7871628301757315,0.9363516434073872,-1.473937366690879,4th,4th,1st,1.2584034579676675,1.2716924955881312,-1.3748364724416056
perc,resp,1509,1,3.3.1left.bmp,3.2.2right.bmp,,ACC035,"[2, 2, -2]","[2, 0, 0]",[],non-match,0.5917517095361369,3,-0.6265556573042497,-0.11605491020624253,-1.6237709770664401,2nd,3rd,1st,-0.3270038374921277,0.22351489267456812,-1.3748364724416056
perc,resp,1209,1,2.3.3left.bmp,2.3.3right.bmp,,ACC035,"[0, 2, 2]","[0, 2, 2]",[],match,1.0,,-0.7822157351275731,-0.29665968855667235,-1.6496861349058156,1st,2nd,1st,-1.2504037530182666,-0.34250764781083054,-1.3748364724416056
perc,resp,786,1,2.2.3left.bmp,2.2.3right.bmp,,ACC035,"[0, 0, 2]","[0, 0, 2]",[],match,1.0,,-0.5218724062273431,1.806733255477664,-1.6476480799292694,2nd,4th,1st,-0.3270038374921277,1.2716924955881312,-1.3748364724416056
perc,resp,1247,1,2.2.2left.bmp,1.2.2right.bmp,,ACC035,"[0, 0, 0]","[-2, 0, 0]",[],non-match,0.7113248654051871,4,1.966367051735059,0.06903366065110289,-1.9165940414999614,4th,3rd,1st,1.2584034579676675,0.22351489267456812,-1.3748364724416056
perc,resp,1001,1,1.2.3left.bmp,1.2.3right.bmp,,ACC035,"[-2, 0, 2]","[-2, 0, 2]",[],match,1.0,,0.6830653147984286,-0.6784132956053246,-1.8716088727632985,4th,1st,1st,1.2584034579676675,-1.1545026609842377,-1.3748364724416056
perc,resp,1070,1,3.1.3left.bmp,3.3.1right.bmp,,ACC035,"[2, -2, 2]","[2, 2, -2]",[],non-match,0.18350341907227385,1,0.9052056263756493,-1.117901295657856,-1.9838215317618122,4th,1st,1st,1.2584034579676675,-1.1545026609842377,-1.3748364724416056
perc,resp,1491,0,3.1.1left.bmp,3.1.1right.bmp,,ACC035,"[2, -2, -2]","[2, -2, -2]",[],match,1.0,,0.09236359440720854,-0.3276962621480069,-1.8709300044379253,3rd,2nd,1st,0.31888106015889,-0.34250764781083054,-1.3748364724416056
perc,resp,1159,1,3.2.1left.bmp,2.3.2right.bmp,,ACC035,"[2, 0, -2]","[0, 2, 0]",[],non-match,0.5,3,0.8313796020665682,-0.4628810620513465,-1.9847387106905738,4th,2nd,1st,1.2584034579676675,-0.34250764781083054,-1.3748364724416056
perc,resp,1066,1,1.3.2left.bmp,1.3.2right.bmp,,ACC035,"[-2, 2, 0]","[-2, 2, 0]",[],match,1.0,,1.6761166659705464,1.0296346018933378,-1.914650621747218,4th,4th,1st,1.2584034579676675,1.2716924955881312,-1.3748364724416056
perc,resp,953,1,1.3.1left.bmp,1.3.1right.bmp,,ACC035,"[-2, 2, -2]","[-2, 2, -2]",[],match,1.0,,-0.24169789665550906,-1.437855651464133,-2.1234511949700785,2nd,1st,1st,-0.3270038374921277,-1.1545026609842377,-1.3748364724416056
perc,resp,783,1,1.2.2left.bmp,1.2.2right.bmp,,ACC035,"[-2, 0, 0]","[-2, 0, 0]",[],match,1.0,,0.7303405444897735,-0.5014050093639207,-2.6208249949333515,4th,2nd,1st,1.2584034579676675,-0.34250764781083054,-1.3748364724416056
perc,resp,972,1,3.2.3left.bmp,3.2.3right.bmp,,ACC035,"[2, 0, 2]","[2, 0, 2]",[],match,1.0,,1.8253450304920107,-0.42777566421191904,-2.801608356299047,4th,2nd,1st,1.2584034579676675,-0.34250764781083054,-1.3748364724416056
perc,resp,989,1,1.1.2left.bmp,2.3.2right.bmp,,ACC035,"[-2, -2, 0]","[0, 2, 0]",[],non-match,0.3545027756320971,2,1.2715559048268061,1.292870632226487,-3.011711072218816,4th,4th,1st,1.2584034579676675,1.2716924955881312,-1.3748364724416056
perc,resp,858,1,1.2.1left.bmp,1.3.3right.bmp,,ACC035,"[-2, 0, -2]","[-2, 2, 2]",[],non-match,0.3545027756320971,2,0.4159081845409291,0.0917985557337359,-2.713793747074926,3rd,3rd,1st,0.31888106015889,0.22351489267456812,-1.3748364724416056
