mode,type,rt,acc,item_1,item_2,item_cue,subj_idx,item_1_number,item_2_number,item_cue_number,trial_type,summed_similarity,similarity_bin,ams,pams,slps,ams_quantile,pams_quantile,slps_quantile,ams_bin,pam_bin,slp_bin
mem,resp,779,1,mem2.3.3.bmp,mem1.3.1.bmp,mem3.1.3.bmp,ACC033,"[0, 3, 3]","[-3, 3, -3]","[3, -3, 3]",non-match,0.3545027756320972,1,-0.15839821354962386,0.6401353130048382,0.11066125699957452,2nd,4th,3rd,-0.396321462905197,1.2490755070913968,0.4204323462858756
mem,resp,941,1,mem2.1.2.bmp,mem2.2.2.bmp,mem1.2.1.bmp,ACC033,"[0, -3, 0]","[0, 0, 0]","[-3, 0, -3]",non-match,1.091751709536137,4,-0.9527294787786894,0.3348452572395054,0.13738546649005073,1st,3rd,3rd,-1.2311229510475747,0.27517684643567825,0.4204323462858756
mem,resp,1016,1,mem2.3.2.bmp,mem2.2.1.bmp,mem1.2.3.bmp,ACC033,"[0, 3, 0]","[0, 0, -3]","[-3, 0, 3]",non-match,0.8545027756320972,2,-2.4987004925487613,-0.7717471568400462,0.16898432028092944,1st,1st,3rd,-1.2311229510475747,-1.2295177353414843,0.4204323462858756
mem,resp,745,0,mem3.3.2.bmp,mem1.3.3.bmp,mem3.2.1.bmp,ACC033,"[3, 3, 0]","[-3, 3, 3]","[3, 0, -3]",non-match,0.7257263057516985,2,-0.13905543471699428,1.4907175596306403,0.31646748524520246,2nd,4th,3rd,-0.396321462905197,1.2490755070913968,0.4204323462858756
mem,resp,939,1,mem1.2.2.bmp,mem3.3.1.bmp,mem2.1.3.bmp,ACC033,"[-3, 0, 0]","[3, 3, -3]","[0, -3, 3]",non-match,0.6339745962155614,1,-1.2720935994919293,0.7638707285972567,0.4633517344619846,1st,4th,3rd,-1.2311229510475747,1.2490755070913968,0.4204323462858756
mem,resp,1139,0,mem1.1.1.bmp,mem3.1.2.bmp,mem3.1.2.bmp,ACC033,"[-3, -3, -3]","[3, -3, 0]","[3, -3, 0]",match,1.3545027756320973,,-1.4800372479961617,-1.7577290524949982,0.24154062894781322,1st,1st,3rd,-1.2311229510475747,-1.2295177353414843,0.4204323462858756
mem,resp,716,0,mem1.3.1.bmp,mem2.2.3.bmp,mem2.2.2.bmp,ACC033,"[-3, 3, -3]","[0, 0, 3]","[0, 0, 0]",non-match,1.2113248654051871,4,1.1603939034608075,1.1614802513272362,0.4623609731872359,4th,4th,3rd,1.3242057709440809,1.2490755070913968,0.4204323462858756
mem,resp,696,1,mem3.2.3.bmp,mem1.2.3.bmp,mem1.2.3.bmp,ACC033,"[3, 0, 3]","[-3, 0, 3]","[-3, 0, 3]",match,1.4226497308103743,,-0.2788255376959974,0.2331674533858544,0.5922441852228086,2nd,3rd,3rd,-0.396321462905197,0.27517684643567825,0.4204323462858756
mem,resp,985,1,mem2.1.3.bmp,mem3.2.2.bmp,mem2.1.3.bmp,ACC033,"[0, -3, 3]","[3, 0, 0]","[0, -3, 3]",match,1.5,,-0.885610912881155,-1.2967627401520214,0.5588375193087487,1st,1st,3rd,-1.2311229510475747,-1.2295177353414843,0.4204323462858756
mem,resp,855,1,mem1.3.3.bmp,mem2.3.1.bmp,mem3.1.2.bmp,ACC033,"[-3, 3, 3]","[0, 3, -3]","[3, -3, 0]",non-match,0.42686781502901383,1,-1.0754680124801053,-0.6169578050085354,0.7176729802514695,1st,2nd,3rd,-1.2311229510475747,-0.29473461818559094,0.4204323462858756
mem,resp,520,1,mem2.1.1.bmp,mem1.2.1.bmp,mem2.1.1.bmp,ACC033,"[0, -3, -3]","[-3, 0, -3]","[0, -3, -3]",match,1.591751709536137,,1.2418931692033466,0.7671576397053865,0.6897025706417204,4th,4th,3rd,1.3242057709440809,1.2490755070913968,0.4204323462858756
mem,resp,837,1,mem2.2.2.bmp,mem3.2.1.bmp,mem2.2.2.bmp,ACC033,"[0, 0, 0]","[3, 0, -3]","[0, 0, 0]",match,1.591751709536137,,-1.3571890980317196,-0.624170681286336,0.6727648992109858,1st,2nd,3rd,-1.2311229510475747,-0.29473461818559094,0.4204323462858756
mem,resp,735,1,mem1.2.3.bmp,mem1.1.2.bmp,mem1.3.2.bmp,ACC033,"[-3, 0, 3]","[-3, -3, 0]","[-3, 3, 0]",non-match,1.0144014403465114,3,0.47938918408710024,0.7161650510350172,0.7919664312653102,3rd,4th,3rd,0.303238643008691,1.2490755070913968,0.4204323462858756
mem,resp,622,1,mem2.2.1.bmp,mem1.2.2.bmp,mem1.2.2.bmp,ACC033,"[0, 0, -3]","[-3, 0, 0]","[-3, 0, 0]",match,1.591751709536137,,0.14847620046293356,0.1358991000734008,0.7058573693801012,3rd,3rd,3rd,0.303238643008691,0.27517684643567825,0.4204323462858756
mem,resp,660,1,mem3.3.3.bmp,mem3.1.3.bmp,mem3.1.3.bmp,ACC033,"[3, 3, 3]","[3, -3, 3]","[3, -3, 3]",match,1.4226497308103743,,0.05360574048079918,-0.9180227743691062,0.3964799986516561,3rd,1st,3rd,0.303238643008691,-1.2295177353414843,0.4204323462858756
mem,resp,577,1,mem2.2.3.bmp,mem3.1.1.bmp,mem3.1.1.bmp,ACC033,"[0, 0, 3]","[3, -3, -3]","[3, -3, -3]",match,1.2928932188134525,,-0.11676796322254476,-0.7080373940104616,0.3574339924669076,3rd,1st,3rd,0.303238643008691,-1.2295177353414843,0.4204323462858756
mem,resp,622,1,mem3.2.1.bmp,mem3.3.2.bmp,mem1.2.3.bmp,ACC033,"[3, 0, -3]","[3, 3, 0]","[-3, 0, 3]",non-match,0.4763966378857265,1,-0.7318710883848731,-0.15741464806553704,0.30061004727879,2nd,2nd,3rd,-0.396321462905197,-0.29473461818559094,0.4204323462858756
mem,resp,677,1,mem1.2.1.bmp,mem2.1.2.bmp,mem2.3.2.bmp,ACC033,"[-3, 0, -3]","[0, -3, 0]","[0, 3, 0]",non-match,0.9226497308103743,2,-0.0273534553359983,0.6534844089815623,0.2817171561114857,3rd,4th,3rd,0.303238643008691,1.2490755070913968,0.4204323462858756
mem,resp,734,1,mem1.3.2.bmp,mem2.1.1.bmp,mem2.1.1.bmp,ACC033,"[-3, 3, 0]","[0, -3, -3]","[0, -3, -3]",match,1.2928932188134525,,-0.463529697782476,-0.5949679350154731,0.40341324939230244,2nd,2nd,3rd,-0.396321462905197,-0.29473461818559094,0.4204323462858756
mem,resp,518,1,mem3.1.2.bmp,mem3.2.3.bmp,mem3.1.2.bmp,ACC033,"[3, -3, 0]","[3, 0, 3]","[3, -3, 0]",match,1.591751709536137,,2.461829081061224,1.2202681287445327,0.22213257515873525,4th,4th,3rd,1.3242057709440809,1.2490755070913968,0.4204323462858756
mem,resp,653,1,mem1.1.2.bmp,mem2.1.3.bmp,mem2.1.3.bmp,ACC033,"[-3, -3, 0]","[0, -3, 3]","[0, -3, 3]",match,1.591751709536137,,-0.5253511397082907,-0.048667520479162646,0.18487322208551454,2nd,2nd,3rd,-0.396321462905197,-0.29473461818559094,0.4204323462858756
mem,resp,537,1,mem3.2.2.bmp,mem3.3.3.bmp,mem3.2.2.bmp,ACC033,"[3, 0, 0]","[3, 3, 3]","[3, 0, 0]",match,1.591751709536137,,0.7106044849188321,0.16184181542729997,0.008308956338550538,4th,3rd,2nd,1.3242057709440809,0.27517684643567825,-0.32088036504409995
mem,resp,694,1,mem3.1.3.bmp,mem1.2.1.bmp,mem3.2.1.bmp,ACC033,"[3, -3, 3]","[-3, 0, -3]","[3, 0, -3]",non-match,0.7771525064424715,2,-1.235209821836944,-0.5776477654441879,0.25978346039073413,1st,2nd,3rd,-1.2311229510475747,-0.29473461818559094,0.4204323462858756
mem,resp,679,1,mem3.1.1.bmp,mem1.2.2.bmp,mem3.3.2.bmp,ACC033,"[3, -3, -3]","[-3, 0, 0]","[3, 3, 0]",non-match,0.7090055512641944,2,-0.3508725529166738,0.04819186754563751,0.17703984488632138,2nd,3rd,3rd,-0.396321462905197,0.27517684643567825,0.4204323462858756
mem,resp,633,1,mem3.3.1.bmp,mem1.1.2.bmp,mem2.3.2.bmp,ACC033,"[3, 3, -3]","[-3, -3, 0]","[0, 3, 0]",non-match,0.9462544851682343,3,0.039135392527535506,0.7354979706826197,0.20703674172701053,3rd,4th,3rd,0.303238643008691,1.2490755070913968,0.4204323462858756
mem,resp,1002,1,mem2.3.1.bmp,mem1.3.3.bmp,mem2.1.3.bmp,ACC033,"[0, 3, -3]","[-3, 3, 3]","[0, -3, 3]",non-match,0.5380061947043713,1,-0.48814897798155116,-0.8980600860048094,0.19312369598893458,2nd,1st,3rd,-0.396321462905197,-1.2295177353414843,0.4204323462858756
mem,resp,857,1,mem2.3.3.bmp,mem3.1.2.bmp,mem1.3.1.bmp,ACC033,"[0, 3, 3]","[3, -3, 0]","[-3, 3, -3]",non-match,0.4884773718476586,1,0.6217817498626002,0.34493995148428036,0.14634958931376166,3rd,3rd,3rd,0.303238643008691,0.27517684643567825,0.4204323462858756
mem,resp,772,1,mem1.3.2.bmp,mem2.2.2.bmp,mem2.2.3.bmp,ACC033,"[-3, 3, 0]","[0, 0, 0]","[0, 0, 3]",non-match,1.2113248654051871,4,0.38969151402578056,-0.06587722145812794,0.025738749817446956,3rd,2nd,2nd,0.303238643008691,-0.29473461818559094,-0.32088036504409995
mem,resp,540,1,mem3.1.3.bmp,mem3.2.3.bmp,mem3.2.3.bmp,ACC033,"[3, -3, 3]","[3, 0, 3]","[3, 0, 3]",match,1.7113248654051871,,0.7633899195684357,1.2044485200307804,0.05518505691853884,4th,4th,2nd,1.3242057709440809,1.2490755070913968,-0.32088036504409995
mem,resp,815,1,mem3.2.2.bmp,mem2.1.3.bmp,mem3.2.2.bmp,ACC033,"[3, 0, 0]","[0, -3, 3]","[3, 0, 0]",match,1.5,,-0.13630293757325565,-0.8278928105593669,0.01599675775178638,2nd,1st,2nd,-0.396321462905197,-1.2295177353414843,-0.32088036504409995
mem,resp,700,1,mem3.3.3.bmp,mem1.3.1.bmp,mem3.3.3.bmp,ACC033,"[3, 3, 3]","[-3, 3, -3]","[3, 3, 3]",match,1.1835034190722742,,-0.2636309088078524,-1.204045958688899,0.07331588603551942,2nd,1st,3rd,-0.396321462905197,-1.2295177353414843,0.4204323462858756
mem,resp,606,0,mem1.2.3.bmp,mem3.3.1.bmp,mem3.3.1.bmp,ACC033,"[-3, 0, 3]","[3, 3, -3]","[3, 3, -3]",match,1.1339745962155614,,-0.07292186204908827,0.8219882999835446,0.14199804959922624,3rd,4th,3rd,0.303238643008691,1.2490755070913968,0.4204323462858756
mem,resp,581,1,mem2.2.1.bmp,mem3.2.1.bmp,mem2.2.1.bmp,ACC033,"[0, 0, -3]","[3, 0, -3]","[0, 0, -3]",match,1.7113248654051871,,1.5732655783021983,0.08818382958048511,0.32857792144741005,4th,3rd,3rd,1.3242057709440809,0.27517684643567825,0.4204323462858756
mem,resp,776,1,mem1.3.3.bmp,mem2.3.3.bmp,mem2.1.1.bmp,ACC033,"[-3, 3, 3]","[0, 3, 3]","[0, -3, -3]",non-match,0.3174780152878355,1,-0.6838678769019313,-1.1202317687174859,0.43780495211511333,2nd,1st,3rd,-0.396321462905197,-1.2295177353414843,0.4204323462858756
mem,resp,529,0,mem2.3.2.bmp,mem3.1.1.bmp,mem3.2.2.bmp,ACC033,"[0, 3, 0]","[3, -3, -3]","[3, 0, 0]",non-match,1.1835034190722742,4,1.1282717984890203,0.6356832938337642,0.44547184548240887,4th,3rd,3rd,1.3242057709440809,0.27517684643567825,0.4204323462858756
mem,resp,1078,1,mem1.2.2.bmp,mem2.2.3.bmp,mem1.2.2.bmp,ACC033,"[-3, 0, 0]","[0, 0, 3]","[-3, 0, 0]",match,1.591751709536137,,-1.030128069455325,-0.5891607478424302,0.3245866231259675,1st,2nd,3rd,-1.2311229510475747,-0.29473461818559094,0.4204323462858756
mem,resp,856,1,mem3.1.2.bmp,mem1.1.1.bmp,mem1.1.1.bmp,ACC033,"[3, -3, 0]","[-3, -3, -3]","[-3, -3, -3]",match,1.3545027756320973,,-1.694061771980745,-0.9631125296843598,0.146230989755684,1st,1st,3rd,-1.2311229510475747,-1.2295177353414843,0.4204323462858756
mem,resp,651,0,mem2.2.2.bmp,mem1.3.2.bmp,mem1.3.2.bmp,ACC033,"[0, 0, 0]","[-3, 3, 0]","[-3, 3, 0]",match,1.591751709536137,,-0.8278138153827355,0.5657437344315802,0.11641004176756162,1st,3rd,3rd,-1.2311229510475747,0.27517684643567825,0.4204323462858756
mem,resp,790,1,mem3.2.1.bmp,mem3.1.2.bmp,mem1.2.2.bmp,ACC033,"[3, 0, -3]","[3, -3, 0]","[-3, 0, 0]",non-match,0.7090055512641944,2,-2.206657237180876,-3.7793946670131047,0.22008408266484678,1st,1st,3rd,-1.2311229510475747,-1.2295177353414843,0.4204323462858756
mem,resp,585,1,mem2.3.2.bmp,mem3.3.3.bmp,mem3.3.3.bmp,ACC033,"[0, 3, 0]","[3, 3, 3]","[3, 3, 3]",match,1.591751709536137,,0.8168937898809037,0.20821810598876275,-0.11078862872544157,4th,3rd,2nd,1.3242057709440809,0.27517684643567825,-0.32088036504409995
mem,resp,1062,1,mem2.2.3.bmp,mem1.2.1.bmp,mem2.2.3.bmp,ACC033,"[0, 0, 3]","[-3, 0, -3]","[0, 0, 3]",match,1.3545027756320973,,0.022918796216547403,-1.4338318339163487,-0.06732187903394367,3rd,1st,2nd,0.303238643008691,-1.2295177353414843,-0.32088036504409995
mem,resp,1020,0,mem3.2.2.bmp,mem1.3.2.bmp,mem2.2.1.bmp,ACC033,"[3, 0, 0]","[-3, 3, 0]","[0, 0, -3]",non-match,1.091751709536137,4,-1.2468228276936721,-0.5064011026197778,-0.11304817006325774,1st,2nd,2nd,-1.2311229510475747,-0.29473461818559094,-0.32088036504409995
mem,resp,765,1,mem1.1.2.bmp,mem2.3.3.bmp,mem2.3.3.bmp,ACC033,"[-3, -3, 0]","[0, 3, 3]","[0, 3, 3]",match,1.2928932188134525,,-1.1814236351398562,-0.5495583986899479,-0.15538777975006937,1st,2nd,2nd,-1.2311229510475747,-0.29473461818559094,-0.32088036504409995
mem,resp,469,1,mem1.1.3.bmp,mem1.2.2.bmp,mem1.1.3.bmp,ACC033,"[-3, -3, 3]","[-3, 0, 0]","[-3, -3, 3]",match,1.591751709536137,,1.8193591419924782,1.1983449512703828,-0.3351175266995662,4th,4th,2nd,1.3242057709440809,1.2490755070913968,-0.32088036504409995
mem,resp,574,1,mem1.2.1.bmp,mem1.2.3.bmp,mem1.2.3.bmp,ACC033,"[-3, 0, -3]","[-3, 0, 3]","[-3, 0, 3]",match,1.4226497308103743,,0.2958266043600125,0.9524690114280623,-0.35685074665108363,3rd,4th,2nd,0.303238643008691,1.2490755070913968,-0.32088036504409995
mem,resp,497,1,mem3.3.2.bmp,mem3.1.3.bmp,mem3.1.3.bmp,ACC033,"[3, 3, 0]","[3, -3, 3]","[3, -3, 3]",match,1.3545027756320973,,1.4166867107246117,0.8129512263458362,-0.23851358982096632,4th,4th,2nd,1.3242057709440809,1.2490755070913968,-0.32088036504409995
mem,resp,436,1,mem2.1.2.bmp,mem2.2.2.bmp,mem2.1.2.bmp,ACC033,"[0, -3, 0]","[0, 0, 0]","[0, -3, 0]",match,1.7113248654051871,,1.4611361641260088,1.195860115754914,-0.493220118436116,4th,4th,2nd,1.3242057709440809,1.2490755070913968,-0.32088036504409995
mem,resp,743,0,mem2.3.1.bmp,mem3.1.1.bmp,mem2.3.1.bmp,ACC033,"[0, 3, -3]","[3, -3, -3]","[0, 3, -3]",match,1.3545027756320973,,-0.267790116975841,-0.7899707148434659,-0.44306554183765534,2nd,1st,2nd,-0.396321462905197,-1.2295177353414843,-0.32088036504409995
mem,resp,968,1,mem1.3.1.bmp,mem3.2.2.bmp,mem1.3.1.bmp,ACC033,"[-3, 3, -3]","[3, 0, 0]","[-3, 3, -3]",match,1.2928932188134525,,0.4471678992418019,1.3674021012256083,-0.4226940292393235,3rd,4th,2nd,0.303238643008691,1.2490755070913968,-0.32088036504409995
mem,resp,826,1,mem2.1.3.bmp,mem3.2.3.bmp,mem1.3.3.bmp,ACC033,"[0, -3, 3]","[3, 0, 3]","[-3, 3, 3]",non-match,0.7090055512641944,2,-1.694814860994563,-2.0771465723005185,-0.5331958140744963,1st,1st,2nd,-1.2311229510475747,-1.2295177353414843,-0.32088036504409995
mem,resp,793,0,mem3.1.3.bmp,mem1.1.1.bmp,mem1.2.1.bmp,ACC033,"[3, -3, 3]","[-3, -3, -3]","[-3, 0, -3]",non-match,0.8452994616207485,2,-1.4425185795764373,-2.3896320755208174,-0.5846944702532813,1st,1st,2nd,-1.2311229510475747,-1.2295177353414843,-0.32088036504409995
mem,resp,978,1,mem3.1.1.bmp,mem2.1.1.bmp,mem2.1.1.bmp,ACC033,"[3, -3, -3]","[0, -3, -3]","[0, -3, -3]",match,1.7113248654051871,,-1.9849777281954168,-1.7114885623788718,-0.6114851211944823,1st,1st,2nd,-1.2311229510475747,-1.2295177353414843,-0.32088036504409995
mem,resp,836,1,mem3.3.3.bmp,mem2.2.1.bmp,mem2.2.1.bmp,ACC033,"[3, 3, 3]","[0, 0, -3]","[0, 0, -3]",match,1.2928932188134525,,-0.14287886688051127,-0.3285973982676747,-0.34889071868833316,2nd,2nd,2nd,-0.396321462905197,-0.29473461818559094,-0.32088036504409995
mem,resp,701,0,mem3.1.2.bmp,mem1.3.3.bmp,mem2.1.2.bmp,ACC033,"[3, -3, 0]","[-3, 3, 3]","[0, -3, 0]",non-match,1.0042180842186395,3,-1.2834404414541787,-1.0744693924105215,-0.37450414713812,1st,1st,2nd,-1.2311229510475747,-1.2295177353414843,-0.32088036504409995
mem,resp,775,1,mem1.3.2.bmp,mem3.2.2.bmp,mem1.1.1.bmp,ACC033,"[-3, 3, 0]","[3, 0, 0]","[-3, -3, -3]",non-match,0.6473959944455496,1,0.09900540910348352,-0.48222958201835997,-0.4270600178129679,3rd,2nd,2nd,0.303238643008691,-0.29473461818559094,-0.32088036504409995
mem,resp,581,1,mem3.3.1.bmp,mem2.3.1.bmp,mem3.3.1.bmp,ACC033,"[3, 3, -3]","[0, 3, -3]","[3, 3, -3]",match,1.7113248654051871,,1.271901072189259,-0.021024458162882106,-0.6779106427854787,4th,2nd,2nd,1.3242057709440809,-0.29473461818559094,-0.32088036504409995
mem,resp,736,1,mem2.3.3.bmp,mem3.1.3.bmp,mem3.1.3.bmp,ACC033,"[0, 3, 3]","[3, -3, 3]","[3, -3, 3]",match,1.3545027756320973,,-0.4408202394493361,-0.14133633000260631,-0.556191755315618,2nd,2nd,2nd,-0.396321462905197,-0.29473461818559094,-0.32088036504409995
mem,resp,681,1,mem3.2.3.bmp,mem3.1.1.bmp,mem3.2.3.bmp,ACC033,"[3, 0, 3]","[3, -3, -3]","[3, 0, 3]",match,1.3545027756320973,,0.46781201243432885,0.19216057260896424,-0.7435148316583007,3rd,3rd,1st,0.303238643008691,0.27517684643567825,-1.3435763017465174
mem,resp,717,1,mem2.1.1.bmp,mem3.2.1.bmp,mem1.2.1.bmp,ACC033,"[0, -3, -3]","[3, 0, -3]","[-3, 0, -3]",non-match,1.0144014403465114,3,0.6325808443461579,-0.06461966485666967,-1.0815730886561794,3rd,2nd,1st,0.303238643008691,-0.29473461818559094,-1.3435763017465174
mem,resp,682,1,mem1.3.3.bmp,mem1.1.2.bmp,mem1.3.2.bmp,ACC033,"[-3, 3, 3]","[-3, -3, 0]","[-3, 3, 0]",non-match,1.1339745962155614,4,-0.2075337035937309,0.08048160558463306,-1.1597042562716295,2nd,3rd,1st,-0.396321462905197,0.27517684643567825,-1.3435763017465174
mem,resp,869,1,mem1.2.3.bmp,mem3.3.1.bmp,mem1.1.3.bmp,ACC033,"[-3, 0, 3]","[3, 3, -3]","[-3, -3, 3]",non-match,0.7113248654051871,2,-0.5197078692744734,0.2744089945676569,-1.3304874670349245,2nd,3rd,1st,-0.396321462905197,0.27517684643567825,-1.3435763017465174
mem,resp,984,1,mem2.2.1.bmp,mem1.3.1.bmp,mem2.2.3.bmp,ACC033,"[0, 0, -3]","[-3, 3, -3]","[0, 0, 3]",non-match,0.7155429496238267,2,-1.5030304200554006,0.6535397681856733,-1.4199438375237792,1st,4th,1st,-1.2311229510475747,1.2490755070913968,-1.3435763017465174
mem,resp,859,0,mem1.1.1.bmp,mem3.3.2.bmp,mem3.2.3.bmp,ACC033,"[-3, -3, -3]","[3, 3, 0]","[3, 0, 3]",non-match,0.7257263057516985,2,-0.5373617375322982,-1.7864553540392014,-1.5044069380927398,2nd,1st,1st,-0.396321462905197,-1.2295177353414843,-1.3435763017465174
mem,resp,647,1,mem2.2.2.bmp,mem2.1.3.bmp,mem2.1.3.bmp,ACC033,"[0, 0, 0]","[0, -3, 3]","[0, -3, 3]",match,1.591751709536137,,-0.14436410331615881,-0.5364352362159239,-1.7806665316824317,2nd,2nd,1st,-0.396321462905197,-0.29473461818559094,-1.3435763017465174
mem,resp,650,1,mem1.2.2.bmp,mem2.3.2.bmp,mem1.2.2.bmp,ACC033,"[-3, 0, 0]","[0, 3, 0]","[-3, 0, 0]",match,1.591751709536137,,-0.28854705474681436,-0.5569402088085741,-1.9180726220288953,2nd,2nd,1st,-0.396321462905197,-0.29473461818559094,-1.3435763017465174
mem,resp,998,1,mem3.3.3.bmp,mem1.1.3.bmp,mem3.3.3.bmp,ACC033,"[3, 3, 3]","[-3, -3, 3]","[3, 3, 3]",match,1.1835034190722742,,-1.1043216481078608,-1.9641748163052046,-1.8322610823895975,1st,1st,1st,-1.2311229510475747,-1.2295177353414843,-1.3435763017465174
mem,resp,493,1,mem3.3.1.bmp,mem3.2.3.bmp,mem3.2.3.bmp,ACC033,"[3, 3, -3]","[3, 0, 3]","[3, 0, 3]",match,1.3545027756320973,,1.9781397152150364,0.7185516589374151,-1.8582142186047077,4th,4th,1st,1.3242057709440809,1.2490755070913968,-1.3435763017465174
mem,resp,838,1,mem1.1.2.bmp,mem2.2.1.bmp,mem3.1.3.bmp,ACC033,"[-3, -3, 0]","[0, 0, -3]","[3, -3, 3]",non-match,0.6473959944455496,1,-1.3392918852126339,-1.4271000447774056,-1.910585749948793,1st,1st,1st,-1.2311229510475747,-1.2295177353414843,-1.3435763017465174
mem,resp,582,1,mem1.3.2.bmp,mem2.2.3.bmp,mem2.2.3.bmp,ACC033,"[-3, 3, 0]","[0, 0, 3]","[0, 0, 3]",match,1.5,,1.6893814279072263,0.08197627078685338,-2.044620183381194,4th,3rd,1st,1.3242057709440809,0.27517684643567825,-1.3435763017465174
mem,resp,565,1,mem1.1.3.bmp,mem2.1.2.bmp,mem1.1.3.bmp,ACC033,"[-3, -3, 3]","[0, -3, 0]","[-3, -3, 3]",match,1.591751709536137,,1.4247132106451743,0.18160085438789678,-2.213891530323927,4th,3rd,1st,1.3242057709440809,0.27517684643567825,-1.3435763017465174
mem,resp,852,0,mem3.2.3.bmp,mem1.3.3.bmp,mem2.2.2.bmp,ACC033,"[3, 0, 3]","[-3, 3, 3]","[0, 0, 0]",non-match,1.091751709536137,4,-0.7375264495783905,0.46798667459522614,-2.041169039856106,2nd,3rd,1st,-0.396321462905197,0.27517684643567825,-1.3435763017465174
mem,resp,541,1,mem1.2.1.bmp,mem1.2.3.bmp,mem1.2.3.bmp,ACC033,"[-3, 0, -3]","[-3, 0, 3]","[-3, 0, 3]",match,1.4226497308103743,,-0.470911446134249,-0.8371985528735866,-1.998930562061904,2nd,1st,1st,-0.396321462905197,-1.2295177353414843,-1.3435763017465174
mem,resp,436,1,mem1.3.1.bmp,mem1.3.2.bmp,mem1.3.2.bmp,ACC033,"[-3, 3, -3]","[-3, 3, 0]","[-3, 3, 0]",match,1.7113248654051871,,0.39136261056226046,0.24492322353305457,-1.7532726228497397,3rd,3rd,1st,0.303238643008691,0.27517684643567825,-1.3435763017465174
mem,resp,679,1,mem3.1.2.bmp,mem3.3.3.bmp,mem1.1.2.bmp,ACC033,"[3, -3, 0]","[3, 3, 3]","[-3, -3, 0]",non-match,0.5566243270259357,1,0.6114673923391628,0.13609105861328913,-2.0040658320569573,3rd,3rd,1st,0.303238643008691,0.27517684643567825,-1.3435763017465174
mem,resp,542,1,mem3.2.1.bmp,mem3.2.2.bmp,mem3.2.2.bmp,ACC033,"[3, 0, -3]","[3, 0, 0]","[3, 0, 0]",match,1.7113248654051871,,0.4820543474107524,0.2890687246980363,-1.904889046461035,3rd,3rd,1st,0.303238643008691,0.27517684643567825,-1.3435763017465174
mem,resp,909,1,mem2.1.1.bmp,mem2.1.3.bmp,mem2.3.1.bmp,ACC033,"[0, -3, -3]","[0, -3, 3]","[0, 3, -3]",non-match,0.6061531498826483,1,-0.4844300076769432,-0.681500399932042,-2.137398646963839,2nd,1st,1st,-0.396321462905197,-1.2295177353414843,-1.3435763017465174
mem,resp,844,1,mem3.1.1.bmp,mem2.3.2.bmp,mem3.1.1.bmp,ACC033,"[3, -3, -3]","[0, 3, 0]","[3, -3, -3]",match,1.2928932188134525,,-0.03285096813581817,-0.6092760575895348,-1.9862332395762523,3rd,2nd,1st,0.303238643008691,-0.29473461818559094,-1.3435763017465174
mem,resp,620,1,mem3.1.3.bmp,mem3.1.2.bmp,mem3.3.1.bmp,ACC033,"[3, -3, 3]","[3, -3, 0]","[3, 3, -3]",non-match,0.5380061947043713,1,1.437174037438833,2.8577373609797236,-1.910151415366329,4th,4th,1st,1.3242057709440809,1.2490755070913968,-1.3435763017465174
mem,resp,718,1,mem2.1.3.bmp,mem3.1.1.bmp,mem3.1.1.bmp,ACC033,"[0, -3, 3]","[3, -3, -3]","[3, -3, -3]",match,1.3545027756320973,,0.3905278710405427,0.07810465723048535,-1.9466746909317838,3rd,3rd,1st,0.303238643008691,0.27517684643567825,-1.3435763017465174
mem,resp,683,0,mem3.1.2.bmp,mem2.1.1.bmp,mem2.1.1.bmp,ACC033,"[3, -3, 0]","[0, -3, -3]","[0, -3, -3]",match,1.591751709536137,,0.18008176494783434,-0.6733751709947864,-2.1833593111491427,3rd,1st,1st,0.303238643008691,-1.2295177353414843,-1.3435763017465174
mem,resp,716,0,mem3.2.1.bmp,mem1.2.2.bmp,mem1.1.2.bmp,ACC033,"[3, 0, -3]","[-3, 0, 0]","[-3, -3, 0]",non-match,1.0042180842186395,3,-0.3032246549889279,0.5201978319317877,-1.8397052020287559,2nd,3rd,1st,-0.396321462905197,0.27517684643567825,-1.3435763017465174
mem,resp,821,1,mem2.1.2.bmp,mem1.3.3.bmp,mem2.1.2.bmp,ACC033,"[0, -3, 0]","[-3, 3, 3]","[0, -3, 0]",match,1.2928932188134525,,-0.945826209058523,-0.07020937895892802,-1.9481061793138925,1st,2nd,1st,-1.2311229510475747,-0.29473461818559094,-1.3435763017465174
mem,resp,464,0,mem3.2.2.bmp,mem3.1.3.bmp,mem3.1.1.bmp,ACC033,"[3, 0, 0]","[3, -3, 3]","[3, -3, -3]",non-match,1.0144014403465114,3,0.4404763809522835,0.6235196242800974,-1.7352376038606834,3rd,3rd,1st,0.303238643008691,0.27517684643567825,-1.3435763017465174
mem,resp,574,1,mem1.3.2.bmp,mem1.2.3.bmp,mem1.2.3.bmp,ACC033,"[-3, 3, 0]","[-3, 0, 3]","[-3, 0, 3]",match,1.591751709536137,,2.23956719251463,0.08125879951335213,-1.667522776365882,4th,3rd,1st,1.3242057709440809,0.27517684643567825,-1.3435763017465174
mem,resp,719,1,mem2.1.1.bmp,mem3.3.2.bmp,mem3.3.2.bmp,ACC033,"[0, -3, -3]","[3, 3, 0]","[3, 3, 0]",match,1.2928932188134525,,-0.07227634804871015,-0.481756130918938,-1.5257300360949402,3rd,2nd,1st,0.303238643008691,-0.29473461818559094,-1.3435763017465174
mem,resp,693,1,mem2.3.2.bmp,mem3.2.3.bmp,mem3.1.2.bmp,ACC033,"[0, 3, 0]","[3, 0, 3]","[3, -3, 0]",non-match,0.9462544851682343,3,1.2084001957354542,0.48862763031109224,-1.8331347626825711,4th,3rd,1st,1.3242057709440809,0.27517684643567825,-1.3435763017465174
mem,resp,578,1,mem1.1.2.bmp,mem1.1.3.bmp,mem1.1.3.bmp,ACC033,"[-3, -3, 0]","[-3, -3, 3]","[-3, -3, 3]",match,1.7113248654051871,,1.3732701294118124,0.7738163993286773,-1.6367847078440816,4th,4th,1st,1.3242057709440809,1.2490755070913968,-1.3435763017465174
mem,resp,793,1,mem2.3.3.bmp,mem2.1.3.bmp,mem2.3.3.bmp,ACC033,"[0, 3, 3]","[0, -3, 3]","[0, 3, 3]",match,1.4226497308103743,,-2.536708779937133,-1.9027194046753557,-1.7255539908692288,1st,1st,1st,-1.2311229510475747,-1.2295177353414843,-1.3435763017465174
mem,resp,779,1,mem3.3.2.bmp,mem1.3.2.bmp,mem1.2.1.bmp,ACC033,"[3, 3, 0]","[-3, 3, 0]","[-3, 0, -3]",non-match,0.8846449283495895,2,-1.7664086080554284,-1.4920741696100068,-1.717547284214683,1st,1st,1st,-1.2311229510475747,-1.2295177353414843,-1.3435763017465174
mem,resp,732,1,mem2.2.2.bmp,mem2.2.3.bmp,mem2.2.3.bmp,ACC033,"[0, 0, 0]","[0, 0, 3]","[0, 0, 3]",match,1.7113248654051871,,-0.6897560627132794,-0.01283029669078353,-1.8175582452613261,2nd,2nd,1st,-0.396321462905197,-0.29473461818559094,-1.3435763017465174
mem,resp,929,1,mem1.2.2.bmp,mem3.2.1.bmp,mem1.2.2.bmp,ACC033,"[-3, 0, 0]","[3, 0, -3]","[-3, 0, 0]",match,1.3545027756320973,,-0.31569810978711327,-1.4785706228694355,-1.7692588078436942,2nd,1st,1st,-0.396321462905197,-1.2295177353414843,-1.3435763017465174
mem,resp,867,1,mem3.3.1.bmp,mem1.3.1.bmp,mem1.3.1.bmp,ACC033,"[3, 3, -3]","[-3, 3, -3]","[-3, 3, -3]",match,1.4226497308103743,,0.04675626875885932,-0.29688123754203577,-1.6839692172627125,3rd,2nd,1st,0.303238643008691,-0.29473461818559094,-1.3435763017465174
mem,resp,740,1,mem3.2.3.bmp,mem3.1.2.bmp,mem3.2.3.bmp,ACC033,"[3, 0, 3]","[3, -3, 0]","[3, 0, 3]",match,1.591751709536137,,0.20340328648512826,-0.32195864057102014,-1.5259268964394677,3rd,2nd,1st,0.303238643008691,-0.29473461818559094,-1.3435763017465174
mem,resp,808,1,mem3.1.1.bmp,mem3.3.3.bmp,mem3.1.1.bmp,ACC033,"[3, -3, -3]","[3, 3, 3]","[3, -3, -3]",match,1.1835034190722742,,-0.826015831445579,0.7889676339210707,-1.4774662716841802,1st,4th,1st,-1.2311229510475747,1.2490755070913968,-1.3435763017465174
mem,resp,811,0,mem1.2.1.bmp,mem1.1.1.bmp,mem1.2.3.bmp,ACC033,"[-3, 0, -3]","[-3, -3, -3]","[-3, 0, 3]",non-match,0.7771525064424715,2,-0.7426201887602818,-0.6745857871880651,-1.4035527585617138,2nd,1st,1st,-0.396321462905197,-1.2295177353414843,-1.3435763017465174
mem,resp,646,1,mem2.3.1.bmp,mem1.1.2.bmp,mem1.1.2.bmp,ACC033,"[0, 3, -3]","[-3, -3, 0]","[-3, -3, 0]",match,1.2928932188134525,,2.2122284582367397,-0.10856571300467227,-1.214499917955308,4th,2nd,1st,1.3242057709440809,-0.29473461818559094,-1.3435763017465174
mem,resp,599,1,mem3.1.3.bmp,mem3.3.1.bmp,mem3.1.3.bmp,ACC033,"[3, -3, 3]","[3, 3, -3]","[3, -3, 3]",match,1.1835034190722742,,0.46142822559443647,-0.21343986137440868,-1.2491670873597323,3rd,2nd,1st,0.303238643008691,-0.29473461818559094,-1.3435763017465174
mem,resp,685,1,mem2.2.1.bmp,mem2.3.3.bmp,mem1.3.1.bmp,ACC033,"[0, 0, -3]","[0, 3, 3]","[-3, 3, -3]",non-match,0.9462544851682343,3,-0.19183331781474738,-0.4188475901443456,-1.186700890472712,2nd,2nd,1st,-0.396321462905197,-0.29473461818559094,-1.3435763017465174
mem,resp,588,1,mem3.3.3.bmp,mem2.2.2.bmp,mem3.3.3.bmp,ACC033,"[3, 3, 3]","[0, 0, 0]","[3, 3, 3]",match,1.5,,0.7188612385397358,1.0329696214027972,-1.1463630242726413,4th,4th,1st,1.3242057709440809,1.2490755070913968,-1.3435763017465174
mem,resp,609,1,mem1.1.1.bmp,mem1.2.1.bmp,mem3.2.3.bmp,ACC033,"[-3, -3, -3]","[-3, 0, -3]","[3, 0, 3]",non-match,0.3174780152878355,1,0.803527975754312,1.7448996450871908,-1.20090103192206,4th,4th,1st,1.3242057709440809,1.2490755070913968,-1.3435763017465174
mem,resp,592,1,mem1.2.3.bmp,mem3.3.1.bmp,mem3.3.1.bmp,ACC033,"[-3, 0, 3]","[3, 3, -3]","[3, 3, -3]",match,1.1339745962155614,,0.5680650181995878,-0.6345783948576071,-1.0985443683845357,3rd,1st,1st,0.303238643008691,-1.2295177353414843,-1.3435763017465174
mem,resp,787,1,mem1.1.3.bmp,mem3.3.2.bmp,mem1.1.3.bmp,ACC033,"[-3, -3, 3]","[3, 3, 0]","[-3, -3, 3]",match,1.1339745962155614,,-0.4355831014062516,-1.5697727335605531,-0.8072583924488972,2nd,1st,1st,-0.396321462905197,-1.2295177353414843,-1.3435763017465174
mem,resp,481,1,mem1.3.1.bmp,mem1.2.2.bmp,mem1.2.2.bmp,ACC033,"[-3, 3, -3]","[-3, 0, 0]","[-3, 0, 0]",match,1.591751709536137,,0.6931875261543325,0.540840819483665,-0.608100610316822,4th,3rd,2nd,1.3242057709440809,0.27517684643567825,-0.32088036504409995
mem,resp,955,1,mem2.2.3.bmp,mem2.1.1.bmp,mem2.2.3.bmp,ACC033,"[0, 0, 3]","[0, -3, -3]","[0, 0, 3]",match,1.3545027756320973,,-1.2652650572393986,-0.9574375497712486,-0.8749468572527821,1st,1st,1st,-1.2311229510475747,-1.2295177353414843,-1.3435763017465174
mem,resp,648,0,mem1.3.3.bmp,mem2.3.1.bmp,mem1.3.2.bmp,ACC033,"[-3, 3, 3]","[0, 3, -3]","[-3, 3, 0]",non-match,1.3030765749413242,4,-0.40531413837040314,-1.04305372690744,-0.9547947764142062,2nd,1st,1st,-0.396321462905197,-1.2295177353414843,-1.3435763017465174
mem,resp,603,1,mem1.3.3.bmp,mem1.1.1.bmp,mem1.1.1.bmp,ACC033,"[-3, 3, 3]","[-3, -3, -3]","[-3, -3, -3]",match,1.1835034190722742,,2.487273173172818,0.3281718417499038,-0.9659768103281665,4th,3rd,1st,1.3242057709440809,0.27517684643567825,-1.3435763017465174
mem,resp,847,1,mem2.3.2.bmp,mem3.2.1.bmp,mem2.3.3.bmp,ACC033,"[0, 3, 0]","[3, 0, -3]","[0, 3, 3]",non-match,1.0042180842186395,3,-0.8277857038668025,-2.2600395095747503,-0.830528875737623,1st,1st,1st,-1.2311229510475747,-1.2295177353414843,-1.3435763017465174
mem,resp,854,1,mem1.3.1.bmp,mem3.1.1.bmp,mem1.1.3.bmp,ACC033,"[-3, 3, -3]","[3, -3, -3]","[-3, -3, 3]",non-match,0.36700683814454815,1,-0.1319771829503537,-0.9748742537772488,-0.8558953284258087,3rd,1st,1st,0.303238643008691,-1.2295177353414843,-1.3435763017465174
mem,resp,687,1,mem2.2.1.bmp,mem2.1.2.bmp,mem3.3.1.bmp,ACC033,"[0, 0, -3]","[0, -3, 0]","[3, 3, -3]",non-match,0.8846449283495895,2,0.81508944035535,-0.14379611731019867,-0.8357093988879687,4th,2nd,1st,1.3242057709440809,-0.29473461818559094,-1.3435763017465174
mem,resp,913,1,mem3.2.2.bmp,mem1.1.2.bmp,mem2.3.1.bmp,ACC033,"[3, 0, 0]","[-3, -3, 0]","[0, 3, -3]",non-match,0.7928932188134524,2,-1.1210894112384546,-0.943271376236437,-0.6636457049062708,1st,1st,2nd,-1.2311229510475747,-1.2295177353414843,-0.32088036504409995
mem,resp,774,1,mem3.3.2.bmp,mem1.2.3.bmp,mem1.2.3.bmp,ACC033,"[3, 3, 0]","[-3, 0, 3]","[-3, 0, 3]",match,1.2928932188134525,,-0.2689875424320715,-1.4052303919218292,-0.5308523481186544,2nd,1st,2nd,-0.396321462905197,-1.2295177353414843,-0.32088036504409995
mem,resp,659,1,mem2.2.2.bmp,mem3.3.3.bmp,mem2.2.2.bmp,ACC033,"[0, 0, 0]","[3, 3, 3]","[0, 0, 0]",match,1.5,,0.581644994639595,0.39509269239745043,-0.5428488195784184,3rd,3rd,2nd,0.303238643008691,0.27517684643567825,-0.32088036504409995
mem,resp,1156,0,mem1.2.1.bmp,mem2.1.3.bmp,mem1.1.1.bmp,ACC033,"[-3, 0, -3]","[0, -3, 3]","[-3, -3, -3]",non-match,1.0658276410372842,4,-1.175704489464925,-0.6325088699537279,-0.47899609753169586,1st,1st,2nd,-1.2311229510475747,-1.2295177353414843,-0.32088036504409995
mem,resp,510,1,mem3.2.3.bmp,mem3.1.2.bmp,mem1.3.1.bmp,ACC033,"[3, 0, 3]","[3, -3, 0]","[-3, 3, -3]",non-match,0.2679491924311228,1,1.5728518002029421,1.2661407238279148,-0.3375318096721912,4th,4th,2nd,1.3242057709440809,1.2490755070913968,-0.32088036504409995
mem,resp,935,1,mem3.2.1.bmp,mem3.1.3.bmp,mem3.1.3.bmp,ACC033,"[3, 0, -3]","[3, -3, 3]","[3, -3, 3]",match,1.3545027756320973,,-0.8381709536985619,-1.6964011437793571,-0.1527900289730141,1st,1st,2nd,-1.2311229510475747,-1.2295177353414843,-0.32088036504409995
mem,resp,559,0,mem1.2.2.bmp,mem2.2.3.bmp,mem2.2.1.bmp,ACC033,"[-3, 0, 0]","[0, 0, 3]","[0, 0, -3]",non-match,1.0144014403465114,3,-0.3744879434283804,0.28656883361081115,0.30945896690867275,2nd,3rd,3rd,-0.396321462905197,0.27517684643567825,0.4204323462858756
mem,resp,493,1,mem1.2.3.bmp,mem2.3.3.bmp,mem1.2.3.bmp,ACC033,"[-3, 0, 3]","[0, 3, 3]","[-3, 0, 3]",match,1.591751709536137,,-0.4697412751426838,0.18741363743716702,0.6128546827334016,2nd,3rd,3rd,-0.396321462905197,0.27517684643567825,0.4204323462858756
mem,resp,502,0,mem2.1.3.bmp,mem1.1.1.bmp,mem2.1.3.bmp,ACC033,"[0, -3, 3]","[-3, -3, -3]","[0, -3, 3]",match,1.3545027756320973,,1.431535105776475,0.46818922532940266,0.5531021901507533,4th,3rd,3rd,1.3242057709440809,0.27517684643567825,0.4204323462858756
mem,resp,507,1,mem3.1.2.bmp,mem3.1.1.bmp,mem1.1.2.bmp,ACC033,"[3, -3, 0]","[3, -3, -3]","[-3, -3, 0]",non-match,0.7771525064424715,2,1.9813258323758518,2.4398551777925177,0.7024853934810598,4th,4th,3rd,1.3242057709440809,1.2490755070913968,0.4204323462858756
mem,resp,518,1,mem2.2.2.bmp,mem3.3.2.bmp,mem1.2.1.bmp,ACC033,"[0, 0, 0]","[3, 3, 0]","[-3, 0, -3]",non-match,0.8846449283495895,2,0.8875158318414875,1.386885210194112,1.0461159606462977,4th,4th,4th,1.3242057709440809,1.2490755070913968,1.2440243205047423
mem,resp,771,0,mem3.3.3.bmp,mem1.1.3.bmp,mem3.3.1.bmp,ACC033,"[3, 3, 3]","[-3, -3, 3]","[3, 3, -3]",non-match,0.42264973081037427,1,0.8416524251627885,-0.19544488908585947,1.3204928394563091,4th,2nd,4th,1.3242057709440809,-0.29473461818559094,1.2440243205047423
mem,resp,836,0,mem2.1.2.bmp,mem2.3.3.bmp,mem2.3.3.bmp,ACC033,"[0, -3, 0]","[0, 3, 3]","[0, 3, 3]",match,1.3545027756320973,,-0.47457435759682465,0.37595629459356533,1.2596995841405654,2nd,3rd,4th,-0.396321462905197,0.27517684643567825,1.2440243205047423
mem,resp,901,0,mem2.2.3.bmp,mem2.2.1.bmp,mem3.1.2.bmp,ACC033,"[0, 0, 3]","[0, 0, -3]","[3, -3, 0]",non-match,1.0,3,-1.4876656280077307,0.4449634744280681,1.2201764092103071,1st,3rd,4th,-1.2311229510475747,0.27517684643567825,1.2440243205047423
mem,resp,617,1,mem2.3.2.bmp,mem2.3.1.bmp,mem1.3.1.bmp,ACC033,"[0, 3, 0]","[0, 3, -3]","[-3, 3, -3]",non-match,1.3030765749413242,4,0.5582532132932568,0.9316363636426052,1.0640096761139017,3rd,4th,4th,0.303238643008691,1.2490755070913968,1.2440243205047423
mem,resp,972,1,mem1.3.2.bmp,mem3.2.1.bmp,mem1.3.2.bmp,ACC033,"[-3, 3, 0]","[3, 0, -3]","[-3, 3, 0]",match,1.2928932188134525,,-1.2911168942310713,-0.41969999531427005,1.1075097465601316,1st,2nd,4th,-1.2311229510475747,-0.29473461818559094,1.2440243205047423
mem,resp,787,1,mem3.3.1.bmp,mem2.1.3.bmp,mem1.1.1.bmp,ACC033,"[3, 3, -3]","[0, -3, 3]","[-3, -3, -3]",non-match,0.5380061947043713,1,0.3760711856552072,0.020366472928932434,1.1598303573850473,3rd,3rd,4th,0.303238643008691,0.27517684643567825,1.2440243205047423
mem,resp,521,1,mem1.3.3.bmp,mem1.2.2.bmp,mem1.2.2.bmp,ACC033,"[-3, 3, 3]","[-3, 0, 0]","[-3, 0, 0]",match,1.591751709536137,,0.18107414676092384,-0.5296549494830063,1.4181563224123739,3rd,2nd,4th,0.303238643008691,-0.29473461818559094,1.2440243205047423
mem,resp,1198,1,mem1.2.1.bmp,mem2.3.2.bmp,mem2.3.1.bmp,ACC033,"[-3, 0, -3]","[0, 3, 0]","[0, 3, -3]",non-match,1.3030765749413242,4,-0.9391281281061348,-1.1186067287590724,1.206256340783019,1st,1st,4th,-1.2311229510475747,-1.2295177353414843,1.2440243205047423
mem,resp,731,1,mem1.1.3.bmp,mem1.1.2.bmp,mem1.1.3.bmp,ACC033,"[-3, -3, 3]","[-3, -3, 0]","[-3, -3, 3]",match,1.7113248654051871,,0.7796575531679558,1.8369304247942964,1.1112426441801169,4th,4th,4th,1.3242057709440809,1.2490755070913968,1.2440243205047423
mem,resp,575,1,mem3.3.2.bmp,mem3.2.2.bmp,mem3.2.2.bmp,ACC033,"[3, 3, 0]","[3, 0, 0]","[3, 0, 0]",match,1.7113248654051871,,-1.2617763772176176,-0.1988912993208775,1.1666847962025124,1st,2nd,4th,-1.2311229510475747,-0.29473461818559094,1.2440243205047423
mem,resp,560,1,mem2.1.1.bmp,mem3.1.3.bmp,mem3.1.3.bmp,ACC033,"[0, -3, -3]","[3, -3, 3]","[3, -3, 3]",match,1.3545027756320973,,-0.04949557916830595,0.02935275066635741,1.4363970055147686,3rd,3rd,4th,0.303238643008691,0.27517684643567825,1.2440243205047423
mem,resp,827,1,mem1.3.1.bmp,mem1.3.2.bmp,mem1.3.1.bmp,ACC033,"[-3, 3, -3]","[-3, 3, 0]","[-3, 3, -3]",match,1.7113248654051871,,-1.4546964610611552,0.5258567950023659,1.1708765453350292,1st,3rd,4th,-1.2311229510475747,0.27517684643567825,1.2440243205047423
mem,resp,671,0,mem1.1.1.bmp,mem3.2.3.bmp,mem2.1.3.bmp,ACC033,"[-3, -3, -3]","[3, 0, 3]","[0, -3, 3]",non-match,0.9462544851682343,3,-1.493926614273462,-1.0854500920641783,1.152743702081095,1st,1st,4th,-1.2311229510475747,-1.2295177353414843,1.2440243205047423
mem,resp,742,1,mem2.3.1.bmp,mem1.3.3.bmp,mem2.3.1.bmp,ACC033,"[0, 3, -3]","[-3, 3, 3]","[0, 3, -3]",match,1.3545027756320973,,-0.6955934491991388,1.1582401723737277,0.921133654357406,2nd,4th,3rd,-0.396321462905197,1.2490755070913968,0.4204323462858756
mem,resp,817,1,mem3.2.1.bmp,mem2.1.1.bmp,mem3.2.1.bmp,ACC033,"[3, 0, -3]","[0, -3, -3]","[3, 0, -3]",match,1.591751709536137,,-1.3463886068260935,0.7784767649628779,0.8662244189027793,1st,4th,3rd,-1.2311229510475747,1.2490755070913968,0.4204323462858756
mem,resp,630,0,mem3.1.1.bmp,mem2.2.2.bmp,mem3.3.2.bmp,ACC033,"[3, -3, -3]","[0, 0, 0]","[3, 3, 0]",non-match,0.9462544851682343,3,-0.5021325803304546,-0.8056027451228305,0.8325854938914254,2nd,1st,3rd,-0.396321462905197,-1.2295177353414843,0.4204323462858756
mem,resp,684,1,mem3.1.3.bmp,mem2.1.2.bmp,mem3.3.1.bmp,ACC033,"[3, -3, 3]","[0, -3, 0]","[3, 3, -3]",non-match,0.4763966378857265,1,0.6365592195837173,1.512186538484295,0.9760730618372196,3rd,4th,4th,0.303238643008691,1.2490755070913968,1.2440243205047423
mem,resp,717,0,mem2.3.3.bmp,mem3.3.3.bmp,mem2.3.3.bmp,ACC033,"[0, 3, 3]","[3, 3, 3]","[0, 3, 3]",match,1.7113248654051871,,-0.873593621620362,-1.0010272808127119,0.7158456772828916,1st,1st,3rd,-1.2311229510475747,-1.2295177353414843,0.4204323462858756
mem,resp,973,0,mem1.2.3.bmp,mem2.2.3.bmp,mem3.1.2.bmp,ACC033,"[-3, 0, 3]","[0, 0, 3]","[3, -3, 0]",non-match,0.7928932188134524,2,-1.0641313516380593,-0.23016017299933839,1.0886796255231945,1st,2nd,4th,-1.2311229510475747,-0.29473461818559094,1.2440243205047423
mem,resp,788,1,mem1.2.2.bmp,mem3.3.2.bmp,mem3.3.2.bmp,ACC033,"[-3, 0, 0]","[3, 3, 0]","[3, 3, 0]",match,1.3545027756320973,,-0.6759394524525819,-0.1181033510944778,1.1669986077300958,2nd,2nd,4th,-0.396321462905197,-0.29473461818559094,1.2440243205047423
mem,resp,490,1,mem2.2.1.bmp,mem1.3.3.bmp,mem2.2.1.bmp,ACC033,"[0, 0, -3]","[-3, 3, 3]","[0, 0, -3]",match,1.2928932188134525,,0.8973868075735218,0.7431025666235677,1.3018182155657103,4th,4th,4th,1.3242057709440809,1.2490755070913968,1.2440243205047423
mem,resp,763,1,mem3.2.2.bmp,mem2.3.3.bmp,mem1.1.1.bmp,ACC033,"[3, 0, 0]","[0, 3, 3]","[-3, -3, -3]",non-match,0.42686781502901383,1,-1.0147962830000778,-2.039596573208582,1.2939996894479588,1st,1st,4th,-1.2311229510475747,-1.2295177353414843,1.2440243205047423
mem,resp,910,1,mem3.2.3.bmp,mem1.3.1.bmp,mem2.1.1.bmp,ACC033,"[3, 0, 3]","[-3, 3, -3]","[0, -3, -3]",non-match,0.6473959944455496,1,-0.8232412482469317,-1.5347818282817112,1.2541847837736442,1st,1st,4th,-1.2311229510475747,-1.2295177353414843,1.2440243205047423
mem,resp,691,1,mem1.1.2.bmp,mem1.2.2.bmp,mem2.3.2.bmp,ACC033,"[-3, -3, 0]","[-3, 0, 0]","[0, 3, 0]",non-match,0.9462544851682343,3,-1.0608478937590107,-0.4820240168389535,1.2557059561986352,1st,2nd,4th,-1.2311229510475747,-0.29473461818559094,1.2440243205047423
mem,resp,677,1,mem1.3.2.bmp,mem2.1.3.bmp,mem3.1.1.bmp,ACC033,"[-3, 3, 0]","[0, -3, 3]","[3, -3, -3]",non-match,0.4884773718476586,1,0.45586104837837804,-0.1744653828582077,1.1756481959110612,3rd,2nd,4th,0.303238643008691,-0.29473461818559094,1.2440243205047423
mem,resp,802,0,mem3.2.2.bmp,mem1.2.1.bmp,mem2.1.2.bmp,ACC033,"[3, 0, 0]","[-3, 0, -3]","[0, -3, 0]",non-match,1.091751709536137,4,0.1873805464118345,-0.47135196473348995,1.4385395194820658,3rd,2nd,4th,0.303238643008691,-0.29473461818559094,1.2440243205047423
mem,resp,583,1,mem1.1.1.bmp,mem2.1.1.bmp,mem2.2.3.bmp,ACC033,"[-3, -3, -3]","[0, -3, -3]","[0, 0, 3]",non-match,0.6473959944455496,1,1.330055818499008,2.0516323377293397,1.3648339101669087,4th,4th,4th,1.3242057709440809,1.2490755070913968,1.2440243205047423
mem,resp,576,0,mem2.2.1.bmp,mem2.3.2.bmp,mem2.2.1.bmp,ACC033,"[0, 0, -3]","[0, 3, 0]","[0, 0, -3]",match,1.591751709536137,,-0.7994864272569747,1.3078314006945775,1.3134496990429185,1st,4th,4th,-1.2311229510475747,1.2490755070913968,1.2440243205047423
mem,resp,619,1,mem2.3.3.bmp,mem1.1.2.bmp,mem1.1.2.bmp,ACC033,"[0, 3, 3]","[-3, -3, 0]","[-3, -3, 0]",match,1.2928932188134525,,0.7357097532378989,0.38118807246996267,1.509109829045089,4th,3rd,4th,1.3242057709440809,0.27517684643567825,1.2440243205047423
mem,resp,620,1,mem2.2.2.bmp,mem1.3.2.bmp,mem1.3.2.bmp,ACC033,"[0, 0, 0]","[-3, 3, 0]","[-3, 3, 0]",match,1.591751709536137,,-0.7127434721602116,-0.25104155154028046,1.4849262233428262,2nd,2nd,4th,-0.396321462905197,-0.29473461818559094,1.2440243205047423
mem,resp,564,1,mem1.1.3.bmp,mem3.2.1.bmp,mem3.2.1.bmp,ACC033,"[-3, -3, 3]","[3, 0, -3]","[3, 0, -3]",match,1.1339745962155614,,0.12359860887923801,0.2151395053981055,1.5187064930819427,3rd,3rd,4th,0.303238643008691,0.27517684643567825,1.2440243205047423
mem,resp,669,1,mem2.2.3.bmp,mem2.3.1.bmp,mem1.3.1.bmp,ACC033,"[0, 0, 3]","[0, 3, -3]","[-3, 3, -3]",non-match,1.0042180842186395,3,-0.22621027184764742,-0.07173925154908266,1.4434971359614797,2nd,2nd,4th,-0.396321462905197,-0.29473461818559094,1.2440243205047423
mem,resp,620,1,mem2.3.2.bmp,mem3.3.3.bmp,mem2.1.1.bmp,ACC033,"[0, 3, 0]","[3, 3, 3]","[0, -3, -3]",non-match,0.4884773718476586,1,1.5056503280659124,1.0397454281038545,1.2096100999491162,4th,4th,4th,1.3242057709440809,1.2490755070913968,1.2440243205047423
mem,resp,907,0,mem3.3.1.bmp,mem3.2.3.bmp,mem3.2.2.bmp,ACC033,"[3, 3, -3]","[3, 0, 3]","[3, 0, 0]",non-match,1.3030765749413242,4,-2.254449598125297,-1.0429080842359737,1.113114824372646,1st,1st,4th,-1.2311229510475747,-1.2295177353414843,1.2440243205047423
mem,resp,638,1,mem2.1.2.bmp,mem3.1.2.bmp,mem2.1.2.bmp,ACC033,"[0, -3, 0]","[3, -3, 0]","[0, -3, 0]",match,1.7113248654051871,,-0.13277242629871266,1.1452565404087423,1.0995574224763875,2nd,4th,4th,-0.396321462905197,1.2490755070913968,1.2440243205047423
mem,resp,482,1,mem1.2.1.bmp,mem1.1.3.bmp,mem1.1.3.bmp,ACC033,"[-3, 0, -3]","[-3, -3, 3]","[-3, -3, 3]",match,1.3545027756320973,,0.5913625630609683,0.3895018457964318,1.309369998721681,3rd,3rd,4th,0.303238643008691,0.27517684643567825,1.2440243205047423
mem,resp,925,1,mem1.2.2.bmp,mem1.3.2.bmp,mem1.3.2.bmp,ACC033,"[-3, 0, 0]","[-3, 3, 0]","[-3, 3, 0]",match,1.7113248654051871,,0.9811062644793209,-0.3630311896216198,1.5316363775331054,4th,2nd,4th,1.3242057709440809,-0.29473461818559094,1.2440243205047423
mem,resp,592,0,mem1.1.1.bmp,mem1.2.3.bmp,mem2.1.3.bmp,ACC033,"[-3, -3, -3]","[-3, 0, 3]","[0, -3, 3]",non-match,0.9462544851682343,3,0.48979419598479984,1.3679575585587984,1.4046660603577208,3rd,4th,4th,0.303238643008691,1.2490755070913968,1.2440243205047423
mem,resp,723,0,mem2.3.2.bmp,mem1.3.3.bmp,mem2.2.3.bmp,ACC033,"[0, 3, 0]","[-3, 3, 3]","[0, 0, 3]",non-match,1.1835034190722742,4,1.039944617646929,0.12695775588973388,1.3706340196824356,4th,3rd,4th,1.3242057709440809,0.27517684643567825,1.2440243205047423
mem,resp,896,0,mem1.1.3.bmp,mem2.2.2.bmp,mem2.2.2.bmp,ACC033,"[-3, -3, 3]","[0, 0, 0]","[0, 0, 0]",match,1.5,,-0.8350451022328398,1.2743569357170534,1.3335549875656039,1st,4th,4th,-1.2311229510475747,1.2490755070913968,1.2440243205047423
mem,resp,762,1,mem2.1.2.bmp,mem1.2.1.bmp,mem3.3.1.bmp,ACC033,"[0, -3, 0]","[-3, 0, -3]","[3, 3, -3]",non-match,0.6473959944455496,1,0.6726873558532611,0.054262560533196044,1.3818552414244283,4th,3rd,4th,1.3242057709440809,0.27517684643567825,1.2440243205047423
mem,resp,967,1,mem3.2.2.bmp,mem1.1.1.bmp,mem1.1.1.bmp,ACC033,"[3, 0, 0]","[-3, -3, -3]","[-3, -3, -3]",match,1.2928932188134525,,0.7690298666327983,1.1014459590977559,1.2153201828477977,4th,4th,4th,1.3242057709440809,1.2490755070913968,1.2440243205047423
mem,resp,924,0,mem3.3.2.bmp,mem2.2.3.bmp,mem2.3.1.bmp,ACC033,"[3, 3, 0]","[0, 0, 3]","[0, 3, -3]",non-match,0.9462544851682343,3,-0.22717529406750792,-0.10998843122682016,1.3736087433907747,2nd,2nd,4th,-0.396321462905197,-0.29473461818559094,1.2440243205047423
mem,resp,1100,1,mem1.2.2.bmp,mem2.3.2.bmp,mem1.3.1.bmp,ACC033,"[-3, 0, 0]","[0, 3, 0]","[-3, 3, -3]",non-match,1.1835034190722742,4,-0.469452392237219,-0.5954671338073007,1.4641978110320921,2nd,2nd,4th,-0.396321462905197,-0.29473461818559094,1.2440243205047423
mem,resp,653,0,mem3.2.3.bmp,mem2.1.1.bmp,mem2.2.2.bmp,ACC033,"[3, 0, 3]","[0, -3, -3]","[0, 0, 0]",non-match,1.1835034190722742,4,-0.4371878550266981,0.013881118851131606,1.4172199484103727,2nd,2nd,4th,-0.396321462905197,-0.29473461818559094,1.2440243205047423
mem,resp,778,0,mem3.3.3.bmp,mem3.2.1.bmp,mem3.1.2.bmp,ACC033,"[3, 3, 3]","[3, 0, -3]","[3, -3, 0]",non-match,0.9462544851682343,3,-0.8114590170014979,0.03096009949523794,1.419680282800352,1st,3rd,4th,-1.2311229510475747,0.27517684643567825,1.2440243205047423
mem,resp,571,0,mem1.3.2.bmp,mem2.3.1.bmp,mem2.3.3.bmp,ACC033,"[-3, 3, 0]","[0, 3, -3]","[0, 3, 3]",non-match,1.0144014403465114,3,-0.818066676892741,-0.6062361644463203,1.2412020942979014,1st,2nd,4th,-1.2311229510475747,-0.29473461818559094,1.2440243205047423
mem,resp,754,1,mem1.1.2.bmp,mem3.1.3.bmp,mem1.1.2.bmp,ACC033,"[-3, -3, 0]","[3, -3, 3]","[-3, -3, 0]",match,1.3545027756320973,,0.35902140957936873,-0.8594575245573925,1.096822575640221,3rd,1st,4th,0.303238643008691,-1.2295177353414843,1.2440243205047423
mem,resp,508,1,mem1.2.3.bmp,mem3.2.2.bmp,mem3.2.2.bmp,ACC033,"[-3, 0, 3]","[3, 0, 0]","[3, 0, 0]",match,1.3545027756320973,,1.2762018693716048,0.146814955845828,1.2456809009413607,4th,3rd,4th,1.3242057709440809,0.27517684643567825,1.2440243205047423
mem,resp,700,0,mem3.1.2.bmp,mem3.1.1.bmp,mem3.3.1.bmp,ACC033,"[3, -3, 0]","[3, -3, -3]","[3, 3, -3]",non-match,0.7771525064424715,2,2.028440714489327,4.561298488078634,1.2338738627440555,4th,4th,4th,1.3242057709440809,1.2490755070913968,1.2440243205047423
mem,resp,1038,1,mem2.2.3.bmp,mem2.3.3.bmp,mem2.3.3.bmp,ACC033,"[0, 0, 3]","[0, 3, 3]","[0, 3, 3]",match,1.7113248654051871,,-0.4595204140285106,0.561247248029767,1.0865793148236453,2nd,3rd,4th,-0.396321462905197,0.27517684643567825,1.2440243205047423
mem,resp,763,1,mem2.2.1.bmp,mem2.1.3.bmp,mem2.2.1.bmp,ACC033,"[0, 0, -3]","[0, -3, 3]","[0, 0, -3]",match,1.3545027756320973,,-0.9186528653923473,-1.3896792796157047,0.7926966158864794,1st,1st,3rd,-1.2311229510475747,-1.2295177353414843,0.4204323462858756
mem,resp,705,0,mem1.3.1.bmp,mem1.2.2.bmp,mem2.2.2.bmp,ACC033,"[-3, 3, -3]","[-3, 0, 0]","[0, 0, 0]",non-match,1.2113248654051871,4,0.0833415293516413,0.7874857259842988,0.8406550324077982,3rd,4th,3rd,0.303238643008691,1.2490755070913968,0.4204323462858756
mem,resp,730,1,mem1.3.3.bmp,mem2.1.2.bmp,mem3.1.3.bmp,ACC033,"[-3, 3, 3]","[0, -3, 0]","[3, -3, 3]",non-match,0.7752551286084112,2,0.718587470329895,0.574554841257801,1.038165026642602,4th,3rd,4th,1.3242057709440809,0.27517684643567825,1.2440243205047423
mem,resp,785,1,mem2.3.1.bmp,mem3.2.3.bmp,mem2.1.1.bmp,ACC033,"[0, 3, -3]","[3, 0, 3]","[0, -3, -3]",non-match,0.7155429496238267,2,0.058805558909132326,-0.7192664523077139,1.198687637730436,3rd,1st,4th,0.303238643008691,-1.2295177353414843,1.2440243205047423
mem,resp,629,1,mem3.3.1.bmp,mem3.3.3.bmp,mem1.2.3.bmp,ACC033,"[3, 3, -3]","[3, 3, 3]","[-3, 0, 3]",non-match,0.4884773718476586,1,1.2559431456101315,1.0341527495195464,1.1824776923456453,4th,4th,4th,1.3242057709440809,1.2490755070913968,1.2440243205047423
mem,resp,754,0,mem3.1.1.bmp,mem2.2.1.bmp,mem3.2.1.bmp,ACC033,"[3, -3, -3]","[0, 0, -3]","[3, 0, -3]",non-match,1.4226497308103743,4,-0.05144745848248063,1.0547926060454391,1.2527945573353032,3rd,4th,4th,0.303238643008691,1.2490755070913968,1.2440243205047423
mem,resp,837,0,mem1.2.1.bmp,mem3.1.2.bmp,mem3.3.2.bmp,ACC033,"[-3, 0, -3]","[3, -3, 0]","[3, 3, 0]",non-match,0.7155429496238267,2,-0.2985675011963751,0.01588447584949492,1.2271705469260163,2nd,3rd,4th,-0.396321462905197,0.27517684643567825,1.2440243205047423
mem,resp,592,0,mem2.1.3.bmp,mem1.3.1.bmp,mem2.1.3.bmp,ACC033,"[0, -3, 3]","[-3, 3, -3]","[0, -3, 3]",match,1.1339745962155614,,1.4016793421449503,1.7959506906788694,1.1361892070261008,4th,4th,4th,1.3242057709440809,1.2490755070913968,1.2440243205047423
mem,resp,847,0,mem2.1.1.bmp,mem1.3.2.bmp,mem1.1.2.bmp,ACC033,"[0, -3, -3]","[-3, 3, 0]","[-3, -3, 0]",non-match,1.0144014403465114,3,0.4986223444794549,0.32193673658936467,1.31510322016493,3rd,3rd,4th,0.303238643008691,0.27517684643567825,1.2440243205047423
mem,resp,703,1,mem3.2.1.bmp,mem3.3.3.bmp,mem1.1.1.bmp,ACC033,"[3, 0, -3]","[3, 3, 3]","[-3, -3, -3]",non-match,0.3545027756320972,1,0.18094075861861236,0.06990273481099953,0.9680790497756825,3rd,3rd,4th,0.303238643008691,0.27517684643567825,1.2440243205047423
mem,resp,560,1,mem3.1.3.bmp,mem3.3.2.bmp,mem3.3.2.bmp,ACC033,"[3, -3, 3]","[3, 3, 0]","[3, 3, 0]",match,1.3545027756320973,,0.2732874670753687,0.7111865531755047,0.9983607028973486,3rd,4th,4th,0.303238643008691,1.2490755070913968,1.2440243205047423
mem,resp,726,0,mem2.3.3.bmp,mem3.2.2.bmp,mem3.2.3.bmp,ACC033,"[0, 3, 3]","[3, 0, 0]","[3, 0, 3]",non-match,1.3030765749413242,4,-0.2664077163050588,-0.9117667263086966,1.0295338774336735,2nd,1st,4th,-0.396321462905197,-1.2295177353414843,1.2440243205047423
mem,resp,499,1,mem2.2.2.bmp,mem1.1.2.bmp,mem1.1.2.bmp,ACC033,"[0, 0, 0]","[-3, -3, 0]","[-3, -3, 0]",match,1.591751709536137,,0.5026068086732483,-0.15554819018203409,1.0394383168407129,3rd,2nd,4th,0.303238643008691,-0.29473461818559094,1.2440243205047423
mem,resp,539,1,mem1.2.2.bmp,mem2.2.3.bmp,mem2.2.3.bmp,ACC033,"[-3, 0, 0]","[0, 0, 3]","[0, 0, 3]",match,1.591751709536137,,0.6527612235754063,0.053963547551662924,0.9654156904840513,3rd,3rd,4th,0.303238643008691,0.27517684643567825,1.2440243205047423
mem,resp,650,1,mem1.3.3.bmp,mem1.3.1.bmp,mem3.2.1.bmp,ACC033,"[-3, 3, 3]","[-3, 3, -3]","[3, 0, -3]",non-match,0.4884773718476586,1,1.9957356616760193,1.6888322295451008,0.8909848408449921,4th,4th,3rd,1.3242057709440809,1.2490755070913968,0.4204323462858756
mem,resp,585,1,mem2.3.3.bmp,mem2.3.2.bmp,mem1.3.2.bmp,ACC033,"[0, 3, 3]","[0, 3, 0]","[-3, 3, 0]",non-match,1.3030765749413242,4,0.5111303652010332,0.3202814897246769,0.8696708184184774,3rd,3rd,3rd,0.303238643008691,0.27517684643567825,0.4204323462858756
mem,resp,928,0,mem2.2.2.bmp,mem2.1.3.bmp,mem2.2.2.bmp,ACC033,"[0, 0, 0]","[0, -3, 3]","[0, 0, 0]",match,1.591751709536137,,-0.21846850289728392,-0.5340567723119648,1.0991616477604815,2nd,2nd,4th,-0.396321462905197,-0.29473461818559094,1.2440243205047423
mem,resp,744,0,mem1.1.1.bmp,mem3.2.3.bmp,mem2.1.2.bmp,ACC033,"[-3, -3, -3]","[3, 0, 3]","[0, -3, 0]",non-match,1.091751709536137,4,-0.40482174667251025,-0.5392360139039551,1.2898600871834345,2nd,2nd,4th,-0.396321462905197,-0.29473461818559094,1.2440243205047423
mem,resp,687,1,mem2.2.3.bmp,mem3.1.3.bmp,mem3.1.3.bmp,ACC033,"[0, 0, 3]","[3, -3, 3]","[3, -3, 3]",match,1.591751709536137,,0.009380386338488722,0.6722156720083075,1.256298497724369,3rd,4th,4th,0.303238643008691,1.2490755070913968,1.2440243205047423
mem,resp,902,0,mem3.2.2.bmp,mem1.3.2.bmp,mem1.3.3.bmp,ACC033,"[3, 0, 0]","[-3, 3, 0]","[-3, 3, 3]",non-match,1.0042180842186395,3,-1.0264046588901994,-0.2076571561598628,1.3179422199925697,1st,2nd,4th,-1.2311229510475747,-0.29473461818559094,1.2440243205047423
mem,resp,726,1,mem3.1.2.bmp,mem2.3.1.bmp,mem3.1.2.bmp,ACC033,"[3, -3, 0]","[0, 3, -3]","[3, -3, 0]",match,1.2928932188134525,,-1.6237647106228477,0.06256987195497359,1.322335168174726,1st,3rd,4th,-1.2311229510475747,0.27517684643567825,1.2440243205047423
mem,resp,871,0,mem1.2.3.bmp,mem3.1.1.bmp,mem1.3.1.bmp,ACC033,"[-3, 0, 3]","[3, -3, -3]","[-3, 3, -3]",non-match,0.5380061947043713,1,-0.31257319795292515,-0.5970444214558498,1.3794006176027833,2nd,2nd,4th,-0.396321462905197,-0.29473461818559094,1.2440243205047423
mem,resp,714,0,mem3.3.2.bmp,mem1.1.3.bmp,mem2.1.1.bmp,ACC033,"[3, 3, 0]","[-3, -3, 3]","[0, -3, -3]",non-match,0.6473959944455496,1,-0.14679084031486062,2.1060948692927925,1.4535846555993435,2nd,4th,4th,-0.396321462905197,1.2490755070913968,1.2440243205047423
mem,resp,707,1,mem1.2.1.bmp,mem2.1.2.bmp,mem2.2.3.bmp,ACC033,"[-3, 0, -3]","[0, -3, 0]","[0, 0, 3]",non-match,0.9462544851682343,3,0.5084165220120438,1.3911549969911225,1.3316851802462206,3rd,4th,4th,0.303238643008691,1.2490755070913968,1.2440243205047423
mem,resp,735,1,mem2.2.1.bmp,mem1.2.2.bmp,mem3.2.2.bmp,ACC033,"[0, 0, -3]","[-3, 0, 0]","[3, 0, 0]",non-match,1.0144014403465114,3,-0.13964171398031242,0.35119347640406956,1.4529990354649274,2nd,3rd,4th,-0.396321462905197,0.27517684643567825,1.2440243205047423
mem,resp,728,0,mem3.1.1.bmp,mem3.3.1.bmp,mem3.1.1.bmp,ACC033,"[3, -3, -3]","[3, 3, -3]","[3, -3, -3]",match,1.4226497308103743,,-0.38448201792928544,-0.5062690166246493,1.4016421254047646,2nd,2nd,4th,-0.396321462905197,-0.29473461818559094,1.2440243205047423
mem,resp,891,1,mem2.3.1.bmp,mem3.1.1.bmp,mem2.2.1.bmp,ACC033,"[0, 3, -3]","[3, -3, -3]","[0, 0, -3]",non-match,1.3030765749413242,4,1.071065598830315,0.8545848119514603,1.4933185375244518,4th,4th,4th,1.3242057709440809,1.2490755070913968,1.2440243205047423
mem,resp,563,1,mem1.2.1.bmp,mem3.1.2.bmp,mem3.1.2.bmp,ACC033,"[-3, 0, -3]","[3, -3, 0]","[3, -3, 0]",match,1.2928932188134525,,1.167900596841025,-0.15043840573828268,1.230468535359481,4th,2nd,4th,1.3242057709440809,-0.29473461818559094,1.2440243205047423
mem,resp,815,1,mem1.2.3.bmp,mem3.3.3.bmp,mem3.2.1.bmp,ACC033,"[-3, 0, 3]","[3, 3, 3]","[3, 0, -3]",non-match,0.5380061947043713,1,1.310963394156738,0.25532302626739634,1.1306412767983443,4th,3rd,4th,1.3242057709440809,0.27517684643567825,1.2440243205047423
mem,resp,448,1,mem1.1.2.bmp,mem1.2.2.bmp,mem1.1.2.bmp,ACC033,"[-3, -3, 0]","[-3, 0, 0]","[-3, -3, 0]",match,1.7113248654051871,,0.7568676923028416,0.9063809751099088,1.2483969699050312,4th,4th,4th,1.3242057709440809,1.2490755070913968,1.2440243205047423
mem,resp,671,1,mem3.2.2.bmp,mem1.3.2.bmp,mem1.3.2.bmp,ACC033,"[3, 0, 0]","[-3, 3, 0]","[-3, 3, 0]",match,1.3545027756320973,,0.1443298322124986,0.05265364619132325,1.1188663948632782,3rd,3rd,4th,0.303238643008691,0.27517684643567825,1.2440243205047423
mem,resp,634,1,mem2.1.2.bmp,mem1.1.3.bmp,mem3.1.1.bmp,ACC033,"[0, -3, 0]","[-3, -3, 3]","[3, -3, -3]",non-match,0.7752551286084112,2,-0.1987241049008024,-1.2430426406343813,1.1427789310661103,2nd,1st,4th,-0.396321462905197,-1.2295177353414843,1.2440243205047423
mem,resp,556,1,mem2.2.3.bmp,mem2.3.3.bmp,mem3.1.3.bmp,ACC033,"[0, 0, 3]","[0, 3, 3]","[3, -3, 3]",non-match,0.9462544851682343,3,0.18780367929672784,1.2320010157550156,1.1110520258433032,3rd,4th,4th,0.303238643008691,1.2490755070913968,1.2440243205047423
mem,resp,599,1,mem3.2.1.bmp,mem3.3.1.bmp,mem3.3.3.bmp,ACC033,"[3, 0, -3]","[3, 3, -3]","[3, 3, 3]",non-match,0.7771525064424715,2,0.7792949155568082,-0.06278708200961758,1.1751019387281103,4th,2nd,4th,1.3242057709440809,-0.29473461818559094,1.2440243205047423
mem,resp,934,1,mem2.1.1.bmp,mem1.2.1.bmp,mem2.2.2.bmp,ACC033,"[0, -3, -3]","[-3, 0, -3]","[0, 0, 0]",non-match,1.1835034190722742,4,-0.4286000111782223,-1.694794800134205,0.9964243238864933,2nd,1st,4th,-0.396321462905197,-1.2295177353414843,1.2440243205047423
mem,resp,881,1,mem2.3.2.bmp,mem1.3.3.bmp,mem1.3.3.bmp,ACC033,"[0, 3, 0]","[-3, 3, 3]","[-3, 3, 3]",match,1.591751709536137,,-0.8960556804425813,-0.6771245808567897,0.873003983748817,1st,1st,3rd,-1.2311229510475747,-1.2295177353414843,0.4204323462858756
mem,resp,665,1,mem1.3.2.bmp,mem3.1.3.bmp,mem3.1.3.bmp,ACC033,"[-3, 3, 0]","[3, -3, 3]","[3, -3, 3]",match,1.1339745962155614,,0.6135773828952873,-0.4313994069937469,0.5333505346601279,3rd,2nd,3rd,0.303238643008691,-0.29473461818559094,0.4204323462858756
mem,resp,1072,0,mem3.1.2.bmp,mem2.1.3.bmp,mem3.2.2.bmp,ACC033,"[3, -3, 0]","[0, -3, 3]","[3, 0, 0]",non-match,1.2113248654051871,4,-0.3610725727015079,-0.21167404599103942,0.5921837387576423,2nd,2nd,3rd,-0.396321462905197,-0.29473461818559094,0.4204323462858756
mem,resp,788,1,mem1.1.1.bmp,mem2.1.2.bmp,mem1.1.1.bmp,ACC033,"[-3, -3, -3]","[0, -3, 0]","[-3, -3, -3]",match,1.591751709536137,,-1.064304682398215,-0.8584202972552097,0.6925254231970973,1st,1st,3rd,-1.2311229510475747,-1.2295177353414843,0.4204323462858756
mem,resp,701,0,mem3.3.1.bmp,mem2.3.1.bmp,mem2.3.1.bmp,ACC033,"[3, 3, -3]","[0, 3, -3]","[0, 3, -3]",match,1.7113248654051871,,0.1283415158767494,-1.9225025966701772,0.6638664421736841,3rd,1st,3rd,0.303238643008691,-1.2295177353414843,0.4204323462858756
mem,resp,814,1,mem3.1.3.bmp,mem1.2.3.bmp,mem3.1.3.bmp,ACC033,"[3, -3, 3]","[-3, 0, 3]","[3, -3, 3]",match,1.3545027756320973,,-0.7436850899774684,0.13530080764003835,0.6125705965839016,2nd,3rd,3rd,-0.396321462905197,0.27517684643567825,0.4204323462858756
mem,resp,930,1,mem3.3.3.bmp,mem3.3.2.bmp,mem2.3.3.bmp,ACC033,"[3, 3, 3]","[3, 3, 0]","[0, 3, 3]",non-match,1.3030765749413242,4,-0.4582796337758488,-0.9455038164996777,0.7241989477864641,2nd,1st,3rd,-0.396321462905197,-1.2295177353414843,0.4204323462858756
mem,resp,645,1,mem2.1.3.bmp,mem2.2.1.bmp,mem1.3.3.bmp,ACC033,"[0, -3, 3]","[0, 0, -3]","[-3, 3, 3]",non-match,0.6473959944455496,1,0.34419268301770406,-0.6356836220485945,0.7757112540875366,3rd,1st,3rd,0.303238643008691,-1.2295177353414843,0.4204323462858756
mem,resp,694,0,mem3.2.3.bmp,mem1.1.2.bmp,mem3.1.2.bmp,ACC033,"[3, 0, 3]","[-3, -3, 0]","[3, -3, 0]",non-match,1.0144014403465114,3,-0.9377591188620281,0.900136177092332,0.7137437932243927,1st,4th,3rd,-1.2311229510475747,1.2490755070913968,0.4204323462858756
mem,resp,607,1,mem3.1.1.bmp,mem2.1.1.bmp,mem2.1.1.bmp,ACC033,"[3, -3, -3]","[0, -3, -3]","[0, -3, -3]",match,1.7113248654051871,,0.5244743760468544,0.7154723948078837,0.7324723475861825,3rd,4th,3rd,0.303238643008691,1.2490755070913968,0.4204323462858756
mem,resp,701,1,mem1.3.1.bmp,mem3.3.2.bmp,mem3.1.3.bmp,ACC033,"[-3, 3, -3]","[3, 3, 0]","[3, -3, 3]",non-match,0.3545027756320972,1,0.9034542618259579,-0.33492250377087884,0.8728947430930372,4th,2nd,3rd,1.3242057709440809,-0.29473461818559094,0.4204323462858756
mem,resp,662,1,mem2.2.1.bmp,mem2.3.1.bmp,mem3.2.1.bmp,ACC033,"[0, 0, -3]","[0, 3, -3]","[3, 0, -3]",non-match,1.3030765749413242,4,-0.4379720441907576,-0.9681410157060685,0.5629210653992478,2nd,1st,3rd,-0.396321462905197,-1.2295177353414843,0.4204323462858756
mem,resp,647,1,mem2.2.2.bmp,mem2.3.3.bmp,mem3.3.1.bmp,ACC033,"[0, 0, 0]","[0, 3, 3]","[3, 3, -3]",non-match,0.8545027756320972,2,1.0746906806186591,1.1101226316593598,0.3664542322137821,4th,4th,3rd,1.3242057709440809,1.2490755070913968,0.4204323462858756
mem,resp,721,0,mem1.2.2.bmp,mem3.2.2.bmp,mem2.3.2.bmp,ACC033,"[-3, 0, 0]","[3, 0, 0]","[0, 3, 0]",non-match,1.1835034190722742,4,-0.19937145132176015,-0.02301347572841146,0.346151414946072,2nd,2nd,3rd,-0.396321462905197,-0.29473461818559094,0.4204323462858756
mem,resp,937,0,mem1.3.3.bmp,mem2.1.3.bmp,mem1.1.2.bmp,ACC033,"[-3, 3, 3]","[0, -3, 3]","[-3, -3, 0]",non-match,0.9462544851682343,3,-1.1187055816206886,0.5505947981454948,0.20867616149202978,1st,3rd,3rd,-1.2311229510475747,0.27517684643567825,0.4204323462858756
mem,resp,588,1,mem3.3.2.bmp,mem3.1.2.bmp,mem1.1.1.bmp,ACC033,"[3, 3, 0]","[3, -3, 0]","[-3, -3, -3]",non-match,0.4884773718476586,1,-0.040901881759622595,-1.114851083908489,0.29332994521855343,3rd,1st,3rd,0.303238643008691,-1.2295177353414843,0.4204323462858756
mem,resp,641,1,mem1.1.3.bmp,mem2.2.3.bmp,mem1.1.3.bmp,ACC033,"[-3, -3, 3]","[0, 0, 3]","[-3, -3, 3]",match,1.591751709536137,,-1.3499321546284155,-0.5076314594738942,0.291486876541702,1st,2nd,3rd,-1.2311229510475747,-0.29473461818559094,0.4204323462858756
mem,resp,814,0,mem2.3.3.bmp,mem1.3.2.bmp,mem3.2.2.bmp,ACC033,"[0, 3, 3]","[-3, 3, 0]","[3, 0, 0]",non-match,0.8545027756320972,2,-1.3867232447689952,-2.291538846750953,0.34597778702462406,1st,1st,3rd,-1.2311229510475747,-1.2295177353414843,0.4204323462858756
mem,resp,770,1,mem3.2.1.bmp,mem1.2.3.bmp,mem3.2.1.bmp,ACC033,"[3, 0, -3]","[-3, 0, 3]","[3, 0, -3]",match,1.1835034190722742,,-0.7783377162379937,-0.1854563332910854,0.29311504677440825,1st,2nd,3rd,-1.2311229510475747,-0.29473461818559094,0.4204323462858756
mem,resp,713,0,mem2.1.1.bmp,mem2.3.2.bmp,mem2.1.2.bmp,ACC033,"[0, -3, -3]","[0, 3, 0]","[0, -3, 0]",non-match,1.1339745962155614,4,0.027961428635332675,-1.1129137449260997,0.12174465094309717,3rd,1st,3rd,0.303238643008691,-1.2295177353414843,0.4204323462858756
mem,resp,596,1,mem3.3.3.bmp,mem1.1.3.bmp,mem3.3.3.bmp,ACC033,"[3, 3, 3]","[-3, -3, 3]","[3, 3, 3]",match,1.1835034190722742,,1.1764752314019218,0.38461454739591894,0.20877949520596448,4th,3rd,3rd,1.3242057709440809,0.27517684643567825,0.4204323462858756
mem,resp,711,1,mem1.3.3.bmp,mem3.3.1.bmp,mem3.2.2.bmp,ACC033,"[-3, 3, 3]","[3, 3, -3]","[3, 0, 0]",non-match,0.8846449283495895,2,1.3516029554104114,0.32218002397012874,-0.006755900465758653,4th,3rd,2nd,1.3242057709440809,0.27517684643567825,-0.32088036504409995
mem,resp,623,1,mem3.1.1.bmp,mem2.2.2.bmp,mem1.2.1.bmp,ACC033,"[3, -3, -3]","[0, 0, 0]","[-3, 0, -3]",non-match,0.9462544851682343,3,1.1934681615195581,-0.38160884917678883,0.17704952244577637,4th,2nd,3rd,1.3242057709440809,-0.29473461818559094,0.4204323462858756
mem,resp,908,0,mem1.3.1.bmp,mem1.2.2.bmp,mem1.2.2.bmp,ACC033,"[-3, 3, -3]","[-3, 0, 0]","[-3, 0, 0]",match,1.591751709536137,,-0.5218085072538623,0.8289139462632381,0.10338459079210643,2nd,4th,3rd,-0.396321462905197,1.2490755070913968,0.4204323462858756
mem,resp,541,1,mem2.3.2.bmp,mem3.3.3.bmp,mem2.3.2.bmp,ACC033,"[0, 3, 0]","[3, 3, 3]","[0, 3, 0]",match,1.591751709536137,,0.5924479729142952,-0.20475519054030958,-0.23035483589304853,3rd,2nd,2nd,0.303238643008691,-0.29473461818559094,-0.32088036504409995
mem,resp,552,1,mem3.3.1.bmp,mem3.1.3.bmp,mem3.1.3.bmp,ACC033,"[3, 3, -3]","[3, -3, 3]","[3, -3, 3]",match,1.1835034190722742,,-0.43515331900068616,-0.3731904269276411,0.0879158486532792,2nd,2nd,3rd,-0.396321462905197,-0.29473461818559094,0.4204323462858756
mem,resp,595,1,mem2.2.2.bmp,mem2.1.2.bmp,mem2.1.2.bmp,ACC033,"[0, 0, 0]","[0, -3, 0]","[0, -3, 0]",match,1.7113248654051871,,1.3642375023366322,1.0012115249142366,-0.14185214365241056,4th,4th,2nd,1.3242057709440809,1.2490755070913968,-0.32088036504409995
mem,resp,861,1,mem1.1.3.bmp,mem1.1.1.bmp,mem1.1.3.bmp,ACC033,"[-3, -3, 3]","[-3, -3, -3]","[-3, -3, 3]",match,1.4226497308103743,,-1.5432887344128865,-0.8731911205176665,-0.18801339601051142,1st,1st,2nd,-1.2311229510475747,-1.2295177353414843,-0.32088036504409995
mem,resp,762,1,mem2.2.1.bmp,mem2.1.1.bmp,mem2.2.1.bmp,ACC033,"[0, 0, -3]","[0, -3, -3]","[0, 0, -3]",match,1.7113248654051871,,-1.0220421298955626,-1.3308414306906051,-0.19672629749480766,1st,1st,2nd,-1.2311229510475747,-1.2295177353414843,-0.32088036504409995
mem,resp,675,1,mem1.2.2.bmp,mem1.1.2.bmp,mem3.3.2.bmp,ACC033,"[-3, 0, 0]","[-3, -3, 0]","[3, 3, 0]",non-match,0.5380061947043713,1,0.8127054964879147,-0.022271039519000446,-0.12592957419299344,4th,2nd,2nd,1.3242057709440809,-0.29473461818559094,-0.32088036504409995
mem,resp,851,0,mem3.1.2.bmp,mem3.2.3.bmp,mem3.2.1.bmp,ACC033,"[3, -3, 0]","[3, 0, 3]","[3, 0, -3]",non-match,1.0144014403465114,3,-0.9849722867286705,-1.6780303848777758,-0.22264730801535462,1st,1st,2nd,-1.2311229510475747,-1.2295177353414843,-0.32088036504409995
mem,resp,694,1,mem3.2.3.bmp,mem1.2.3.bmp,mem3.2.3.bmp,ACC033,"[3, 0, 3]","[-3, 0, 3]","[3, 0, 3]",match,1.4226497308103743,,-0.22337037564333823,-0.14508321880578848,-0.20210422531489425,2nd,2nd,2nd,-0.396321462905197,-0.29473461818559094,-0.32088036504409995
mem,resp,475,1,mem1.1.1.bmp,mem2.2.3.bmp,mem1.1.1.bmp,ACC033,"[-3, -3, -3]","[0, 0, 3]","[-3, -3, -3]",match,1.2928932188134525,,1.7457535527373444,1.32883352358865,-0.3157372603470564,4th,4th,2nd,1.3242057709440809,1.2490755070913968,-0.32088036504409995
mem,resp,496,0,mem1.3.3.bmp,mem3.2.2.bmp,mem2.2.2.bmp,ACC033,"[-3, 3, 3]","[3, 0, 0]","[0, 0, 0]",non-match,1.2113248654051871,4,-0.20665607762226487,0.589258472369539,-0.5815137422901687,2nd,3rd,2nd,-0.396321462905197,0.27517684643567825,-0.32088036504409995
mem,resp,647,1,mem1.1.3.bmp,mem2.3.2.bmp,mem2.1.1.bmp,ACC033,"[-3, -3, 3]","[0, 3, 0]","[0, -3, -3]",non-match,0.7090055512641944,2,1.4359967210403302,0.2694846234871345,-0.8903001322512969,4th,3rd,1st,1.3242057709440809,0.27517684643567825,-1.3435763017465174
mem,resp,845,0,mem2.1.2.bmp,mem2.3.1.bmp,mem2.3.1.bmp,ACC033,"[0, -3, 0]","[0, 3, -3]","[0, 3, -3]",match,1.3545027756320973,,-1.0658878065503166,0.20290142401412256,-1.0643658449894078,1st,3rd,1st,-1.2311229510475747,0.27517684643567825,-1.3435763017465174
mem,resp,758,1,mem2.1.3.bmp,mem3.1.3.bmp,mem3.3.3.bmp,ACC033,"[0, -3, 3]","[3, -3, 3]","[3, 3, 3]",non-match,0.7771525064424715,2,0.6616211352469825,0.16233391944748143,-1.141362371366789,3rd,3rd,1st,0.303238643008691,0.27517684643567825,-1.3435763017465174
mem,resp,1001,1,mem3.1.2.bmp,mem1.1.1.bmp,mem1.2.3.bmp,ACC033,"[3, -3, 0]","[-3, -3, -3]","[-3, 0, 3]",non-match,0.6473959944455496,1,-0.8520748226953171,0.0391938651151634,-1.065089050605649,1st,3rd,1st,-1.2311229510475747,0.27517684643567825,-1.3435763017465174
mem,resp,856,0,mem1.1.2.bmp,mem3.2.1.bmp,mem2.2.1.bmp,ACC033,"[-3, -3, 0]","[3, 0, -3]","[0, 0, -3]",non-match,1.2113248654051871,4,-0.12487884932917431,1.5744457244549457,-1.079000906818055,3rd,4th,1st,0.303238643008691,1.2490755070913968,-1.3435763017465174
mem,resp,539,1,mem2.2.2.bmp,mem1.3.3.bmp,mem1.3.3.bmp,ACC033,"[0, 0, 0]","[-3, 3, 3]","[-3, 3, 3]",match,1.5,,1.8516992366627043,1.1648826106913528,-0.9398032788311149,4th,4th,1st,1.3242057709440809,1.2490755070913968,-1.3435763017465174
mem,resp,652,1,mem1.3.1.bmp,mem1.1.3.bmp,mem2.1.1.bmp,ACC033,"[-3, 3, -3]","[-3, -3, 3]","[0, -3, -3]",non-match,0.7090055512641944,2,1.2845771225794356,-0.8033315459222348,-0.9930454947347084,4th,1st,1st,1.3242057709440809,-1.2295177353414843,-1.3435763017465174
mem,resp,726,0,mem2.2.3.bmp,mem3.3.1.bmp,mem2.3.2.bmp,ACC033,"[0, 0, 3]","[3, 3, -3]","[0, 3, 0]",non-match,1.1835034190722742,4,-1.095135692354938,-0.15781018158480406,-1.1881583230393566,1st,2nd,1st,-1.2311229510475747,-0.29473461818559094,-1.3435763017465174
mem,resp,537,1,mem1.2.2.bmp,mem1.2.1.bmp,mem1.2.1.bmp,ACC033,"[-3, 0, 0]","[-3, 0, -3]","[-3, 0, -3]",match,1.7113248654051871,,1.943497173104005,0.853503941811018,-1.2081125329709752,4th,4th,1st,1.3242057709440809,1.2490755070913968,-1.3435763017465174
mem,resp,580,0,mem3.2.2.bmp,mem1.1.2.bmp,mem3.2.3.bmp,ACC033,"[3, 0, 0]","[-3, -3, 0]","[3, 0, 3]",non-match,1.0042180842186395,3,-0.771015216731948,-0.5138045717771967,-0.9789309408612461,2nd,2nd,1st,-0.396321462905197,-0.29473461818559094,-1.3435763017465174
mem,resp,573,1,mem1.3.2.bmp,mem2.3.3.bmp,mem3.3.2.bmp,ACC033,"[-3, 3, 0]","[0, 3, 3]","[3, 3, 0]",non-match,1.0144014403465114,3,1.7475584241011182,1.6347480191851962,-0.9061407329335923,4th,4th,1st,1.3242057709440809,1.2490755070913968,-1.3435763017465174
mem,resp,634,1,mem3.3.1.bmp,mem1.3.1.bmp,mem1.3.1.bmp,ACC033,"[3, 3, -3]","[-3, 3, -3]","[-3, 3, -3]",match,1.4226497308103743,,-0.31928685464440554,0.795023504498383,-1.16104822358621,2nd,4th,1st,-0.396321462905197,1.2490755070913968,-1.3435763017465174
mem,resp,517,1,mem3.3.3.bmp,mem3.1.2.bmp,mem3.1.2.bmp,ACC033,"[3, 3, 3]","[3, -3, 0]","[3, -3, 0]",match,1.3545027756320973,,1.15255408402545,2.6308854684024987,-1.029518624190653,4th,4th,1st,1.3242057709440809,1.2490755070913968,-1.3435763017465174
mem,resp,588,1,mem3.1.1.bmp,mem2.1.2.bmp,mem1.1.3.bmp,ACC033,"[3, -3, -3]","[0, -3, 0]","[-3, -3, 3]",non-match,0.7752551286084112,2,2.056331717597128,1.4537749837433216,-1.0565644943636807,4th,4th,1st,1.3242057709440809,1.2490755070913968,-1.3435763017465174
mem,resp,592,1,mem2.2.1.bmp,mem2.2.2.bmp,mem2.2.1.bmp,ACC033,"[0, 0, -3]","[0, 0, 0]","[0, 0, -3]",match,1.7113248654051871,,2.166466404262677,1.773837852971139,-0.9294127514367339,4th,4th,1st,1.3242057709440809,1.2490755070913968,-1.3435763017465174
mem,resp,1069,1,mem3.2.1.bmp,mem3.3.2.bmp,mem3.2.1.bmp,ACC033,"[3, 0, -3]","[3, 3, 0]","[3, 0, -3]",match,1.591751709536137,,0.4300175693625977,-0.6401443597946842,-1.1076748987656062,3rd,1st,1st,0.303238643008691,-1.2295177353414843,-1.3435763017465174
mem,resp,682,1,mem2.3.1.bmp,mem3.2.3.bmp,mem2.1.3.bmp,ACC033,"[0, 3, -3]","[3, 0, 3]","[0, -3, 3]",non-match,0.7752551286084112,2,-0.29323872494339853,-1.6690081898588927,-0.9396453882869364,2nd,1st,1st,-0.396321462905197,-1.2295177353414843,-1.3435763017465174
mem,resp,474,1,mem1.2.3.bmp,mem2.1.1.bmp,mem2.1.1.bmp,ACC033,"[-3, 0, 3]","[0, -3, -3]","[0, -3, -3]",match,1.2928932188134525,,0.7844819109542943,0.832838037813636,-1.0468371714121563,4th,4th,1st,1.3242057709440809,1.2490755070913968,-1.3435763017465174
mem,resp,769,1,mem1.2.1.bmp,mem1.3.2.bmp,mem1.2.1.bmp,ACC033,"[-3, 0, -3]","[-3, 3, 0]","[-3, 0, -3]",match,1.591751709536137,,0.27658843518345755,-0.776436680153729,-0.8839072240622758,3rd,1st,1st,0.303238643008691,-1.2295177353414843,-1.3435763017465174
mem,resp,642,0,mem2.3.3.bmp,mem1.3.1.bmp,mem2.2.3.bmp,ACC033,"[0, 3, 3]","[-3, 3, -3]","[0, 0, 3]",non-match,1.0042180842186395,3,0.4719550563210246,-0.1778795834961282,-0.6841886182455436,3rd,2nd,2nd,0.303238643008691,-0.29473461818559094,-0.32088036504409995
mem,resp,725,1,mem3.3.2.bmp,mem2.2.1.bmp,mem3.3.3.bmp,ACC033,"[3, 3, 0]","[0, 0, -3]","[3, 3, 3]",non-match,1.0042180842186395,3,0.09964434733343634,-0.29005689993821726,-0.8071567068401146,3rd,2nd,1st,0.303238643008691,-0.29473461818559094,-1.3435763017465174
mem,resp,731,1,mem2.1.1.bmp,mem1.1.3.bmp,mem1.2.3.bmp,ACC033,"[0, -3, -3]","[-3, -3, 3]","[-3, 0, 3]",non-match,1.0042180842186395,3,0.38125949775530577,0.8211171086577115,-0.6378136208955515,3rd,4th,2nd,0.303238643008691,1.2490755070913968,-0.32088036504409995
mem,resp,786,1,mem3.1.3.bmp,mem3.1.1.bmp,mem3.1.3.bmp,ACC033,"[3, -3, 3]","[3, -3, -3]","[3, -3, 3]",match,1.4226497308103743,,-1.5161950657947838,-0.733913142047955,-0.5298633544794332,1st,1st,2nd,-1.2311229510475747,-1.2295177353414843,-0.32088036504409995
mem,resp,734,1,mem3.2.2.bmp,mem2.2.2.bmp,mem2.2.3.bmp,ACC033,"[3, 0, 0]","[0, 0, 0]","[0, 0, 3]",non-match,1.3030765749413242,4,-0.5729489789572421,0.17556939915150743,-0.6168062260248792,2nd,3rd,2nd,-0.396321462905197,0.27517684643567825,-0.32088036504409995
mem,resp,528,1,mem2.2.1.bmp,mem3.2.3.bmp,mem1.2.2.bmp,ACC033,"[0, 0, -3]","[3, 0, 3]","[-3, 0, 0]",non-match,0.9462544851682343,3,1.5231928257088758,0.7076358364737749,-0.7049571824058334,4th,4th,2nd,1.3242057709440809,1.2490755070913968,-0.32088036504409995
mem,resp,707,1,mem2.1.3.bmp,mem2.3.1.bmp,mem2.3.1.bmp,ACC033,"[0, -3, 3]","[0, 3, -3]","[0, 3, -3]",match,1.1835034190722742,,-1.1639001340317072,-0.9326858770141764,-0.7358171062199158,1st,1st,1st,-1.2311229510475747,-1.2295177353414843,-1.3435763017465174
mem,resp,672,1,mem2.1.1.bmp,mem2.3.2.bmp,mem3.1.3.bmp,ACC033,"[0, -3, -3]","[0, 3, 0]","[3, -3, 3]",non-match,0.6473959944455496,1,0.45745761879798985,1.0903717200428082,-0.6920236353934823,3rd,4th,2nd,0.303238643008691,1.2490755070913968,-0.32088036504409995
mem,resp,835,1,mem3.2.1.bmp,mem2.1.2.bmp,mem2.1.2.bmp,ACC033,"[3, 0, -3]","[0, -3, 0]","[0, -3, 0]",match,1.5,,-0.8536215321809125,0.4569093045142936,-0.8302697639156825,1st,3rd,1st,-1.2311229510475747,0.27517684643567825,-1.3435763017465174
mem,resp,1130,0,mem3.1.1.bmp,mem2.2.3.bmp,mem2.2.3.bmp,ACC033,"[3, -3, -3]","[0, 0, 3]","[0, 0, 3]",match,1.2928932188134525,,-0.748914446078857,-0.012028054554187217,-0.6739012707830876,2nd,2nd,2nd,-0.396321462905197,-0.29473461818559094,-0.32088036504409995
mem,resp,916,1,mem3.1.2.bmp,mem1.2.2.bmp,mem3.1.2.bmp,ACC033,"[3, -3, 0]","[-3, 0, 0]","[3, -3, 0]",match,1.3545027756320973,,-0.35603191517216826,-0.031619017375225544,-0.6203826499471456,2nd,2nd,2nd,-0.396321462905197,-0.29473461818559094,-0.32088036504409995
mem,resp,802,1,mem2.3.2.bmp,mem3.2.2.bmp,mem2.3.2.bmp,ACC033,"[0, 3, 0]","[3, 0, 0]","[0, 3, 0]",match,1.591751709536137,,-1.5190596142177597,-0.6387548171244585,-0.704036322823976,1st,1st,2nd,-1.2311229510475747,-1.2295177353414843,-0.32088036504409995
mem,resp,917,1,mem1.3.3.bmp,mem3.2.1.bmp,mem2.2.1.bmp,ACC033,"[-3, 3, 3]","[3, 0, -3]","[0, 0, -3]",non-match,1.0042180842186395,3,-1.3121717404625652,-0.024381883973240367,-0.6777904054345386,1st,2nd,2nd,-1.2311229510475747,-0.29473461818559094,-0.32088036504409995
mem,resp,720,1,mem2.2.3.bmp,mem1.1.2.bmp,mem1.1.2.bmp,ACC033,"[0, 0, 3]","[-3, -3, 0]","[-3, -3, 0]",match,1.5,,0.32046593135422136,-0.27213224249917406,-0.8868152392250195,3rd,2nd,1st,0.303238643008691,-0.29473461818559094,-1.3435763017465174
mem,resp,554,0,mem1.1.3.bmp,mem2.3.3.bmp,mem1.2.3.bmp,ACC033,"[-3, -3, 3]","[0, 3, 3]","[-3, 0, 3]",non-match,1.3030765749413242,4,0.7873033420833592,-0.13556100268439664,-0.8315338143975659,4th,2nd,1st,1.3242057709440809,-0.29473461818559094,-1.3435763017465174
mem,resp,797,1,mem1.2.2.bmp,mem3.3.1.bmp,mem1.2.2.bmp,ACC033,"[-3, 0, 0]","[3, 3, -3]","[-3, 0, 0]",match,1.2928932188134525,,-0.27917067088989256,0.272561922398229,-0.6935096664111235,2nd,3rd,2nd,-0.396321462905197,0.27517684643567825,-0.32088036504409995
mem,resp,660,1,mem1.2.1.bmp,mem1.3.3.bmp,mem2.2.1.bmp,ACC033,"[-3, 0, -3]","[-3, 3, 3]","[0, 0, -3]",non-match,1.0042180842186395,3,-1.018935885696417,-0.8364511203461151,-0.7453124050964798,1st,1st,1st,-1.2311229510475747,-1.2295177353414843,-1.3435763017465174
mem,resp,558,1,mem2.1.2.bmp,mem2.1.1.bmp,mem2.1.1.bmp,ACC033,"[0, -3, 0]","[0, -3, -3]","[0, -3, -3]",match,1.7113248654051871,,0.9322560154723419,1.2810418094294076,-0.670331404995429,4th,4th,2nd,1.3242057709440809,1.2490755070913968,-0.32088036504409995
mem,resp,721,1,mem1.2.2.bmp,mem1.1.3.bmp,mem1.1.3.bmp,ACC033,"[-3, 0, 0]","[-3, -3, 3]","[-3, -3, 3]",match,1.591751709536137,,0.8702493167643852,0.6524243235242523,-0.8248771440679905,4th,4th,1st,1.3242057709440809,1.2490755070913968,-1.3435763017465174
mem,resp,736,1,mem1.2.3.bmp,mem3.1.2.bmp,mem1.2.3.bmp,ACC033,"[-3, 0, 3]","[3, -3, 0]","[-3, 0, 3]",match,1.2928932188134525,,-0.9026420444437309,-1.1462315253692432,-0.6106863484776662,1st,1st,2nd,-1.2311229510475747,-1.2295177353414843,-0.32088036504409995
mem,resp,665,0,mem3.2.2.bmp,mem1.2.1.bmp,mem2.3.3.bmp,ACC033,"[3, 0, 0]","[-3, 0, -3]","[0, 3, 3]",non-match,0.7928932188134524,2,-1.0607818368147157,0.3935049957529419,-0.8938870880472797,1st,3rd,1st,-1.2311229510475747,0.27517684643567825,-1.3435763017465174
mem,resp,706,0,mem3.2.1.bmp,mem1.1.2.bmp,mem2.1.3.bmp,ACC033,"[3, 0, -3]","[-3, -3, 0]","[0, -3, 3]",non-match,0.8846449283495895,2,1.5966608910966285,1.5729351043437183,-0.7855119395979473,4th,4th,1st,1.3242057709440809,1.2490755070913968,-1.3435763017465174
mem,resp,477,1,mem1.3.1.bmp,mem1.3.2.bmp,mem3.2.3.bmp,ACC033,"[-3, 3, -3]","[-3, 3, 0]","[3, 0, 3]",non-match,0.42686781502901383,1,2.837864739426894,2.7061393448554414,-0.6279943166041853,4th,4th,2nd,1.3242057709440809,1.2490755070913968,-0.32088036504409995
mem,resp,680,1,mem3.3.2.bmp,mem3.3.1.bmp,mem3.3.2.bmp,ACC033,"[3, 3, 0]","[3, 3, -3]","[3, 3, 0]",match,1.7113248654051871,,0.37097379751713067,-0.3310341525490075,-0.6169177095844446,3rd,2nd,2nd,0.303238643008691,-0.29473461818559094,-0.32088036504409995
mem,resp,855,1,mem3.1.3.bmp,mem3.3.3.bmp,mem2.2.3.bmp,ACC033,"[3, -3, 3]","[3, 3, 3]","[0, 0, 3]",non-match,1.1835034190722742,4,-1.5219913043064452,-0.6991466625287485,-0.7131872245724766,1st,1st,2nd,-1.2311229510475747,-1.2295177353414843,-0.32088036504409995
mem,resp,698,1,mem2.2.2.bmp,mem1.2.2.bmp,mem2.2.2.bmp,ACC033,"[0, 0, 0]","[-3, 0, 0]","[0, 0, 0]",match,1.7113248654051871,,-1.3173867337370369,0.30607915585835144,-0.5171911053357421,1st,3rd,2nd,-1.2311229510475747,0.27517684643567825,-0.32088036504409995
mem,resp,520,1,mem2.1.3.bmp,mem1.3.3.bmp,mem2.1.3.bmp,ACC033,"[0, -3, 3]","[-3, 3, 3]","[0, -3, 3]",match,1.3545027756320973,,1.4192775431116382,2.1583804051508833,-0.40790729428570643,4th,4th,2nd,1.3242057709440809,1.2490755070913968,-0.32088036504409995
mem,resp,955,1,mem2.3.1.bmp,mem2.3.2.bmp,mem2.3.1.bmp,ACC033,"[0, 3, -3]","[0, 3, 0]","[0, 3, -3]",match,1.7113248654051871,,-1.361166931617356,0.05833042946298434,-0.3645656405757434,1st,3rd,2nd,-1.2311229510475747,0.27517684643567825,-0.32088036504409995
mem,resp,628,1,mem1.3.2.bmp,mem2.3.3.bmp,mem1.3.2.bmp,ACC033,"[-3, 3, 0]","[0, 3, 3]","[-3, 3, 0]",match,1.591751709536137,,0.4318900541715915,0.2626057927076682,-0.15755196447599154,3rd,3rd,2nd,0.303238643008691,0.27517684643567825,-0.32088036504409995
mem,resp,689,1,mem3.3.1.bmp,mem2.2.3.bmp,mem2.2.3.bmp,ACC033,"[3, 3, -3]","[0, 0, 3]","[0, 0, 3]",match,1.2928932188134525,,-0.5021249089989228,-1.5017214623086481,-0.055473562974610445,2nd,1st,2nd,-0.396321462905197,-1.2295177353414843,-0.32088036504409995
mem,resp,723,1,mem1.2.1.bmp,mem2.2.2.bmp,mem1.1.1.bmp,ACC033,"[-3, 0, -3]","[0, 0, 0]","[-3, -3, -3]",non-match,1.2113248654051871,4,0.5882283001433338,-0.17148787707317636,-0.20554616704804501,3rd,2nd,2nd,0.303238643008691,-0.29473461818559094,-0.32088036504409995
mem,resp,756,1,mem1.1.3.bmp,mem3.3.2.bmp,mem3.3.2.bmp,ACC033,"[-3, -3, 3]","[3, 3, 0]","[3, 3, 0]",match,1.1339745962155614,,-1.336715257316683,-1.568646457818386,-0.028665323774242097,1st,1st,2nd,-1.2311229510475747,-1.2295177353414843,-0.32088036504409995
mem,resp,477,1,mem2.1.1.bmp,mem3.2.1.bmp,mem3.2.1.bmp,ACC033,"[0, -3, -3]","[3, 0, -3]","[3, 0, -3]",match,1.591751709536137,,0.3730603612120828,0.06045486390234925,0.06127144510405656,3rd,3rd,2nd,0.303238643008691,0.27517684643567825,-0.32088036504409995
mem,resp,1202,1,mem3.1.2.bmp,mem1.2.3.bmp,mem1.3.3.bmp,ACC033,"[3, -3, 0]","[-3, 0, 3]","[-3, 3, 3]",non-match,0.8452994616207485,2,-0.7049203276142842,-0.18284397508431638,0.15179401978946208,2nd,2nd,3rd,-0.396321462905197,-0.29473461818559094,0.4204323462858756
mem,resp,686,1,mem3.3.3.bmp,mem2.3.1.bmp,mem3.3.3.bmp,ACC033,"[3, 3, 3]","[0, 3, -3]","[3, 3, 3]",match,1.3545027756320973,,-0.6183013519289622,0.4127906169229039,0.18108805065022493,2nd,3rd,3rd,-0.396321462905197,0.27517684643567825,0.4204323462858756
mem,resp,529,1,mem3.2.3.bmp,mem3.1.3.bmp,mem3.2.3.bmp,ACC033,"[3, 0, 3]","[3, -3, 3]","[3, 0, 3]",match,1.7113248654051871,,-1.1843494416436595,-1.7536834713073588,0.142857281685738,1st,1st,3rd,-1.2311229510475747,-1.2295177353414843,0.4204323462858756
mem,resp,640,1,mem2.2.1.bmp,mem3.1.1.bmp,mem1.2.1.bmp,ACC033,"[0, 0, -3]","[3, -3, -3]","[-3, 0, -3]",non-match,1.0658276410372842,4,-0.1450899024484111,-0.9916560664343561,0.16915426882526044,2nd,1st,3rd,-0.396321462905197,-1.2295177353414843,0.4204323462858756
mem,resp,826,0,mem1.1.1.bmp,mem2.2.2.bmp,mem1.1.1.bmp,ACC033,"[-3, -3, -3]","[0, 0, 0]","[-3, -3, -3]",match,1.5,,-1.2905294194723222,-0.47872894507799096,0.017816841979042267,1st,2nd,2nd,-1.2311229510475747,-0.29473461818559094,-0.32088036504409995
mem,resp,597,1,mem1.1.2.bmp,mem1.2.3.bmp,mem1.1.2.bmp,ACC033,"[-3, -3, 0]","[-3, 0, 3]","[-3, -3, 0]",match,1.591751709536137,,1.5133069941878625,0.2490088460463516,-0.03146611523844946,4th,3rd,2nd,1.3242057709440809,0.27517684643567825,-0.32088036504409995
mem,resp,762,0,mem2.3.2.bmp,mem2.2.3.bmp,mem2.3.2.bmp,ACC033,"[0, 3, 0]","[0, 0, 3]","[0, 3, 0]",match,1.591751709536137,,-0.16178281368424466,0.28605894269833376,0.1627442240859443,2nd,3rd,3rd,-0.396321462905197,0.27517684643567825,0.4204323462858756
mem,resp,482,0,mem1.3.3.bmp,mem2.1.2.bmp,mem1.2.2.bmp,ACC033,"[-3, 3, 3]","[0, -3, 0]","[-3, 0, 0]",non-match,1.1835034190722742,4,1.1999447987083405,-0.3228008032889207,0.0660248939783243,4th,2nd,2nd,1.3242057709440809,-0.29473461818559094,-0.32088036504409995
mem,resp,446,1,mem3.1.1.bmp,mem3.2.2.bmp,mem3.1.1.bmp,ACC033,"[3, -3, -3]","[3, 0, 0]","[3, -3, -3]",match,1.591751709536137,,0.4858530011099663,1.5883155700087317,0.021646191338163992,3rd,4th,2nd,0.303238643008691,1.2490755070913968,-0.32088036504409995
mem,resp,637,1,mem2.3.3.bmp,mem2.3.1.bmp,mem1.1.1.bmp,ACC033,"[0, 3, 3]","[0, 3, -3]","[-3, -3, -3]",non-match,0.4884773718476586,1,-0.2889206296262701,-1.1926112467357746,-0.006899022659603901,2nd,1st,2nd,-0.396321462905197,-1.2295177353414843,-0.32088036504409995
mem,resp,882,1,mem2.2.3.bmp,mem2.1.3.bmp,mem2.1.1.bmp,ACC033,"[0, 0, 3]","[0, -3, 3]","[0, -3, -3]",non-match,0.7771525064424715,2,-1.1436211106809495,-0.783863223973391,0.11037325344027718,1st,1st,3rd,-1.2311229510475747,-1.2295177353414843,0.4204323462858756
mem,resp,1019,0,mem1.3.2.bmp,mem3.3.3.bmp,mem3.2.3.bmp,ACC033,"[-3, 3, 0]","[3, 3, 3]","[3, 0, 3]",non-match,1.0042180842186395,3,-0.26365072600633416,0.29839675059080606,0.014270622910176367,2nd,3rd,2nd,-0.396321462905197,0.27517684643567825,-0.32088036504409995
mem,resp,531,1,mem2.2.2.bmp,mem3.2.1.bmp,mem1.2.1.bmp,ACC033,"[0, 0, 0]","[3, 0, -3]","[-3, 0, -3]",non-match,1.0144014403465114,3,1.2698845694966374,0.7481326597942526,0.08252204088294146,4th,4th,3rd,1.3242057709440809,1.2490755070913968,0.4204323462858756
mem,resp,584,1,mem3.1.2.bmp,mem3.1.3.bmp,mem3.1.3.bmp,ACC033,"[3, -3, 0]","[3, -3, 3]","[3, -3, 3]",match,1.7113248654051871,,1.8097448269679155,0.5289725988713143,-0.0966441695517099,4th,3rd,2nd,1.3242057709440809,0.27517684643567825,-0.32088036504409995
mem,resp,657,1,mem2.1.2.bmp,mem3.3.2.bmp,mem2.1.2.bmp,ACC033,"[0, -3, 0]","[3, 3, 0]","[0, -3, 0]",match,1.3545027756320973,,-0.30978878210673766,-0.41175864753603786,-0.06107152925887327,2nd,2nd,2nd,-0.396321462905197,-0.29473461818559094,-0.32088036504409995
mem,resp,903,0,mem3.1.1.bmp,mem1.3.3.bmp,mem1.3.2.bmp,ACC033,"[3, -3, -3]","[-3, 3, 3]","[-3, 3, 0]",non-match,0.8452994616207485,2,0.2876654517938642,1.3320737357773071,-0.04465863388715421,3rd,4th,2nd,0.303238643008691,1.2490755070913968,-0.32088036504409995
mem,resp,1038,1,mem3.2.1.bmp,mem2.1.1.bmp,mem3.2.2.bmp,ACC033,"[3, 0, -3]","[0, -3, -3]","[3, 0, 0]",non-match,1.2113248654051871,4,-0.8624706358623235,-1.8523935829773692,0.1181442030688365,1st,1st,3rd,-1.2311229510475747,-1.2295177353414843,0.4204323462858756
mem,resp,853,1,mem1.3.1.bmp,mem1.2.2.bmp,mem1.2.3.bmp,ACC033,"[-3, 3, -3]","[-3, 0, 0]","[-3, 0, 3]",non-match,1.0658276410372842,4,-0.5392122048082559,0.3960739692645516,0.01189715626102264,2nd,3rd,2nd,-0.396321462905197,0.27517684643567825,-0.32088036504409995
mem,resp,879,1,mem3.1.3.bmp,mem1.2.1.bmp,mem2.3.3.bmp,ACC033,"[3, -3, 3]","[-3, 0, -3]","[0, 3, 3]",non-match,0.6473959944455496,1,0.13537368773539632,0.17055289596594733,-0.16669048005154682,3rd,3rd,2nd,0.303238643008691,0.27517684643567825,-0.32088036504409995
mem,resp,680,0,mem3.3.3.bmp,mem1.1.2.bmp,mem3.3.2.bmp,ACC033,"[3, 3, 3]","[-3, -3, 0]","[3, 3, 0]",non-match,0.8948282844774612,2,0.28064989370032994,-0.07420293598476191,-0.025966861087840073,3rd,2nd,2nd,0.303238643008691,-0.29473461818559094,-0.32088036504409995
mem,resp,745,1,mem2.3.2.bmp,mem1.1.3.bmp,mem3.1.1.bmp,ACC033,"[0, 3, 0]","[-3, -3, 3]","[3, -3, -3]",non-match,0.4763966378857265,1,0.7117911080675898,1.0092322475320579,-0.16712626562821326,4th,4th,2nd,1.3242057709440809,1.2490755070913968,-0.32088036504409995
mem,resp,707,0,mem1.2.3.bmp,mem2.2.1.bmp,mem1.3.3.bmp,ACC033,"[-3, 0, 3]","[0, 0, -3]","[-3, 3, 3]",non-match,1.0042180842186395,3,0.4570697159697923,0.6156245757158928,-0.23150479888204176,3rd,3rd,2nd,0.303238643008691,0.27517684643567825,-0.32088036504409995
mem,resp,590,1,mem3.2.3.bmp,mem3.3.1.bmp,mem3.2.3.bmp,ACC033,"[3, 0, 3]","[3, 3, -3]","[3, 0, 3]",match,1.3545027756320973,,-0.3762764287871826,0.055383667688419555,-0.055259075397303535,2nd,3rd,2nd,-0.396321462905197,0.27517684643567825,-0.32088036504409995
mem,resp,633,1,mem1.1.1.bmp,mem1.3.2.bmp,mem3.2.2.bmp,ACC033,"[-3, -3, -3]","[-3, 3, 0]","[3, 0, 0]",non-match,0.6473959944455496,1,0.3108930106630851,-0.17887470016425697,-0.1727867433951182,3rd,2nd,2nd,0.303238643008691,-0.29473461818559094,-0.32088036504409995
