mode,type,rt,acc,item_1,item_2,item_cue,subj_idx,item_1_number,item_2_number,item_cue_number,trial_type,summed_similarity,similarity_bin,ams,pams,slps,ams_quantile,pams_quantile,slps_quantile,ams_bin,pam_bin,slp_bin
mem,resp,914,0,mem2.3.1.bmp,mem3.1.1.bmp,mem2.2.1.bmp,ACC031,"[0, 3, -3]","[3, -3, -3]","[0, 0, -3]",non-match,1.3030765749413242,4,-0.8136544908395023,0.9778018570532157,-1.3057917310132892,1st,4th,1st,-1.2850505989406478,1.3095207568324363,-1.1336579735535868
mem,resp,804,0,mem1.2.1.bmp,mem3.1.2.bmp,mem3.1.2.bmp,ACC031,"[-3, 0, -3]","[3, -3, 0]","[3, -3, 0]",match,1.2928932188134525,,-0.5388718673285505,-0.3951544863721295,-1.3027476993767024,2nd,2nd,1st,-0.2996502577125311,-0.3857567763323112,-1.1336579735535868
mem,resp,838,1,mem1.1.2.bmp,mem1.2.2.bmp,mem1.1.2.bmp,ACC031,"[-3, -3, 0]","[-3, 0, 0]","[-3, -3, 0]",match,1.7113248654051871,,-1.9634391013232781,-0.9101669221616411,-1.5820758767840173,1st,1st,1st,-1.2850505989406478,-1.2299047342055414,-1.1336579735535868
mem,resp,1130,0,mem3.2.2.bmp,mem1.3.2.bmp,mem1.3.2.bmp,ACC031,"[3, 0, 0]","[-3, 3, 0]","[-3, 3, 0]",match,1.3545027756320973,,-0.07327251173294703,0.9572377145157704,-1.274941465296106,2nd,4th,1st,-0.2996502577125311,1.3095207568324363,-1.1336579735535868
mem,resp,832,0,mem2.1.2.bmp,mem1.1.3.bmp,mem3.1.1.bmp,ACC031,"[0, -3, 0]","[-3, -3, 3]","[3, -3, -3]",non-match,0.7752551286084112,2,0.049097402033741175,-1.8846226743869705,-0.8980791239292332,2nd,1st,1st,-0.2996502577125311,-1.2299047342055414,-1.1336579735535868
mem,resp,1277,1,mem3.2.1.bmp,mem3.3.1.bmp,mem3.3.3.bmp,ACC031,"[3, 0, -3]","[3, 3, -3]","[3, 3, 3]",non-match,0.7771525064424715,2,-0.06585832072301592,1.500196488460911,-0.916478114833254,2nd,4th,1st,-0.2996502577125311,1.3095207568324363,-1.1336579735535868
mem,resp,1120,1,mem2.1.1.bmp,mem1.2.1.bmp,mem2.2.2.bmp,ACC031,"[0, -3, -3]","[-3, 0, -3]","[0, 0, 0]",non-match,1.1835034190722742,4,-0.5856308124280961,1.520030574831179,-1.2945497027624562,2nd,4th,1st,-0.2996502577125311,1.3095207568324363,-1.1336579735535868
mem,resp,608,1,mem2.3.2.bmp,mem1.3.3.bmp,mem1.3.3.bmp,ACC031,"[0, 3, 0]","[-3, 3, 3]","[-3, 3, 3]",match,1.591751709536137,,-0.22876359197077764,0.38752337678838955,-1.3794176850305884,2nd,3rd,1st,-0.2996502577125311,0.3061407537054162,-1.1336579735535868
mem,resp,888,0,mem1.3.2.bmp,mem3.1.3.bmp,mem3.1.3.bmp,ACC031,"[-3, 3, 0]","[3, -3, 3]","[3, -3, 3]",match,1.1339745962155614,,0.5836337778208425,0.435949974546852,-1.6841263292542101,3rd,3rd,1st,0.33628216143433143,0.3061407537054162,-1.1336579735535868
mem,resp,795,0,mem3.1.2.bmp,mem2.1.3.bmp,mem3.2.2.bmp,ACC031,"[3, -3, 0]","[0, -3, 3]","[3, 0, 0]",non-match,1.2113248654051871,4,0.5060168030878057,-1.0071593603225364,-1.4969245213269846,3rd,1st,1st,0.33628216143433143,-1.2299047342055414,-1.1336579735535868
mem,resp,905,1,mem1.1.1.bmp,mem2.1.2.bmp,mem1.1.1.bmp,ACC031,"[-3, -3, -3]","[0, -3, 0]","[-3, -3, -3]",match,1.591751709536137,,-0.2654554963994141,-0.8229813267644366,-1.6038017085931175,2nd,1st,1st,-0.2996502577125311,-1.2299047342055414,-1.1336579735535868
mem,resp,570,1,mem3.3.1.bmp,mem2.3.1.bmp,mem2.3.1.bmp,ACC031,"[3, 3, -3]","[0, 3, -3]","[0, 3, -3]",match,1.7113248654051871,,0.27504217234467576,-0.05158430187907373,-1.4093327058051768,3rd,3rd,1st,0.33628216143433143,0.3061407537054162,-1.1336579735535868
mem,resp,835,1,mem3.1.3.bmp,mem1.2.3.bmp,mem3.1.3.bmp,ACC031,"[3, -3, 3]","[-3, 0, 3]","[3, -3, 3]",match,1.3545027756320973,,0.101391635274342,1.0992817327791031,-1.4451017479859096,3rd,4th,1st,0.33628216143433143,1.3095207568324363,-1.1336579735535868
mem,resp,784,1,mem3.3.3.bmp,mem3.3.2.bmp,mem2.3.3.bmp,ACC031,"[3, 3, 3]","[3, 3, 0]","[0, 3, 3]",non-match,1.3030765749413242,4,0.2540778566083194,-0.36885101246639923,-1.246903387323777,3rd,2nd,1st,0.33628216143433143,-0.3857567763323112,-1.1336579735535868
mem,resp,650,1,mem2.1.3.bmp,mem2.2.1.bmp,mem1.3.3.bmp,ACC031,"[0, -3, 3]","[0, 0, -3]","[-3, 3, 3]",non-match,0.6473959944455496,1,-0.1148198774409614,-0.7205676593152076,-1.292589712186736,2nd,2nd,1st,-0.2996502577125311,-0.3857567763323112,-1.1336579735535868
mem,resp,897,1,mem3.2.3.bmp,mem1.1.2.bmp,mem3.1.2.bmp,ACC031,"[3, 0, 3]","[-3, -3, 0]","[3, -3, 0]",non-match,1.0144014403465114,3,-2.1963528983081835,-0.35248326564771204,-1.3715395886021475,1st,2nd,1st,-1.2850505989406478,-0.3857567763323112,-1.1336579735535868
mem,resp,578,1,mem3.1.1.bmp,mem2.1.1.bmp,mem2.1.1.bmp,ACC031,"[3, -3, -3]","[0, -3, -3]","[0, -3, -3]",match,1.7113248654051871,,-0.5996661675440493,-0.8912859526624716,-0.9213941495879225,2nd,1st,1st,-0.2996502577125311,-1.2299047342055414,-1.1336579735535868
mem,resp,836,1,mem1.3.1.bmp,mem3.3.2.bmp,mem3.1.3.bmp,ACC031,"[-3, 3, -3]","[3, 3, 0]","[3, -3, 3]",non-match,0.3545027756320972,1,-0.8408147296644851,-1.381015198314723,-1.1336173563688927,1st,1st,1st,-1.2850505989406478,-1.2299047342055414,-1.1336579735535868
mem,resp,608,1,mem2.2.1.bmp,mem2.3.1.bmp,mem3.2.1.bmp,ACC031,"[0, 0, -3]","[0, 3, -3]","[3, 0, -3]",non-match,1.3030765749413242,4,-1.7067407127870626,-1.5696447350256941,-1.1268465052982826,1st,1st,1st,-1.2850505989406478,-1.2299047342055414,-1.1336579735535868
mem,resp,738,1,mem2.2.2.bmp,mem2.3.3.bmp,mem3.3.1.bmp,ACC031,"[0, 0, 0]","[0, 3, 3]","[3, 3, -3]",non-match,0.8545027756320972,2,-0.6513281537217158,1.0572965832027852,-1.2791275491506084,1st,4th,1st,-1.2850505989406478,1.3095207568324363,-1.1336579735535868
mem,resp,915,1,mem1.2.2.bmp,mem3.2.2.bmp,mem2.3.2.bmp,ACC031,"[-3, 0, 0]","[3, 0, 0]","[0, 3, 0]",non-match,1.1835034190722742,4,0.17490196606097336,-1.578477014437131,-1.055139741094636,3rd,1st,1st,0.33628216143433143,-1.2299047342055414,-1.1336579735535868
mem,resp,638,1,mem1.3.3.bmp,mem2.1.3.bmp,mem1.1.2.bmp,ACC031,"[-3, 3, 3]","[0, -3, 3]","[-3, -3, 0]",non-match,0.9462544851682343,3,-0.9626293817629199,-0.4958373195333063,-0.8530515898622616,1st,2nd,2nd,-1.2850505989406478,-0.3857567763323112,-0.5216200836989492
mem,resp,654,1,mem3.3.2.bmp,mem3.1.2.bmp,mem1.1.1.bmp,ACC031,"[3, 3, 0]","[3, -3, 0]","[-3, -3, -3]",non-match,0.4884773718476586,1,-0.9357849853977626,0.2344562023970589,-1.0094999848668371,1st,3rd,1st,-1.2850505989406478,0.3061407537054162,-1.1336579735535868
mem,resp,761,1,mem1.1.3.bmp,mem2.2.3.bmp,mem1.1.3.bmp,ACC031,"[-3, -3, 3]","[0, 0, 3]","[-3, -3, 3]",match,1.591751709536137,,0.2221457549805128,-0.9540726211549992,-0.9142435636909804,3rd,1st,1st,0.33628216143433143,-1.2299047342055414,-1.1336579735535868
mem,resp,693,1,mem2.3.3.bmp,mem1.3.2.bmp,mem3.2.2.bmp,ACC031,"[0, 3, 3]","[-3, 3, 0]","[3, 0, 0]",non-match,0.8545027756320972,2,-0.8856691907545967,-0.7017528187188588,-0.8010742818349594,1st,2nd,2nd,-1.2850505989406478,-0.3857567763323112,-0.5216200836989492
mem,resp,787,1,mem3.2.1.bmp,mem1.2.3.bmp,mem3.2.1.bmp,ACC031,"[3, 0, -3]","[-3, 0, 3]","[3, 0, -3]",match,1.1835034190722742,,0.8102827858260971,0.05756112785313851,-0.9146732361893819,4th,3rd,1st,1.2484186952188474,0.3061407537054162,-1.1336579735535868
mem,resp,702,0,mem2.1.1.bmp,mem2.3.2.bmp,mem2.1.2.bmp,ACC031,"[0, -3, -3]","[0, 3, 0]","[0, -3, 0]",non-match,1.1339745962155614,4,-0.5765898768885789,-0.830373988827671,-0.8150247231161017,2nd,1st,2nd,-0.2996502577125311,-1.2299047342055414,-0.5216200836989492
mem,resp,908,1,mem3.3.3.bmp,mem1.1.3.bmp,mem3.3.3.bmp,ACC031,"[3, 3, 3]","[-3, -3, 3]","[3, 3, 3]",match,1.1835034190722742,,-0.4198065075466714,-0.48410754861506367,-0.8772277733059696,2nd,2nd,1st,-0.2996502577125311,-0.3857567763323112,-1.1336579735535868
mem,resp,583,0,mem1.3.3.bmp,mem3.3.1.bmp,mem3.2.2.bmp,ACC031,"[-3, 3, 3]","[3, 3, -3]","[3, 0, 0]",non-match,0.8846449283495895,2,-0.21363940717634852,-0.4713273272117271,-0.9059022585344981,2nd,2nd,1st,-0.2996502577125311,-0.3857567763323112,-1.1336579735535868
mem,resp,681,1,mem3.1.1.bmp,mem2.2.2.bmp,mem1.2.1.bmp,ACC031,"[3, -3, -3]","[0, 0, 0]","[-3, 0, -3]",non-match,0.9462544851682343,3,-1.1223182726482186,-1.7056426445235224,-0.7925767066806974,1st,1st,2nd,-1.2850505989406478,-1.2299047342055414,-0.5216200836989492
mem,resp,624,1,mem1.3.1.bmp,mem1.2.2.bmp,mem1.2.2.bmp,ACC031,"[-3, 3, -3]","[-3, 0, 0]","[-3, 0, 0]",match,1.591751709536137,,-0.540163111320958,-0.8482460492486527,-0.670772022439958,2nd,1st,2nd,-0.2996502577125311,-1.2299047342055414,-0.5216200836989492
mem,resp,526,1,mem2.3.2.bmp,mem3.3.3.bmp,mem2.3.2.bmp,ACC031,"[0, 3, 0]","[3, 3, 3]","[0, 3, 0]",match,1.591751709536137,,-0.47248850139239434,0.3217409046489486,-0.29708695145504,2nd,3rd,2nd,-0.2996502577125311,0.3061407537054162,-0.5216200836989492
mem,resp,622,1,mem3.3.1.bmp,mem3.1.3.bmp,mem3.1.3.bmp,ACC031,"[3, 3, -3]","[3, -3, 3]","[3, -3, 3]",match,1.1835034190722742,,-0.5171062741173749,0.7460619616967555,-0.33513756915894966,2nd,4th,2nd,-0.2996502577125311,1.3095207568324363,-0.5216200836989492
mem,resp,433,1,mem2.2.2.bmp,mem2.1.2.bmp,mem2.1.2.bmp,ACC031,"[0, 0, 0]","[0, -3, 0]","[0, -3, 0]",match,1.7113248654051871,,0.6049708244273964,-0.512101137147626,-0.18518124946934972,3rd,2nd,2nd,0.33628216143433143,-0.3857567763323112,-0.5216200836989492
mem,resp,546,1,mem1.1.3.bmp,mem1.1.1.bmp,mem1.1.3.bmp,ACC031,"[-3, -3, 3]","[-3, -3, -3]","[-3, -3, 3]",match,1.4226497308103743,,0.8623472036086262,0.8381120969299359,-0.17049744256805835,4th,4th,2nd,1.2484186952188474,1.3095207568324363,-0.5216200836989492
mem,resp,711,1,mem2.2.1.bmp,mem2.1.1.bmp,mem2.2.1.bmp,ACC031,"[0, 0, -3]","[0, -3, -3]","[0, 0, -3]",match,1.7113248654051871,,-1.0757994037464669,-0.09115771436710643,-0.26837936497291853,1st,3rd,2nd,-1.2850505989406478,0.3061407537054162,-0.5216200836989492
mem,resp,564,1,mem2.1.3.bmp,mem3.1.1.bmp,mem3.1.1.bmp,ACC031,"[0, -3, 3]","[3, -3, -3]","[3, -3, -3]",match,1.3545027756320973,,1.047557208990369,0.8494346279862034,-0.22655258780171167,4th,4th,2nd,1.2484186952188474,1.3095207568324363,-0.5216200836989492
mem,resp,435,1,mem3.1.2.bmp,mem2.1.1.bmp,mem2.1.1.bmp,ACC031,"[3, -3, 0]","[0, -3, -3]","[0, -3, -3]",match,1.591751709536137,,0.41673349405235893,-0.8472482337372234,-0.11671697540224704,3rd,1st,3rd,0.33628216143433143,-1.2299047342055414,0.20921330949155886
mem,resp,590,1,mem3.2.1.bmp,mem1.2.2.bmp,mem1.1.2.bmp,ACC031,"[3, 0, -3]","[-3, 0, 0]","[-3, -3, 0]",non-match,1.0042180842186395,3,-2.2213859736772696,-0.5902793834587664,-0.03032922717768871,1st,2nd,3rd,-1.2850505989406478,-0.3857567763323112,0.20921330949155886
mem,resp,1047,1,mem2.1.2.bmp,mem1.3.3.bmp,mem2.1.2.bmp,ACC031,"[0, -3, 0]","[-3, 3, 3]","[0, -3, 0]",match,1.2928932188134525,,-1.2937401565075282,-1.5556632525305882,0.000654947837556788,1st,1st,3rd,-1.2850505989406478,-1.2299047342055414,0.20921330949155886
mem,resp,975,1,mem3.2.2.bmp,mem3.1.3.bmp,mem3.1.1.bmp,ACC031,"[3, 0, 0]","[3, -3, 3]","[3, -3, -3]",non-match,1.0144014403465114,3,-1.4169926225893081,-1.079859590393477,-0.09167587431171914,1st,1st,3rd,-1.2850505989406478,-1.2299047342055414,0.20921330949155886
mem,resp,487,1,mem1.3.2.bmp,mem1.2.3.bmp,mem1.2.3.bmp,ACC031,"[-3, 3, 0]","[-3, 0, 3]","[-3, 0, 3]",match,1.591751709536137,,0.9019363566526671,0.13337650931941228,-0.549530428711079,4th,3rd,2nd,1.2484186952188474,0.3061407537054162,-0.5216200836989492
mem,resp,799,1,mem2.1.1.bmp,mem3.3.2.bmp,mem3.3.2.bmp,ACC031,"[0, -3, -3]","[3, 3, 0]","[3, 3, 0]",match,1.2928932188134525,,-0.9920113365738575,-1.9158436312569724,-0.6702373732929582,1st,1st,2nd,-1.2850505989406478,-1.2299047342055414,-0.5216200836989492
mem,resp,604,1,mem2.3.2.bmp,mem3.2.3.bmp,mem3.1.2.bmp,ACC031,"[0, 3, 0]","[3, 0, 3]","[3, -3, 0]",non-match,0.9462544851682343,3,-0.950691336483429,0.18860106313833871,-0.8083424502139513,1st,3rd,2nd,-1.2850505989406478,0.3061407537054162,-0.5216200836989492
mem,resp,500,1,mem1.1.2.bmp,mem1.1.3.bmp,mem1.1.3.bmp,ACC031,"[-3, -3, 0]","[-3, -3, 3]","[-3, -3, 3]",match,1.7113248654051871,,0.2649603419408464,-1.4813801834883642,-0.6244349203424618,3rd,1st,2nd,0.33628216143433143,-1.2299047342055414,-0.5216200836989492
mem,resp,499,1,mem2.3.3.bmp,mem2.1.3.bmp,mem2.3.3.bmp,ACC031,"[0, 3, 3]","[0, -3, 3]","[0, 3, 3]",match,1.4226497308103743,,0.26648024583121815,0.6532875657659734,-0.5146615603682898,3rd,3rd,2nd,0.33628216143433143,0.3061407537054162,-0.5216200836989492
mem,resp,584,0,mem3.3.2.bmp,mem1.3.2.bmp,mem1.2.1.bmp,ACC031,"[3, 3, 0]","[-3, 3, 0]","[-3, 0, -3]",non-match,0.8846449283495895,2,0.1337345632970484,1.6252183475912463,-0.6885413689442863,3rd,4th,2nd,0.33628216143433143,1.3095207568324363,-0.5216200836989492
mem,resp,699,0,mem2.2.2.bmp,mem2.2.3.bmp,mem2.2.3.bmp,ACC031,"[0, 0, 0]","[0, 0, 3]","[0, 0, 3]",match,1.7113248654051871,,-1.1002960688231362,-0.959774044097305,-0.5738680917272362,1st,1st,2nd,-1.2850505989406478,-1.2299047342055414,-0.5216200836989492
mem,resp,614,1,mem1.2.2.bmp,mem3.2.1.bmp,mem1.2.2.bmp,ACC031,"[-3, 0, 0]","[3, 0, -3]","[-3, 0, 0]",match,1.3545027756320973,,0.6523996035394999,-0.012851016230342632,-0.5707076530062585,3rd,3rd,2nd,0.33628216143433143,0.3061407537054162,-0.5216200836989492
mem,resp,669,1,mem3.3.1.bmp,mem1.3.1.bmp,mem1.3.1.bmp,ACC031,"[3, 3, -3]","[-3, 3, -3]","[-3, 3, -3]",match,1.4226497308103743,,-1.450330220111144,-1.469885545366915,-0.6843334234438881,1st,1st,2nd,-1.2850505989406478,-1.2299047342055414,-0.5216200836989492
mem,resp,592,1,mem3.2.3.bmp,mem3.1.2.bmp,mem3.2.3.bmp,ACC031,"[3, 0, 3]","[3, -3, 0]","[3, 0, 3]",match,1.591751709536137,,-0.6808504829190591,0.5811559404598355,-0.5196607075293693,1st,3rd,2nd,-1.2850505989406478,0.3061407537054162,-0.5216200836989492
mem,resp,618,1,mem3.1.1.bmp,mem3.3.3.bmp,mem3.1.1.bmp,ACC031,"[3, -3, -3]","[3, 3, 3]","[3, -3, -3]",match,1.1835034190722742,,0.20815780665844763,-1.5482291896222098,-0.46924534484140895,3rd,1st,2nd,0.33628216143433143,-1.2299047342055414,-0.5216200836989492
mem,resp,723,1,mem1.2.1.bmp,mem1.1.1.bmp,mem1.2.3.bmp,ACC031,"[-3, 0, -3]","[-3, -3, -3]","[-3, 0, 3]",non-match,0.7771525064424715,2,-0.8784155402071934,-0.11170174576013579,-0.5649871961692858,1st,2nd,2nd,-1.2850505989406478,-0.3857567763323112,-0.5216200836989492
mem,resp,456,1,mem2.3.1.bmp,mem1.1.2.bmp,mem1.1.2.bmp,ACC031,"[0, 3, -3]","[-3, -3, 0]","[-3, -3, 0]",match,1.2928932188134525,,0.8219311075927753,-0.82452067268281,-0.29942141108663134,4th,1st,2nd,1.2484186952188474,-1.2299047342055414,-0.5216200836989492
mem,resp,742,1,mem3.1.3.bmp,mem3.3.1.bmp,mem3.1.3.bmp,ACC031,"[3, -3, 3]","[3, 3, -3]","[3, -3, 3]",match,1.1835034190722742,,-2.429466760171554,-1.360192215368256,-0.5529072297739153,1st,1st,2nd,-1.2850505989406478,-1.2299047342055414,-0.5216200836989492
mem,resp,574,0,mem2.2.1.bmp,mem2.3.3.bmp,mem1.3.1.bmp,ACC031,"[0, 0, -3]","[0, 3, 3]","[-3, 3, -3]",non-match,0.9462544851682343,3,-0.0037847274248589934,0.1699266329298296,-0.8919642216064709,2nd,3rd,1st,-0.2996502577125311,0.3061407537054162,-1.1336579735535868
mem,resp,619,1,mem3.3.3.bmp,mem2.2.2.bmp,mem3.3.3.bmp,ACC031,"[3, 3, 3]","[0, 0, 0]","[3, 3, 3]",match,1.5,,-0.77691392639807,-0.10142278847506442,-0.6736716128720373,1st,2nd,2nd,-1.2850505989406478,-0.3857567763323112,-0.5216200836989492
mem,resp,744,1,mem1.1.1.bmp,mem1.2.1.bmp,mem3.2.3.bmp,ACC031,"[-3, -3, -3]","[-3, 0, -3]","[3, 0, 3]",non-match,0.3174780152878355,1,0.9678097276164292,-0.7702833165560572,-0.2849118766562267,4th,1st,2nd,1.2484186952188474,-1.2299047342055414,-0.5216200836989492
mem,resp,750,1,mem1.2.3.bmp,mem3.3.1.bmp,mem3.3.1.bmp,ACC031,"[-3, 0, 3]","[3, 3, -3]","[3, 3, -3]",match,1.1339745962155614,,-0.6101627864183076,-0.49377378636693636,-0.17218837505175746,2nd,2nd,2nd,-0.2996502577125311,-0.3857567763323112,-0.5216200836989492
mem,resp,815,1,mem1.1.3.bmp,mem3.3.2.bmp,mem1.1.3.bmp,ACC031,"[-3, -3, 3]","[3, 3, 0]","[-3, -3, 3]",match,1.1339745962155614,,0.9165536862871916,1.1487271221888695,0.0576434004399645,4th,4th,3rd,1.2484186952188474,1.3095207568324363,0.20921330949155886
mem,resp,601,1,mem1.3.1.bmp,mem1.2.2.bmp,mem1.2.2.bmp,ACC031,"[-3, 3, -3]","[-3, 0, 0]","[-3, 0, 0]",match,1.591751709536137,,-0.07856949899305293,-0.8687461172474916,0.05538879564428548,2nd,1st,3rd,-0.2996502577125311,-1.2299047342055414,0.20921330949155886
mem,resp,683,1,mem2.2.3.bmp,mem2.1.1.bmp,mem2.2.3.bmp,ACC031,"[0, 0, 3]","[0, -3, -3]","[0, 0, 3]",match,1.3545027756320973,,-1.4948178425237888,-0.9605060248793774,0.22089536745963023,1st,1st,3rd,-1.2850505989406478,-1.2299047342055414,0.20921330949155886
mem,resp,534,0,mem1.3.3.bmp,mem2.3.1.bmp,mem1.3.2.bmp,ACC031,"[-3, 3, 3]","[0, 3, -3]","[-3, 3, 0]",non-match,1.3030765749413242,4,-0.0031230124073122266,0.8225037728742495,-0.11887526859793197,2nd,4th,3rd,-0.2996502577125311,1.3095207568324363,0.20921330949155886
mem,resp,729,1,mem1.3.3.bmp,mem1.1.1.bmp,mem1.1.1.bmp,ACC031,"[-3, 3, 3]","[-3, -3, -3]","[-3, -3, -3]",match,1.1835034190722742,,-0.3127463238370518,-0.3881215975450716,-0.0387327327241171,2nd,2nd,3rd,-0.2996502577125311,-0.3857567763323112,0.20921330949155886
mem,resp,947,1,mem2.3.2.bmp,mem3.2.1.bmp,mem2.3.3.bmp,ACC031,"[0, 3, 0]","[3, 0, -3]","[0, 3, 3]",non-match,1.0042180842186395,3,-1.6170796883837828,0.9736192580120252,-0.11143301436074923,1st,4th,3rd,-1.2850505989406478,1.3095207568324363,0.20921330949155886
mem,resp,702,1,mem1.3.1.bmp,mem3.1.1.bmp,mem1.1.3.bmp,ACC031,"[-3, 3, -3]","[3, -3, -3]","[-3, -3, 3]",non-match,0.36700683814454815,1,0.35084852796948635,-0.1898145119150496,-0.15666342187200777,3rd,2nd,2nd,0.33628216143433143,-0.3857567763323112,-0.5216200836989492
mem,resp,726,1,mem2.2.1.bmp,mem2.1.2.bmp,mem3.3.1.bmp,ACC031,"[0, 0, -3]","[0, -3, 0]","[3, 3, -3]",non-match,0.8846449283495895,2,1.712221028563532,1.0200697736449957,-0.044681506530095894,4th,4th,3rd,1.2484186952188474,1.3095207568324363,0.20921330949155886
mem,resp,822,1,mem3.2.2.bmp,mem1.1.2.bmp,mem2.3.1.bmp,ACC031,"[3, 0, 0]","[-3, -3, 0]","[0, 3, -3]",non-match,0.7928932188134524,2,-0.5105460912804355,0.5942626976488462,-0.42565742506664067,2nd,3rd,2nd,-0.2996502577125311,0.3061407537054162,-0.5216200836989492
mem,resp,595,1,mem3.3.2.bmp,mem1.2.3.bmp,mem1.2.3.bmp,ACC031,"[3, 3, 0]","[-3, 0, 3]","[-3, 0, 3]",match,1.2928932188134525,,-0.8666127769217622,-2.3542669903921403,-0.13118296412850128,1st,1st,3rd,-1.2850505989406478,-1.2299047342055414,0.20921330949155886
mem,resp,589,0,mem2.2.2.bmp,mem3.3.3.bmp,mem2.2.2.bmp,ACC031,"[0, 0, 0]","[3, 3, 3]","[0, 0, 0]",match,1.5,,-0.06774778793124132,-0.06427067127513716,-0.20493910236769436,2nd,3rd,2nd,-0.2996502577125311,0.3061407537054162,-0.5216200836989492
mem,resp,804,1,mem1.2.1.bmp,mem2.1.3.bmp,mem1.1.1.bmp,ACC031,"[-3, 0, -3]","[0, -3, 3]","[-3, -3, -3]",non-match,1.0658276410372842,3,-0.44565307038995916,1.4189974617589858,0.12582070755549546,2nd,4th,3rd,-0.2996502577125311,1.3095207568324363,0.20921330949155886
mem,resp,659,1,mem3.2.3.bmp,mem3.1.2.bmp,mem1.3.1.bmp,ACC031,"[3, 0, 3]","[3, -3, 0]","[-3, 3, -3]",non-match,0.2679491924311228,1,0.007868972534986104,-0.3059426174879403,-0.12257239351246339,2nd,2nd,3rd,-0.2996502577125311,-0.3857567763323112,0.20921330949155886
mem,resp,575,1,mem3.2.1.bmp,mem3.1.3.bmp,mem3.1.3.bmp,ACC031,"[3, 0, -3]","[3, -3, 3]","[3, -3, 3]",match,1.3545027756320973,,-0.834582207278444,-0.9345760343878445,-0.8590522401605597,1st,1st,1st,-1.2850505989406478,-1.2299047342055414,-1.1336579735535868
mem,resp,708,1,mem1.2.2.bmp,mem2.2.3.bmp,mem2.2.1.bmp,ACC031,"[-3, 0, 0]","[0, 0, 3]","[0, 0, -3]",non-match,1.0144014403465114,3,-0.7471946422051535,0.8297900621209443,-0.8372068767202502,1st,4th,2nd,-1.2850505989406478,1.3095207568324363,-0.5216200836989492
mem,resp,812,0,mem2.1.2.bmp,mem1.3.2.bmp,mem1.1.2.bmp,ACC031,"[0, -3, 0]","[-3, 3, 0]","[-3, -3, 0]",non-match,1.1339745962155614,4,-0.3270602792823825,-0.804055528875618,-0.9604775805557989,2nd,1st,1st,-0.2996502577125311,-1.2299047342055414,-1.1336579735535868
mem,resp,726,1,mem1.2.3.bmp,mem2.3.3.bmp,mem1.2.3.bmp,ACC031,"[-3, 0, 3]","[0, 3, 3]","[-3, 0, 3]",match,1.591751709536137,,0.5705332815916704,0.7787703809762714,-0.7913200024993037,3rd,4th,2nd,0.33628216143433143,1.3095207568324363,-0.5216200836989492
mem,resp,766,1,mem1.1.3.bmp,mem1.1.1.bmp,mem1.3.3.bmp,ACC031,"[-3, -3, 3]","[-3, -3, -3]","[-3, 3, 3]",non-match,0.6061531498826483,1,2.1707154221707547,0.9973515329166507,-0.6417251890670364,4th,4th,2nd,1.2484186952188474,1.3095207568324363,-0.5216200836989492
mem,resp,629,1,mem2.3.3.bmp,mem1.3.1.bmp,mem3.1.3.bmp,ACC031,"[0, 3, 3]","[-3, 3, -3]","[3, -3, 3]",non-match,0.3545027756320972,1,-0.684728051250003,-1.5510099716167454,-0.6295739090347484,1st,1st,2nd,-1.2850505989406478,-1.2299047342055414,-0.5216200836989492
mem,resp,647,1,mem2.1.2.bmp,mem2.2.2.bmp,mem1.2.1.bmp,ACC031,"[0, -3, 0]","[0, 0, 0]","[-3, 0, -3]",non-match,1.091751709536137,4,-1.7322629887677032,-0.2556645834495911,-0.608274661611817,1st,2nd,2nd,-1.2850505989406478,-0.3857567763323112,-0.5216200836989492
mem,resp,790,1,mem2.3.2.bmp,mem2.2.1.bmp,mem1.2.3.bmp,ACC031,"[0, 3, 0]","[0, 0, -3]","[-3, 0, 3]",non-match,0.8545027756320972,2,0.7395698451281215,0.6464068728898809,-0.6332046116118539,4th,3rd,2nd,1.2484186952188474,0.3061407537054162,-0.5216200836989492
mem,resp,838,0,mem3.3.2.bmp,mem1.3.3.bmp,mem3.2.1.bmp,ACC031,"[3, 3, 0]","[-3, 3, 3]","[3, 0, -3]",non-match,0.7257263057516985,2,0.3970915222129548,-0.08850905502267176,-0.7933101643230014,3rd,3rd,2nd,0.33628216143433143,0.3061407537054162,-0.5216200836989492
mem,resp,630,1,mem1.2.2.bmp,mem3.3.1.bmp,mem2.1.3.bmp,ACC031,"[-3, 0, 0]","[3, 3, -3]","[0, -3, 3]",non-match,0.6339745962155614,1,0.7748331873625549,1.1204335532312164,-0.8572175502398864,4th,4th,1st,1.2484186952188474,1.3095207568324363,-1.1336579735535868
mem,resp,529,1,mem1.1.1.bmp,mem3.1.2.bmp,mem3.1.2.bmp,ACC031,"[-3, -3, -3]","[3, -3, 0]","[3, -3, 0]",match,1.3545027756320973,,0.18171421185141295,0.34733849901057423,-0.797987963752142,3rd,3rd,2nd,0.33628216143433143,0.3061407537054162,-0.5216200836989492
mem,resp,642,1,mem1.3.1.bmp,mem2.2.3.bmp,mem2.2.2.bmp,ACC031,"[-3, 3, -3]","[0, 0, 3]","[0, 0, 0]",non-match,1.2113248654051871,4,-1.7724540779098836,-0.4153571040575942,-0.4939039804907098,1st,2nd,2nd,-1.2850505989406478,-0.3857567763323112,-0.5216200836989492
mem,resp,457,1,mem3.2.3.bmp,mem1.2.3.bmp,mem1.2.3.bmp,ACC031,"[3, 0, 3]","[-3, 0, 3]","[-3, 0, 3]",match,1.4226497308103743,,0.07941728346209319,-0.7834545807814034,-0.4960475114117708,3rd,1st,2nd,0.33628216143433143,-1.2299047342055414,-0.5216200836989492
mem,resp,537,1,mem2.1.3.bmp,mem3.2.2.bmp,mem2.1.3.bmp,ACC031,"[0, -3, 3]","[3, 0, 0]","[0, -3, 3]",match,1.5,,0.8664570465932416,0.9364218582998318,-0.3821669573078301,4th,4th,2nd,1.2484186952188474,1.3095207568324363,-0.5216200836989492
mem,resp,720,0,mem1.3.3.bmp,mem2.3.1.bmp,mem3.1.2.bmp,ACC031,"[-3, 3, 3]","[0, 3, -3]","[3, -3, 0]",non-match,0.42686781502901383,1,0.043197991836269746,-1.396425860095644,-0.13529894797060024,2nd,1st,3rd,-0.2996502577125311,-1.2299047342055414,0.20921330949155886
mem,resp,523,1,mem2.1.1.bmp,mem1.2.1.bmp,mem2.1.1.bmp,ACC031,"[0, -3, -3]","[-3, 0, -3]","[0, -3, -3]",match,1.591751709536137,,2.1259124006150585,1.3595563578271128,-0.018480872531654303,4th,4th,3rd,1.2484186952188474,1.3095207568324363,0.20921330949155886
mem,resp,576,1,mem2.2.2.bmp,mem3.2.1.bmp,mem2.2.2.bmp,ACC031,"[0, 0, 0]","[3, 0, -3]","[0, 0, 0]",match,1.591751709536137,,-0.1835457516224883,-1.0058621915077235,0.4978398313125857,2nd,1st,3rd,-0.2996502577125311,-1.2299047342055414,0.20921330949155886
mem,resp,669,0,mem1.2.3.bmp,mem1.1.2.bmp,mem1.3.2.bmp,ACC031,"[-3, 0, 3]","[-3, -3, 0]","[-3, 3, 0]",non-match,1.0144014403465114,3,-1.2133745768009645,-1.183828011492688,0.38032047951957393,1st,1st,3rd,-1.2850505989406478,-1.2299047342055414,0.20921330949155886
mem,resp,504,1,mem2.2.1.bmp,mem1.2.2.bmp,mem1.2.2.bmp,ACC031,"[0, 0, -3]","[-3, 0, 0]","[-3, 0, 0]",match,1.591751709536137,,0.5620443629046707,0.5852527319515195,0.15862282479253956,3rd,3rd,3rd,0.33628216143433143,0.3061407537054162,0.20921330949155886
mem,resp,567,1,mem3.3.3.bmp,mem3.1.3.bmp,mem3.1.3.bmp,ACC031,"[3, 3, 3]","[3, -3, 3]","[3, -3, 3]",match,1.4226497308103743,,-0.41537328635754706,0.4827268097166327,0.09424943385363674,2nd,3rd,3rd,-0.2996502577125311,0.3061407537054162,0.20921330949155886
mem,resp,539,1,mem2.2.3.bmp,mem3.1.1.bmp,mem3.1.1.bmp,ACC031,"[0, 0, 3]","[3, -3, -3]","[3, -3, -3]",match,1.2928932188134525,,0.32530045456684537,0.1817704102495343,-0.13929458903841574,3rd,3rd,2nd,0.33628216143433143,0.3061407537054162,-0.5216200836989492
mem,resp,562,1,mem3.2.1.bmp,mem3.3.2.bmp,mem1.2.3.bmp,ACC031,"[3, 0, -3]","[3, 3, 0]","[-3, 0, 3]",non-match,0.4763966378857265,1,0.07843290741175078,-0.16851222550288866,0.039134141137350226,3rd,2nd,3rd,0.33628216143433143,-0.3857567763323112,0.20921330949155886
mem,resp,683,1,mem1.2.1.bmp,mem2.1.2.bmp,mem2.3.2.bmp,ACC031,"[-3, 0, -3]","[0, -3, 0]","[0, 3, 0]",non-match,0.9226497308103743,2,-1.728067316319592,-2.0239084221625814,-0.09047918068020905,1st,1st,3rd,-1.2850505989406478,-1.2299047342055414,0.20921330949155886
mem,resp,489,1,mem1.3.2.bmp,mem2.1.1.bmp,mem2.1.1.bmp,ACC031,"[-3, 3, 0]","[0, -3, -3]","[0, -3, -3]",match,1.2928932188134525,,-0.41368371902360174,0.15175649507376604,-0.16439090955647942,2nd,3rd,2nd,-0.2996502577125311,0.3061407537054162,-0.5216200836989492
mem,resp,559,1,mem3.1.2.bmp,mem3.2.3.bmp,mem3.1.2.bmp,ACC031,"[3, -3, 0]","[3, 0, 3]","[3, -3, 0]",match,1.591751709536137,,0.3328073090642289,0.20399101909046644,-0.2335193568238343,3rd,3rd,2nd,0.33628216143433143,0.3061407537054162,-0.5216200836989492
mem,resp,604,1,mem1.1.2.bmp,mem2.1.3.bmp,mem2.1.3.bmp,ACC031,"[-3, -3, 0]","[0, -3, 3]","[0, -3, 3]",match,1.591751709536137,,1.998324778103987,-0.162512444001977,-0.056025410939328474,4th,2nd,3rd,1.2484186952188474,-0.3857567763323112,0.20921330949155886
mem,resp,505,1,mem3.2.2.bmp,mem3.3.3.bmp,mem3.2.2.bmp,ACC031,"[3, 0, 0]","[3, 3, 3]","[3, 0, 0]",match,1.591751709536137,,-0.6894635116905287,-0.8993495268283908,0.11042237348674072,1st,1st,3rd,-1.2850505989406478,-1.2299047342055414,0.20921330949155886
mem,resp,500,1,mem3.1.3.bmp,mem1.2.1.bmp,mem3.2.1.bmp,ACC031,"[3, -3, 3]","[-3, 0, -3]","[3, 0, -3]",non-match,0.7771525064424715,2,-0.5493132855014832,0.06215105325585019,0.014140631442800132,2nd,3rd,3rd,-0.2996502577125311,0.3061407537054162,0.20921330949155886
mem,resp,339,0,mem3.1.1.bmp,mem1.2.2.bmp,mem3.3.2.bmp,ACC031,"[3, -3, -3]","[-3, 0, 0]","[3, 3, 0]",non-match,0.7090055512641944,2,-0.1501809527025953,1.3625901563995515,0.23534104184417787,2nd,4th,3rd,-0.2996502577125311,1.3095207568324363,0.20921330949155886
mem,resp,551,1,mem3.3.1.bmp,mem1.1.2.bmp,mem2.3.2.bmp,ACC031,"[3, 3, -3]","[-3, -3, 0]","[0, 3, 0]",non-match,0.9462544851682343,3,-0.22167872812515801,0.742730691186057,0.07809762918676211,2nd,4th,3rd,-0.2996502577125311,1.3095207568324363,0.20921330949155886
mem,resp,665,1,mem2.3.1.bmp,mem1.3.3.bmp,mem2.1.3.bmp,ACC031,"[0, 3, -3]","[-3, 3, 3]","[0, -3, 3]",non-match,0.5380061947043713,1,-0.10156029996266132,-1.1247528330771919,0.16357666682528302,2nd,1st,3rd,-0.2996502577125311,-1.2299047342055414,0.20921330949155886
mem,resp,820,0,mem2.3.3.bmp,mem3.1.2.bmp,mem1.3.1.bmp,ACC031,"[0, 3, 3]","[3, -3, 0]","[-3, 3, -3]",non-match,0.4884773718476586,1,0.10591595859452943,-0.6105534930188958,0.2532484893077353,3rd,2nd,3rd,0.33628216143433143,-0.3857567763323112,0.20921330949155886
mem,resp,773,1,mem1.3.2.bmp,mem2.2.2.bmp,mem2.2.3.bmp,ACC031,"[-3, 3, 0]","[0, 0, 0]","[0, 0, 3]",non-match,1.2113248654051871,4,1.309781955196143,1.5209942662717615,0.113799251510148,4th,4th,3rd,1.2484186952188474,1.3095207568324363,0.20921330949155886
mem,resp,829,0,mem3.1.3.bmp,mem3.2.3.bmp,mem3.2.3.bmp,ACC031,"[3, -3, 3]","[3, 0, 3]","[3, 0, 3]",match,1.7113248654051871,,-1.0218762746851302,-0.41784504724579485,0.3142315528499639,1st,2nd,3rd,-1.2850505989406478,-0.3857567763323112,0.20921330949155886
mem,resp,582,0,mem3.2.2.bmp,mem2.1.3.bmp,mem3.2.2.bmp,ACC031,"[3, 0, 0]","[0, -3, 3]","[3, 0, 0]",match,1.5,,-1.3897955054251856,-0.5674460983344087,0.5866120678872038,1st,2nd,3rd,-1.2850505989406478,-0.3857567763323112,0.20921330949155886
mem,resp,686,1,mem3.3.3.bmp,mem1.3.1.bmp,mem3.3.3.bmp,ACC031,"[3, 3, 3]","[-3, 3, -3]","[3, 3, 3]",match,1.1835034190722742,,-0.23432331919880886,0.33231080315656686,0.3520436690160249,2nd,3rd,3rd,-0.2996502577125311,0.3061407537054162,0.20921330949155886
mem,resp,580,1,mem1.2.3.bmp,mem3.3.1.bmp,mem3.3.1.bmp,ACC031,"[-3, 0, 3]","[3, 3, -3]","[3, 3, -3]",match,1.1339745962155614,,0.33154770492531577,0.8641172339019463,0.22776682407067067,3rd,4th,3rd,0.33628216143433143,1.3095207568324363,0.20921330949155886
mem,resp,431,1,mem2.2.1.bmp,mem3.2.1.bmp,mem2.2.1.bmp,ACC031,"[0, 0, -3]","[3, 0, -3]","[0, 0, -3]",match,1.7113248654051871,,-0.522360628261602,0.5009765271549002,0.25298111055437605,2nd,3rd,3rd,-0.2996502577125311,0.3061407537054162,0.20921330949155886
mem,resp,584,1,mem1.3.3.bmp,mem2.3.3.bmp,mem2.1.1.bmp,ACC031,"[-3, 3, 3]","[0, 3, 3]","[0, -3, -3]",non-match,0.3174780152878355,1,0.9088396911331207,-0.46213411222646616,0.2940064080995034,4th,2nd,3rd,1.2484186952188474,-0.3857567763323112,0.20921330949155886
mem,resp,487,0,mem2.3.2.bmp,mem3.1.1.bmp,mem3.2.2.bmp,ACC031,"[0, 3, 0]","[3, -3, -3]","[3, 0, 0]",non-match,1.1835034190722742,4,1.2524563595545464,1.5044952563922105,0.17345862465267814,4th,4th,3rd,1.2484186952188474,1.3095207568324363,0.20921330949155886
mem,resp,518,1,mem1.2.2.bmp,mem2.2.3.bmp,mem1.2.2.bmp,ACC031,"[-3, 0, 0]","[0, 0, 3]","[-3, 0, 0]",match,1.591751709536137,,1.3875176237691789,1.116356051138262,-0.03981788687898696,4th,4th,3rd,1.2484186952188474,1.3095207568324363,0.20921330949155886
mem,resp,492,1,mem3.1.2.bmp,mem1.1.1.bmp,mem1.1.1.bmp,ACC031,"[3, -3, 0]","[-3, -3, -3]","[-3, -3, -3]",match,1.3545027756320973,,-0.30854150408273306,1.97769500107499,0.3006971246052238,2nd,4th,3rd,-0.2996502577125311,1.3095207568324363,0.20921330949155886
mem,resp,702,0,mem2.2.2.bmp,mem1.3.2.bmp,mem1.3.2.bmp,ACC031,"[0, 0, 0]","[-3, 3, 0]","[-3, 3, 0]",match,1.591751709536137,,-2.255594157732396,-0.2463361696741294,0.5273613923788665,1st,2nd,3rd,-1.2850505989406478,-0.3857567763323112,0.20921330949155886
mem,resp,541,0,mem2.1.2.bmp,mem3.2.2.bmp,mem2.1.3.bmp,ACC031,"[0, -3, 0]","[3, 0, 0]","[0, -3, 3]",non-match,1.2113248654051871,4,1.2539941024239845,-1.0249843649905628,0.41277922839416264,4th,1st,3rd,1.2484186952188474,-1.2299047342055414,0.20921330949155886
mem,resp,674,0,mem1.1.3.bmp,mem3.3.3.bmp,mem2.3.2.bmp,ACC031,"[-3, -3, 3]","[3, 3, 3]","[0, 3, 0]",non-match,0.8846449283495895,2,0.24965347522139442,-1.0901642812934456,0.4169889361381594,3rd,1st,3rd,0.33628216143433143,-1.2299047342055414,0.20921330949155886
mem,resp,510,1,mem2.1.2.bmp,mem2.1.1.bmp,mem2.1.1.bmp,ACC031,"[0, -3, 0]","[0, -3, -3]","[0, -3, -3]",match,1.7113248654051871,,0.9379782623480091,-0.5696543884907991,0.46524273032275076,4th,2nd,3rd,1.2484186952188474,-0.3857567763323112,0.20921330949155886
mem,resp,472,1,mem1.2.2.bmp,mem1.1.3.bmp,mem1.1.3.bmp,ACC031,"[-3, 0, 0]","[-3, -3, 3]","[-3, -3, 3]",match,1.591751709536137,,0.7720619041644934,-0.8464600282503331,0.30753455676780084,4th,1st,3rd,1.2484186952188474,-1.2299047342055414,0.20921330949155886
mem,resp,514,1,mem1.2.3.bmp,mem3.1.2.bmp,mem1.2.3.bmp,ACC031,"[-3, 0, 3]","[3, -3, 0]","[-3, 0, 3]",match,1.2928932188134525,,0.09646590129445944,-0.4212388136783877,0.343143555058404,3rd,2nd,3rd,0.33628216143433143,-0.3857567763323112,0.20921330949155886
mem,resp,687,1,mem3.2.2.bmp,mem1.2.1.bmp,mem2.3.3.bmp,ACC031,"[3, 0, 0]","[-3, 0, -3]","[0, 3, 3]",non-match,0.7928932188134524,2,0.7105000196549484,-0.1620091463943092,0.3711909439543939,3rd,2nd,3rd,0.33628216143433143,-0.3857567763323112,0.20921330949155886
mem,resp,540,0,mem3.2.1.bmp,mem1.1.2.bmp,mem2.1.3.bmp,ACC031,"[3, 0, -3]","[-3, -3, 0]","[0, -3, 3]",non-match,0.8846449283495895,2,0.2094464369506367,-0.560928141303939,0.4365199420722889,3rd,2nd,3rd,0.33628216143433143,-0.3857567763323112,0.20921330949155886
mem,resp,493,1,mem1.3.1.bmp,mem1.3.2.bmp,mem3.2.3.bmp,ACC031,"[-3, 3, -3]","[-3, 3, 0]","[3, 0, 3]",non-match,0.42686781502901383,1,0.2656454228421102,-0.5452730642437076,0.64223646979561,3rd,2nd,3rd,0.33628216143433143,-0.3857567763323112,0.20921330949155886
mem,resp,445,1,mem3.3.2.bmp,mem3.3.1.bmp,mem3.3.2.bmp,ACC031,"[3, 3, 0]","[3, 3, -3]","[3, 3, 0]",match,1.7113248654051871,,-0.45838570269225787,2.2038620766889725,1.206688169166091,2nd,4th,4th,-0.2996502577125311,1.3095207568324363,1.4460647477609776
mem,resp,578,1,mem3.1.3.bmp,mem3.3.3.bmp,mem2.2.3.bmp,ACC031,"[3, -3, 3]","[3, 3, 3]","[0, 0, 3]",non-match,1.1835034190722742,4,-0.3846672022543957,0.13029340600582584,1.2854660227845658,2nd,3rd,4th,-0.2996502577125311,0.3061407537054162,1.4460647477609776
mem,resp,538,1,mem2.2.2.bmp,mem1.2.2.bmp,mem2.2.2.bmp,ACC031,"[0, 0, 0]","[-3, 0, 0]","[0, 0, 0]",match,1.7113248654051871,,0.3616927283324687,0.5837837966634877,1.4080256015183892,3rd,3rd,4th,0.33628216143433143,0.3061407537054162,1.4460647477609776
mem,resp,693,1,mem2.1.3.bmp,mem1.3.3.bmp,mem2.1.3.bmp,ACC031,"[0, -3, 3]","[-3, 3, 3]","[0, -3, 3]",match,1.3545027756320973,,-1.3320710838814735,-1.1314211479432774,1.1631912167280425,1st,1st,4th,-1.2850505989406478,-1.2299047342055414,1.4460647477609776
mem,resp,422,1,mem2.3.1.bmp,mem2.3.2.bmp,mem2.3.1.bmp,ACC031,"[0, 3, -3]","[0, 3, 0]","[0, 3, -3]",match,1.7113248654051871,,0.9944920828813696,0.16158102699458832,1.5891832922308275,4th,3rd,4th,1.2484186952188474,0.3061407537054162,1.4460647477609776
mem,resp,1092,0,mem1.3.2.bmp,mem2.3.3.bmp,mem1.3.2.bmp,ACC031,"[-3, 3, 0]","[0, 3, 3]","[-3, 3, 0]",match,1.591751709536137,,-0.019089124076410467,-0.8407629735350938,1.5912332807277247,2nd,1st,4th,-0.2996502577125311,-1.2299047342055414,1.4460647477609776
mem,resp,523,1,mem3.3.1.bmp,mem2.2.3.bmp,mem2.2.3.bmp,ACC031,"[3, 3, -3]","[0, 0, 3]","[0, 0, 3]",match,1.2928932188134525,,1.1404097448238888,0.45355782210496165,1.535176827486159,4th,3rd,4th,1.2484186952188474,0.3061407537054162,1.4460647477609776
mem,resp,687,1,mem1.2.1.bmp,mem2.2.2.bmp,mem1.1.1.bmp,ACC031,"[-3, 0, -3]","[0, 0, 0]","[-3, -3, -3]",non-match,1.2113248654051871,4,0.08791813397763036,1.0325482846323233,1.430925018832204,3rd,4th,4th,0.33628216143433143,1.3095207568324363,1.4460647477609776
mem,resp,519,1,mem1.1.3.bmp,mem3.3.2.bmp,mem3.3.2.bmp,ACC031,"[-3, -3, 3]","[3, 3, 0]","[3, 3, 0]",match,1.1339745962155614,,1.994892107892499,1.6061116359022325,1.480005563870477,4th,4th,4th,1.2484186952188474,1.3095207568324363,1.4460647477609776
mem,resp,430,1,mem2.1.1.bmp,mem3.2.1.bmp,mem3.2.1.bmp,ACC031,"[0, -3, -3]","[3, 0, -3]","[3, 0, -3]",match,1.591751709536137,,-0.7722732446230337,-0.08619060769461138,1.641796436012886,1st,3rd,4th,-1.2850505989406478,0.3061407537054162,1.4460647477609776
mem,resp,603,0,mem3.1.2.bmp,mem1.2.3.bmp,mem1.3.3.bmp,ACC031,"[3, -3, 0]","[-3, 0, 3]","[-3, 3, 3]",non-match,0.8452994616207485,2,0.4144990222686473,0.5406428834049745,1.3956974172295504,3rd,3rd,4th,0.33628216143433143,0.3061407537054162,1.4460647477609776
mem,resp,614,0,mem3.3.3.bmp,mem2.3.1.bmp,mem3.3.3.bmp,ACC031,"[3, 3, 3]","[0, 3, -3]","[3, 3, 3]",match,1.3545027756320973,,0.21513622192216064,-0.792269987375173,1.3871363067105449,3rd,1st,4th,0.33628216143433143,-1.2299047342055414,1.4460647477609776
mem,resp,567,1,mem3.2.3.bmp,mem3.1.3.bmp,mem3.2.3.bmp,ACC031,"[3, 0, 3]","[3, -3, 3]","[3, 0, 3]",match,1.7113248654051871,,-0.24716045446320348,-0.11535509732989672,1.3485137951913264,2nd,2nd,4th,-0.2996502577125311,-0.3857567763323112,1.4460647477609776
mem,resp,609,1,mem2.2.1.bmp,mem3.1.1.bmp,mem1.2.1.bmp,ACC031,"[0, 0, -3]","[3, -3, -3]","[-3, 0, -3]",non-match,1.0658276410372842,3,-0.15162784225269474,0.23073512168287855,1.1711972151534185,2nd,3rd,4th,-0.2996502577125311,0.3061407537054162,1.4460647477609776
mem,resp,492,1,mem1.1.1.bmp,mem2.2.2.bmp,mem1.1.1.bmp,ACC031,"[-3, -3, -3]","[0, 0, 0]","[-3, -3, -3]",match,1.5,,1.31200074714328,0.2223681503598064,0.884429508487468,4th,3rd,4th,1.2484186952188474,0.3061407537054162,1.4460647477609776
mem,resp,472,1,mem1.1.2.bmp,mem1.2.3.bmp,mem1.1.2.bmp,ACC031,"[-3, -3, 0]","[-3, 0, 3]","[-3, -3, 0]",match,1.591751709536137,,0.8588619863527134,1.201182436296413,1.1856286040405526,4th,4th,4th,1.2484186952188474,1.3095207568324363,1.4460647477609776
mem,resp,406,1,mem2.3.2.bmp,mem2.2.3.bmp,mem2.3.2.bmp,ACC031,"[0, 3, 0]","[0, 0, 3]","[0, 3, 0]",match,1.591751709536137,,0.8462571359475687,0.9263235553163189,0.9689862145974408,4th,4th,4th,1.2484186952188474,1.3095207568324363,1.4460647477609776
mem,resp,447,0,mem1.3.3.bmp,mem2.1.2.bmp,mem1.2.2.bmp,ACC031,"[-3, 3, 3]","[0, -3, 0]","[-3, 0, 0]",non-match,1.1835034190722742,4,1.5864858655814713,0.8852898142450693,1.1581531265255354,4th,4th,4th,1.2484186952188474,1.3095207568324363,1.4460647477609776
mem,resp,570,1,mem3.1.1.bmp,mem3.2.2.bmp,mem3.1.1.bmp,ACC031,"[3, -3, -3]","[3, 0, 0]","[3, -3, -3]",match,1.591751709536137,,0.772327765644164,-0.049187658961543805,1.5241099736899104,4th,3rd,4th,1.2484186952188474,0.3061407537054162,1.4460647477609776
mem,resp,575,1,mem2.3.3.bmp,mem2.3.1.bmp,mem1.1.1.bmp,ACC031,"[0, 3, 3]","[0, 3, -3]","[-3, -3, -3]",non-match,0.4884773718476586,1,0.6941460743069546,-0.006211613837465777,1.5435785163455884,3rd,3rd,4th,0.33628216143433143,0.3061407537054162,1.4460647477609776
mem,resp,576,0,mem2.2.3.bmp,mem2.1.3.bmp,mem2.1.1.bmp,ACC031,"[0, 0, 3]","[0, -3, 3]","[0, -3, -3]",non-match,0.7771525064424715,2,1.117384004941957,1.7941010124506316,1.7583089740526692,4th,4th,4th,1.2484186952188474,1.3095207568324363,1.4460647477609776
mem,resp,677,0,mem1.3.2.bmp,mem3.3.3.bmp,mem3.2.3.bmp,ACC031,"[-3, 3, 0]","[3, 3, 3]","[3, 0, 3]",non-match,1.0042180842186395,3,0.7633310946291468,0.10086392501175541,1.69258085037199,4th,3rd,4th,1.2484186952188474,0.3061407537054162,1.4460647477609776
mem,resp,642,1,mem2.2.2.bmp,mem3.2.1.bmp,mem1.2.1.bmp,ACC031,"[0, 0, 0]","[3, 0, -3]","[-3, 0, -3]",non-match,1.0144014403465114,3,-0.8082999752887022,0.09276021505655062,1.9087682922717948,1st,3rd,4th,-1.2850505989406478,0.3061407537054162,1.4460647477609776
mem,resp,431,1,mem3.1.2.bmp,mem3.1.3.bmp,mem3.1.3.bmp,ACC031,"[3, -3, 0]","[3, -3, 3]","[3, -3, 3]",match,1.7113248654051871,,0.39008519595315877,0.28693296839197935,1.9581702195356394,3rd,3rd,4th,0.33628216143433143,0.3061407537054162,1.4460647477609776
mem,resp,717,0,mem2.1.2.bmp,mem3.3.2.bmp,mem2.1.2.bmp,ACC031,"[0, -3, 0]","[3, 3, 0]","[0, -3, 0]",match,1.3545027756320973,,0.631125737812183,1.5896444578555626,1.9388736324077016,3rd,4th,4th,0.33628216143433143,1.3095207568324363,1.4460647477609776
mem,resp,590,0,mem3.1.1.bmp,mem1.3.3.bmp,mem1.3.2.bmp,ACC031,"[3, -3, -3]","[-3, 3, 3]","[-3, 3, 0]",non-match,0.8452994616207485,2,-0.9868493013321059,-1.0247801828125271,1.8108440784397681,1st,1st,4th,-1.2850505989406478,-1.2299047342055414,1.4460647477609776
mem,resp,993,1,mem3.2.1.bmp,mem2.1.1.bmp,mem3.2.2.bmp,ACC031,"[3, 0, -3]","[0, -3, -3]","[3, 0, 0]",non-match,1.2113248654051871,4,-0.2828187685892591,-0.8030093384931584,1.92775412013778,2nd,1st,4th,-0.2996502577125311,-1.2299047342055414,1.4460647477609776
mem,resp,537,0,mem1.3.1.bmp,mem1.2.2.bmp,mem1.2.3.bmp,ACC031,"[-3, 3, -3]","[-3, 0, 0]","[-3, 0, 3]",non-match,1.0658276410372842,3,-0.3236351231380559,-0.46310740511664056,1.8796092708944232,2nd,2nd,4th,-0.2996502577125311,-0.3857567763323112,1.4460647477609776
mem,resp,669,0,mem3.1.3.bmp,mem1.2.1.bmp,mem2.3.3.bmp,ACC031,"[3, -3, 3]","[-3, 0, -3]","[0, 3, 3]",non-match,0.6473959944455496,1,-1.8431087987153956,-1.0092885898939978,1.8576676798389524,1st,1st,4th,-1.2850505989406478,-1.2299047342055414,1.4460647477609776
mem,resp,538,0,mem3.3.3.bmp,mem1.1.2.bmp,mem3.3.2.bmp,ACC031,"[3, 3, 3]","[-3, -3, 0]","[3, 3, 0]",non-match,0.8948282844774612,2,0.6282473269050968,1.6547368366180217,2.0038856727213394,3rd,4th,4th,0.33628216143433143,1.3095207568324363,1.4460647477609776
mem,resp,712,1,mem2.3.2.bmp,mem1.1.3.bmp,mem3.1.1.bmp,ACC031,"[0, 3, 0]","[-3, -3, 3]","[3, -3, -3]",non-match,0.4763966378857265,1,0.08369410106683302,-0.5075355397421912,1.8440569276344314,3rd,2nd,4th,0.33628216143433143,-0.3857567763323112,1.4460647477609776
mem,resp,845,1,mem1.2.3.bmp,mem2.2.1.bmp,mem1.3.3.bmp,ACC031,"[-3, 0, 3]","[0, 0, -3]","[-3, 3, 3]",non-match,1.0042180842186395,3,-0.10317585902932168,-0.1886456868014273,2.0479557774969277,2nd,2nd,4th,-0.2996502577125311,-0.3857567763323112,1.4460647477609776
mem,resp,781,1,mem3.2.3.bmp,mem3.3.1.bmp,mem3.2.3.bmp,ACC031,"[3, 0, 3]","[3, 3, -3]","[3, 0, 3]",match,1.3545027756320973,,-1.6232851633718242,-1.633857406648837,2.0907401584463114,1st,1st,4th,-1.2850505989406478,-1.2299047342055414,1.4460647477609776
mem,resp,736,1,mem1.1.1.bmp,mem1.3.2.bmp,mem3.2.2.bmp,ACC031,"[-3, -3, -3]","[-3, 3, 0]","[3, 0, 0]",non-match,0.6473959944455496,1,2.0073078785414817,0.020690566675031257,1.758269659365674,4th,3rd,4th,1.2484186952188474,0.3061407537054162,1.4460647477609776
mem,resp,739,0,mem1.1.1.bmp,mem1.2.3.bmp,mem2.1.3.bmp,ACC031,"[-3, -3, -3]","[-3, 0, 3]","[0, -3, 3]",non-match,0.9462544851682343,3,0.39658166727211047,1.5430570999410194,1.5766381626471555,3rd,4th,4th,0.33628216143433143,1.3095207568324363,1.4460647477609776
mem,resp,672,1,mem2.3.2.bmp,mem1.3.3.bmp,mem2.2.3.bmp,ACC031,"[0, 3, 0]","[-3, 3, 3]","[0, 0, 3]",non-match,1.1835034190722742,4,0.8854000674543127,-0.769148788512374,1.6171433790753873,4th,2nd,4th,1.2484186952188474,-0.3857567763323112,1.4460647477609776
mem,resp,655,0,mem1.1.3.bmp,mem2.2.2.bmp,mem2.2.2.bmp,ACC031,"[-3, -3, 3]","[0, 0, 0]","[0, 0, 0]",match,1.5,,-0.7108899890768406,-1.2843582486425,1.7194646435741416,1st,1st,4th,-1.2850505989406478,-1.2299047342055414,1.4460647477609776
mem,resp,577,1,mem2.1.2.bmp,mem1.2.1.bmp,mem3.3.1.bmp,ACC031,"[0, -3, 0]","[-3, 0, -3]","[3, 3, -3]",non-match,0.6473959944455496,1,2.6896135228386746,0.19119194078612975,1.755236396480307,4th,3rd,4th,1.2484186952188474,0.3061407537054162,1.4460647477609776
mem,resp,580,1,mem3.2.2.bmp,mem1.1.1.bmp,mem1.1.1.bmp,ACC031,"[3, 0, 0]","[-3, -3, -3]","[-3, -3, -3]",match,1.2928932188134525,,0.32761035993237075,-0.18925304336278148,1.7513240699637522,3rd,2nd,4th,0.33628216143433143,-0.3857567763323112,1.4460647477609776
mem,resp,643,0,mem3.3.2.bmp,mem2.2.3.bmp,mem2.3.1.bmp,ACC031,"[3, 3, 0]","[0, 0, 3]","[0, 3, -3]",non-match,0.9462544851682343,3,-1.1406472611022394,-0.4487149619275319,1.4103552714472711,1st,2nd,4th,-1.2850505989406478,-0.3857567763323112,1.4460647477609776
mem,resp,554,1,mem1.2.2.bmp,mem2.3.2.bmp,mem1.3.1.bmp,ACC031,"[-3, 0, 0]","[0, 3, 0]","[-3, 3, -3]",non-match,1.1835034190722742,4,0.8972156090783198,1.9016637167422152,1.4804562677866178,4th,4th,4th,1.2484186952188474,1.3095207568324363,1.4460647477609776
mem,resp,649,0,mem3.2.3.bmp,mem2.1.1.bmp,mem2.2.2.bmp,ACC031,"[3, 0, 3]","[0, -3, -3]","[0, 0, 0]",non-match,1.1835034190722742,4,0.11018793642648975,-0.06686725789295545,1.451528625391927,3rd,3rd,4th,0.33628216143433143,0.3061407537054162,1.4460647477609776
mem,resp,622,0,mem3.3.3.bmp,mem3.2.1.bmp,mem3.1.2.bmp,ACC031,"[3, 3, 3]","[3, 0, -3]","[3, -3, 0]",non-match,0.9462544851682343,3,0.5897497003461509,0.7540777881133525,1.393741214001475,3rd,4th,4th,0.33628216143433143,1.3095207568324363,1.4460647477609776
mem,resp,573,0,mem1.3.2.bmp,mem2.3.1.bmp,mem2.3.3.bmp,ACC031,"[-3, 3, 0]","[0, 3, -3]","[0, 3, 3]",non-match,1.0144014403465114,3,-0.1972616665607884,1.8760779295686014,1.7819077385486537,2nd,4th,4th,-0.2996502577125311,1.3095207568324363,1.4460647477609776
mem,resp,557,1,mem1.1.2.bmp,mem3.1.3.bmp,mem1.1.2.bmp,ACC031,"[-3, -3, 0]","[3, -3, 3]","[-3, -3, 0]",match,1.3545027756320973,,-0.5679826118190631,-2.3022409302809965,1.691873023066285,2nd,1st,4th,-0.2996502577125311,-1.2299047342055414,1.4460647477609776
mem,resp,550,1,mem1.2.3.bmp,mem3.2.2.bmp,mem3.2.2.bmp,ACC031,"[-3, 0, 3]","[3, 0, 0]","[3, 0, 0]",match,1.3545027756320973,,0.8088184929076068,0.39686476549573246,1.6633982789833341,4th,3rd,4th,1.2484186952188474,0.3061407537054162,1.4460647477609776
mem,resp,564,1,mem3.1.2.bmp,mem3.1.1.bmp,mem3.3.1.bmp,ACC031,"[3, -3, 0]","[3, -3, -3]","[3, 3, -3]",non-match,0.7771525064424715,2,0.7595972884501907,0.8200475317696114,1.9582322637751508,4th,4th,4th,1.2484186952188474,1.3095207568324363,1.4460647477609776
mem,resp,571,1,mem2.2.3.bmp,mem2.3.3.bmp,mem2.3.3.bmp,ACC031,"[0, 0, 3]","[0, 3, 3]","[0, 3, 3]",match,1.7113248654051871,,-0.6575947397604793,-0.10008247801174713,1.9700644350318894,1st,2nd,4th,-1.2850505989406478,-0.3857567763323112,1.4460647477609776
mem,resp,553,1,mem2.2.1.bmp,mem2.1.3.bmp,mem2.2.1.bmp,ACC031,"[0, 0, -3]","[0, -3, 3]","[0, 0, -3]",match,1.3545027756320973,,0.49829488644139963,0.25733983025711565,1.913533567600577,3rd,3rd,4th,0.33628216143433143,0.3061407537054162,1.4460647477609776
mem,resp,736,1,mem1.3.1.bmp,mem1.2.2.bmp,mem2.2.2.bmp,ACC031,"[-3, 3, -3]","[-3, 0, 0]","[0, 0, 0]",non-match,1.2113248654051871,4,-0.5794604411372397,-2.202419759642933,2.0545671299637793,2nd,1st,4th,-0.2996502577125311,-1.2299047342055414,1.4460647477609776
mem,resp,659,0,mem1.3.3.bmp,mem2.1.2.bmp,mem3.1.3.bmp,ACC031,"[-3, 3, 3]","[0, -3, 0]","[3, -3, 3]",non-match,0.7752551286084112,2,-0.598894025504909,-0.3520239530591209,1.939096184822519,2nd,2nd,4th,-0.2996502577125311,-0.3857567763323112,1.4460647477609776
mem,resp,553,1,mem2.3.1.bmp,mem3.2.3.bmp,mem2.1.1.bmp,ACC031,"[0, 3, -3]","[3, 0, 3]","[0, -3, -3]",non-match,0.7155429496238267,2,1.5223081641689606,-0.3135655197174045,1.9043384527730398,4th,2nd,4th,1.2484186952188474,-0.3857567763323112,1.4460647477609776
mem,resp,578,1,mem3.3.1.bmp,mem3.3.3.bmp,mem1.2.3.bmp,ACC031,"[3, 3, -3]","[3, 3, 3]","[-3, 0, 3]",non-match,0.4884773718476586,1,1.7484101531572824,0.08972793022616446,2.053151091373598,4th,3rd,4th,1.2484186952188474,0.3061407537054162,1.4460647477609776
mem,resp,598,0,mem3.1.1.bmp,mem2.2.1.bmp,mem3.2.1.bmp,ACC031,"[3, -3, -3]","[0, 0, -3]","[3, 0, -3]",non-match,1.4226497308103743,4,0.08924964053115611,-1.247484292357217,1.8528394614636046,3rd,1st,4th,0.33628216143433143,-1.2299047342055414,1.4460647477609776
mem,resp,781,0,mem1.2.1.bmp,mem3.1.2.bmp,mem3.3.2.bmp,ACC031,"[-3, 0, -3]","[3, -3, 0]","[3, 3, 0]",non-match,0.7155429496238267,2,-1.4566975303005723,-1.1081582195745638,1.7448253317298603,1st,1st,4th,-1.2850505989406478,-1.2299047342055414,1.4460647477609776
mem,resp,755,1,mem2.1.3.bmp,mem1.3.1.bmp,mem2.1.3.bmp,ACC031,"[0, -3, 3]","[-3, 3, -3]","[0, -3, 3]",match,1.1339745962155614,,-0.37849549849944625,-0.9169791722720608,1.2716293096892433,2nd,1st,4th,-0.2996502577125311,-1.2299047342055414,1.4460647477609776
mem,resp,568,0,mem2.1.1.bmp,mem1.3.2.bmp,mem1.1.2.bmp,ACC031,"[0, -3, -3]","[-3, 3, 0]","[-3, -3, 0]",non-match,1.0144014403465114,3,-3.0615117337617654,-0.2949896557414192,1.2463821070310934,1st,2nd,4th,-1.2850505989406478,-0.3857567763323112,1.4460647477609776
mem,resp,592,1,mem3.2.1.bmp,mem3.3.3.bmp,mem1.1.1.bmp,ACC031,"[3, 0, -3]","[3, 3, 3]","[-3, -3, -3]",non-match,0.3545027756320972,1,0.8506250003226578,-0.09868382360473729,1.2454415236032208,4th,2nd,4th,1.2484186952188474,-0.3857567763323112,1.4460647477609776
mem,resp,655,1,mem3.1.3.bmp,mem3.3.2.bmp,mem3.3.2.bmp,ACC031,"[3, -3, 3]","[3, 3, 0]","[3, 3, 0]",match,1.3545027756320973,,-0.6285118007535743,-0.9969412987177606,1.3199496532715516,2nd,1st,4th,-0.2996502577125311,-1.2299047342055414,1.4460647477609776
mem,resp,556,0,mem2.3.3.bmp,mem3.2.2.bmp,mem3.2.3.bmp,ACC031,"[0, 3, 3]","[3, 0, 0]","[3, 0, 3]",non-match,1.3030765749413242,4,0.4672655306483402,0.9974976306496318,1.3365749175803787,3rd,4th,4th,0.33628216143433143,1.3095207568324363,1.4460647477609776
mem,resp,576,1,mem2.2.2.bmp,mem1.1.2.bmp,mem1.1.2.bmp,ACC031,"[0, 0, 0]","[-3, -3, 0]","[-3, -3, 0]",match,1.591751709536137,,-0.6794876133278563,-0.03928696419057908,1.2824824653864757,1st,3rd,4th,-1.2850505989406478,0.3061407537054162,1.4460647477609776
mem,resp,570,1,mem1.2.2.bmp,mem2.2.3.bmp,mem2.2.3.bmp,ACC031,"[-3, 0, 0]","[0, 0, 3]","[0, 0, 3]",match,1.591751709536137,,0.23577714980840628,2.322330903222986,1.2645187958662618,3rd,4th,4th,0.33628216143433143,1.3095207568324363,1.4460647477609776
mem,resp,571,1,mem1.3.3.bmp,mem1.3.1.bmp,mem3.2.1.bmp,ACC031,"[-3, 3, 3]","[-3, 3, -3]","[3, 0, -3]",non-match,0.4884773718476586,1,0.13792769956615614,-0.5319213619656681,0.9334750405522272,3rd,2nd,4th,0.33628216143433143,-0.3857567763323112,1.4460647477609776
mem,resp,514,0,mem2.3.3.bmp,mem2.3.2.bmp,mem1.3.2.bmp,ACC031,"[0, 3, 3]","[0, 3, 0]","[-3, 3, 0]",non-match,1.3030765749413242,4,0.3652196302760979,0.29405335150968875,0.9552175669494429,3rd,3rd,4th,0.33628216143433143,0.3061407537054162,1.4460647477609776
mem,resp,535,1,mem2.2.2.bmp,mem2.1.3.bmp,mem2.2.2.bmp,ACC031,"[0, 0, 0]","[0, -3, 3]","[0, 0, 0]",match,1.591751709536137,,0.9414058969031625,0.7373580313927315,0.7554680399013174,4th,4th,4th,1.2484186952188474,1.3095207568324363,1.4460647477609776
mem,resp,738,1,mem1.1.1.bmp,mem3.2.3.bmp,mem2.1.2.bmp,ACC031,"[-3, -3, -3]","[3, 0, 3]","[0, -3, 0]",non-match,1.091751709536137,4,-0.8635204094516168,-0.9284745942956443,1.0751164581782464,1st,1st,4th,-1.2850505989406478,-1.2299047342055414,1.4460647477609776
mem,resp,569,1,mem2.2.3.bmp,mem3.1.3.bmp,mem3.1.3.bmp,ACC031,"[0, 0, 3]","[3, -3, 3]","[3, -3, 3]",match,1.591751709536137,,1.0733079624693405,1.3975695347564434,1.003843636415747,4th,4th,4th,1.2484186952188474,1.3095207568324363,1.4460647477609776
mem,resp,428,0,mem3.2.2.bmp,mem1.3.2.bmp,mem1.3.3.bmp,ACC031,"[3, 0, 0]","[-3, 3, 0]","[-3, 3, 3]",non-match,1.0042180842186395,3,0.09570655265960623,3.258353215069136,0.8717813630336095,3rd,4th,4th,0.33628216143433143,1.3095207568324363,1.4460647477609776
mem,resp,561,1,mem3.1.2.bmp,mem2.3.1.bmp,mem3.1.2.bmp,ACC031,"[3, -3, 0]","[0, 3, -3]","[3, -3, 0]",match,1.2928932188134525,,-1.094550801046771,2.5270975586900133,0.7556879618859079,1st,4th,4th,-1.2850505989406478,1.3095207568324363,1.4460647477609776
mem,resp,754,0,mem1.2.3.bmp,mem3.1.1.bmp,mem1.3.1.bmp,ACC031,"[-3, 0, 3]","[3, -3, -3]","[-3, 3, -3]",non-match,0.5380061947043713,1,-0.325070551165527,0.6067092038042006,0.560090001870718,2nd,3rd,3rd,-0.2996502577125311,0.3061407537054162,0.20921330949155886
mem,resp,638,0,mem3.3.2.bmp,mem1.1.3.bmp,mem2.1.1.bmp,ACC031,"[3, 3, 0]","[-3, -3, 3]","[0, -3, -3]",non-match,0.6473959944455496,1,-1.1177595670175529,-1.0011014403143539,0.4777646558152546,1st,1st,3rd,-1.2850505989406478,-1.2299047342055414,0.20921330949155886
mem,resp,621,1,mem1.2.1.bmp,mem2.1.2.bmp,mem2.2.3.bmp,ACC031,"[-3, 0, -3]","[0, -3, 0]","[0, 0, 3]",non-match,0.9462544851682343,3,-0.24467107060843374,-1.1207890995119487,0.5504901453304657,2nd,1st,3rd,-0.2996502577125311,-1.2299047342055414,0.20921330949155886
mem,resp,856,0,mem2.2.1.bmp,mem1.2.2.bmp,mem3.2.2.bmp,ACC031,"[0, 0, -3]","[-3, 0, 0]","[3, 0, 0]",non-match,1.0144014403465114,3,-1.6847212505935825,-1.4301613695766462,0.5562931027783801,1st,1st,3rd,-1.2850505989406478,-1.2299047342055414,0.20921330949155886
mem,resp,649,1,mem3.1.1.bmp,mem3.3.1.bmp,mem3.1.1.bmp,ACC031,"[3, -3, -3]","[3, 3, -3]","[3, -3, -3]",match,1.4226497308103743,,0.018981895320187705,-0.8003472284693404,0.5578524172004482,2nd,1st,3rd,-0.2996502577125311,-1.2299047342055414,0.20921330949155886
mem,resp,697,1,mem2.1.3.bmp,mem1.1.1.bmp,mem2.1.3.bmp,ACC031,"[0, -3, 3]","[-3, -3, -3]","[0, -3, 3]",match,1.3545027756320973,,1.3928552800962808,0.9253832187531225,0.5352016385475817,4th,4th,3rd,1.2484186952188474,1.3095207568324363,0.20921330949155886
mem,resp,519,1,mem3.1.2.bmp,mem3.1.1.bmp,mem1.1.2.bmp,ACC031,"[3, -3, 0]","[3, -3, -3]","[-3, -3, 0]",non-match,0.7771525064424715,2,1.71283199983251,2.5504517440796244,0.4787380105882622,4th,4th,3rd,1.2484186952188474,1.3095207568324363,0.20921330949155886
mem,resp,562,1,mem2.2.2.bmp,mem3.3.2.bmp,mem1.2.1.bmp,ACC031,"[0, 0, 0]","[3, 3, 0]","[-3, 0, -3]",non-match,0.8846449283495895,2,0.5908151059295639,0.9023635271074064,0.597364061874407,3rd,4th,3rd,0.33628216143433143,1.3095207568324363,0.20921330949155886
mem,resp,533,0,mem3.3.3.bmp,mem1.1.3.bmp,mem3.3.1.bmp,ACC031,"[3, 3, 3]","[-3, -3, 3]","[3, 3, -3]",non-match,0.42264973081037427,1,-0.9852039843785787,-0.3332878486744041,0.35794296188445174,1st,2nd,3rd,-1.2850505989406478,-0.3857567763323112,0.20921330949155886
mem,resp,807,1,mem2.1.2.bmp,mem2.3.3.bmp,mem2.3.3.bmp,ACC031,"[0, -3, 0]","[0, 3, 3]","[0, 3, 3]",match,1.3545027756320973,,-1.2658029222742704,-1.1110511536365466,0.2650611085133832,1st,1st,3rd,-1.2850505989406478,-1.2299047342055414,0.20921330949155886
mem,resp,632,1,mem2.2.3.bmp,mem2.2.1.bmp,mem3.1.2.bmp,ACC031,"[0, 0, 3]","[0, 0, -3]","[3, -3, 0]",non-match,1.0,3,0.5525403440749295,0.3043888362479883,0.2892894788281528,3rd,3rd,3rd,0.33628216143433143,0.3061407537054162,0.20921330949155886
mem,resp,663,1,mem2.3.2.bmp,mem2.3.1.bmp,mem1.3.1.bmp,ACC031,"[0, 3, 0]","[0, 3, -3]","[-3, 3, -3]",non-match,1.3030765749413242,4,0.4627569619235358,-0.07383047133581214,0.027649185538339876,3rd,3rd,3rd,0.33628216143433143,0.3061407537054162,0.20921330949155886
mem,resp,849,0,mem1.3.2.bmp,mem3.2.1.bmp,mem1.3.2.bmp,ACC031,"[-3, 3, 0]","[3, 0, -3]","[-3, 3, 0]",match,1.2928932188134525,,-0.1281145174441461,1.404837053601684,-0.05711709100976282,2nd,4th,3rd,-0.2996502577125311,1.3095207568324363,0.20921330949155886
mem,resp,733,1,mem3.3.1.bmp,mem2.1.3.bmp,mem1.1.1.bmp,ACC031,"[3, 3, -3]","[0, -3, 3]","[-3, -3, -3]",non-match,0.5380061947043713,1,0.7896978152562618,-0.11782115613299131,-0.19780489419903022,4th,2nd,2nd,1.2484186952188474,-0.3857567763323112,-0.5216200836989492
mem,resp,556,1,mem1.3.3.bmp,mem1.2.2.bmp,mem1.2.2.bmp,ACC031,"[-3, 3, 3]","[-3, 0, 0]","[-3, 0, 0]",match,1.591751709536137,,1.6657998000559735,-0.36039261112333826,-0.287371879945683,4th,2nd,2nd,1.2484186952188474,-0.3857567763323112,-0.5216200836989492
mem,resp,778,1,mem1.2.1.bmp,mem2.3.2.bmp,mem2.3.1.bmp,ACC031,"[-3, 0, -3]","[0, 3, 0]","[0, 3, -3]",non-match,1.3030765749413242,4,-1.2260625871128599,-0.875236307923736,-0.1248869033167044,1st,1st,3rd,-1.2850505989406478,-1.2299047342055414,0.20921330949155886
mem,resp,619,1,mem1.1.3.bmp,mem1.1.2.bmp,mem1.1.3.bmp,ACC031,"[-3, -3, 3]","[-3, -3, 0]","[-3, -3, 3]",match,1.7113248654051871,,0.8918906930860301,-0.2622651042965975,-0.18136767968591538,4th,2nd,2nd,1.2484186952188474,-0.3857567763323112,-0.5216200836989492
mem,resp,522,1,mem3.3.2.bmp,mem3.2.2.bmp,mem3.2.2.bmp,ACC031,"[3, 3, 0]","[3, 0, 0]","[3, 0, 0]",match,1.7113248654051871,,0.9176767659629438,0.9471339620608672,-0.17359976880080466,4th,4th,2nd,1.2484186952188474,1.3095207568324363,-0.5216200836989492
mem,resp,517,1,mem2.1.1.bmp,mem3.1.3.bmp,mem3.1.3.bmp,ACC031,"[0, -3, -3]","[3, -3, 3]","[3, -3, 3]",match,1.3545027756320973,,0.40975439718829665,-0.52620746146387,-0.2532300534455911,3rd,2nd,2nd,0.33628216143433143,-0.3857567763323112,-0.5216200836989492
mem,resp,608,0,mem1.3.1.bmp,mem1.3.2.bmp,mem1.3.1.bmp,ACC031,"[-3, 3, -3]","[-3, 3, 0]","[-3, 3, -3]",match,1.7113248654051871,,0.2501393922006073,0.3161877203033841,-0.5034683076830068,3rd,3rd,2nd,0.33628216143433143,0.3061407537054162,-0.5216200836989492
mem,resp,953,0,mem1.1.1.bmp,mem3.2.3.bmp,mem2.1.3.bmp,ACC031,"[-3, -3, -3]","[3, 0, 3]","[0, -3, 3]",non-match,0.9462544851682343,3,-0.24298078815602359,-1.526935434227761,-0.6793729058988031,2nd,1st,2nd,-0.2996502577125311,-1.2299047342055414,-0.5216200836989492
mem,resp,529,1,mem2.3.1.bmp,mem1.3.3.bmp,mem2.3.1.bmp,ACC031,"[0, 3, -3]","[-3, 3, 3]","[0, 3, -3]",match,1.3545027756320973,,0.6002581399717011,0.8115503353802253,-0.38650681733193837,3rd,4th,2nd,0.33628216143433143,1.3095207568324363,-0.5216200836989492
mem,resp,418,1,mem3.2.1.bmp,mem2.1.1.bmp,mem3.2.1.bmp,ACC031,"[3, 0, -3]","[0, -3, -3]","[3, 0, -3]",match,1.591751709536137,,-1.4041623410066835,2.554323723251582,-0.04473546141859779,1st,4th,3rd,-1.2850505989406478,1.3095207568324363,0.20921330949155886
mem,resp,631,1,mem3.1.1.bmp,mem2.2.2.bmp,mem3.3.2.bmp,ACC031,"[3, -3, -3]","[0, 0, 0]","[3, 3, 0]",non-match,0.9462544851682343,3,0.4396590750056154,-0.8337161150313772,-0.12542669243326773,3rd,1st,3rd,0.33628216143433143,-1.2299047342055414,0.20921330949155886
mem,resp,574,1,mem3.1.3.bmp,mem2.1.2.bmp,mem3.3.1.bmp,ACC031,"[3, -3, 3]","[0, -3, 0]","[3, 3, -3]",non-match,0.4763966378857265,1,0.5079306229050787,0.3146729402560386,-0.463195529395783,3rd,3rd,2nd,0.33628216143433143,0.3061407537054162,-0.5216200836989492
mem,resp,525,1,mem2.3.3.bmp,mem3.3.3.bmp,mem2.3.3.bmp,ACC031,"[0, 3, 3]","[3, 3, 3]","[0, 3, 3]",match,1.7113248654051871,,1.2789950618944879,0.45544606394161813,-0.8988103776861487,4th,3rd,1st,1.2484186952188474,0.3061407537054162,-1.1336579735535868
mem,resp,498,1,mem1.2.3.bmp,mem2.2.3.bmp,mem3.1.2.bmp,ACC031,"[-3, 0, 3]","[0, 0, 3]","[3, -3, 0]",non-match,0.7928932188134524,2,1.487351789822548,0.824085849568284,-0.6917736154121412,4th,4th,2nd,1.2484186952188474,1.3095207568324363,-0.5216200836989492
mem,resp,567,1,mem1.2.2.bmp,mem3.3.2.bmp,mem3.3.2.bmp,ACC031,"[-3, 0, 0]","[3, 3, 0]","[3, 3, 0]",match,1.3545027756320973,,1.2922477758715902,0.6743512431808407,-0.7119073151072371,4th,3rd,2nd,1.2484186952188474,0.3061407537054162,-0.5216200836989492
mem,resp,536,1,mem2.2.1.bmp,mem1.3.3.bmp,mem2.2.1.bmp,ACC031,"[0, 0, -3]","[-3, 3, 3]","[0, 0, -3]",match,1.2928932188134525,,0.17070914437608137,-0.10068901282741552,-0.39261908225391723,3rd,2nd,2nd,0.33628216143433143,-0.3857567763323112,-0.5216200836989492
mem,resp,497,1,mem3.2.2.bmp,mem2.3.3.bmp,mem1.1.1.bmp,ACC031,"[3, 0, 0]","[0, 3, 3]","[-3, -3, -3]",non-match,0.42686781502901383,1,1.2239081236968976,1.0679104234797077,-0.6130486829288082,4th,4th,2nd,1.2484186952188474,1.3095207568324363,-0.5216200836989492
mem,resp,579,0,mem3.2.3.bmp,mem1.3.1.bmp,mem2.1.1.bmp,ACC031,"[3, 0, 3]","[-3, 3, -3]","[0, -3, -3]",non-match,0.6473959944455496,1,1.4103525553583398,1.060564968543634,-0.4104786588163948,4th,4th,2nd,1.2484186952188474,1.3095207568324363,-0.5216200836989492
mem,resp,580,1,mem1.1.2.bmp,mem1.2.2.bmp,mem2.3.2.bmp,ACC031,"[-3, -3, 0]","[-3, 0, 0]","[0, 3, 0]",non-match,0.9462544851682343,3,0.75442356734041,-0.25611836006724603,-0.9656808817986224,4th,2nd,1st,1.2484186952188474,-0.3857567763323112,-1.1336579735535868
mem,resp,784,1,mem1.3.2.bmp,mem2.1.3.bmp,mem3.1.1.bmp,ACC031,"[-3, 3, 0]","[0, -3, 3]","[3, -3, -3]",non-match,0.4884773718476586,1,-2.083052161025968,-0.44903180976406837,-0.9466521563620409,1st,2nd,1st,-1.2850505989406478,-0.3857567763323112,-1.1336579735535868
mem,resp,575,0,mem3.2.2.bmp,mem1.2.1.bmp,mem2.1.2.bmp,ACC031,"[3, 0, 0]","[-3, 0, -3]","[0, -3, 0]",non-match,1.091751709536137,4,-0.5254178764310409,-1.103864944364427,-1.0125968663831475,2nd,1st,1st,-0.2996502577125311,-1.2299047342055414,-1.1336579735535868
mem,resp,579,1,mem1.1.1.bmp,mem2.1.1.bmp,mem2.2.3.bmp,ACC031,"[-3, -3, -3]","[0, -3, -3]","[0, 0, 3]",non-match,0.6473959944455496,1,0.4468027445133392,1.2824499706386705,-1.0034962352543277,3rd,4th,1st,0.33628216143433143,1.3095207568324363,-1.1336579735535868
mem,resp,598,1,mem2.2.1.bmp,mem2.3.2.bmp,mem2.2.1.bmp,ACC031,"[0, 0, -3]","[0, 3, 0]","[0, 0, -3]",match,1.591751709536137,,-1.2135798965770643,-1.5615447594180714,-0.9129138097917605,1st,1st,1st,-1.2850505989406478,-1.2299047342055414,-1.1336579735535868
mem,resp,501,1,mem2.3.3.bmp,mem1.1.2.bmp,mem1.1.2.bmp,ACC031,"[0, 3, 3]","[-3, -3, 0]","[-3, -3, 0]",match,1.2928932188134525,,2.2875906334291627,1.4503590831092432,-0.8789880440242589,4th,4th,1st,1.2484186952188474,1.3095207568324363,-1.1336579735535868
mem,resp,540,1,mem2.2.2.bmp,mem1.3.2.bmp,mem1.3.2.bmp,ACC031,"[0, 0, 0]","[-3, 3, 0]","[-3, 3, 0]",match,1.591751709536137,,1.28853446028702,-0.3236389108317061,-0.6864309129679462,4th,2nd,2nd,1.2484186952188474,-0.3857567763323112,-0.5216200836989492
mem,resp,522,1,mem1.1.3.bmp,mem3.2.1.bmp,mem3.2.1.bmp,ACC031,"[-3, -3, 3]","[3, 0, -3]","[3, 0, -3]",match,1.1339745962155614,,-0.5475014621641591,1.1434955431548643,-0.6835279935168849,2nd,4th,2nd,-0.2996502577125311,1.3095207568324363,-0.5216200836989492
mem,resp,915,1,mem2.2.3.bmp,mem2.3.1.bmp,mem1.3.1.bmp,ACC031,"[0, 0, 3]","[0, 3, -3]","[-3, 3, -3]",non-match,1.0042180842186395,3,0.06298643739550475,-1.0049771930290001,-0.4876089155959619,3rd,1st,2nd,0.33628216143433143,-1.2299047342055414,-0.5216200836989492
mem,resp,529,1,mem2.3.2.bmp,mem3.3.3.bmp,mem2.1.1.bmp,ACC031,"[0, 3, 0]","[3, 3, 3]","[0, -3, -3]",non-match,0.4884773718476586,1,0.9928272470893218,0.7301317728308716,-0.435386446226796,4th,3rd,2nd,1.2484186952188474,0.3061407537054162,-0.5216200836989492
mem,resp,762,0,mem3.3.1.bmp,mem3.2.3.bmp,mem3.2.2.bmp,ACC031,"[3, 3, -3]","[3, 0, 3]","[3, 0, 0]",non-match,1.3030765749413242,4,0.25737171935835346,-0.9597395091536151,-0.6044502904898098,3rd,1st,2nd,0.33628216143433143,-1.2299047342055414,-0.5216200836989492
mem,resp,553,1,mem2.1.2.bmp,mem3.1.2.bmp,mem2.1.2.bmp,ACC031,"[0, -3, 0]","[3, -3, 0]","[0, -3, 0]",match,1.7113248654051871,,1.128599821982154,1.3227053022966004,-0.559497930143398,4th,4th,2nd,1.2484186952188474,1.3095207568324363,-0.5216200836989492
mem,resp,441,1,mem2.3.2.bmp,mem2.2.1.bmp,mem2.3.2.bmp,ACC031,"[0, 3, 0]","[0, 0, -3]","[0, 3, 0]",match,1.591751709536137,,1.157216239748826,0.5267788659416095,-0.5698276803829104,4th,3rd,2nd,1.2484186952188474,0.3061407537054162,-0.5216200836989492
mem,resp,766,0,mem3.2.3.bmp,mem1.2.3.bmp,mem3.2.3.bmp,ACC031,"[3, 0, 3]","[-3, 0, 3]","[3, 0, 3]",match,1.4226497308103743,,-0.748526267697767,-1.854775168118799,-0.6829555719128152,1st,1st,2nd,-1.2850505989406478,-1.2299047342055414,-0.5216200836989492
mem,resp,447,1,mem1.1.1.bmp,mem2.2.3.bmp,mem1.1.1.bmp,ACC031,"[-3, -3, -3]","[0, 0, 3]","[-3, -3, -3]",match,1.2928932188134525,,-0.29635159140693607,-0.2809846872680527,-0.8301807343490063,2nd,2nd,2nd,-0.2996502577125311,-0.3857567763323112,-0.5216200836989492
mem,resp,807,1,mem1.3.3.bmp,mem3.2.2.bmp,mem2.2.2.bmp,ACC031,"[-3, 3, 3]","[3, 0, 0]","[0, 0, 0]",non-match,1.2113248654051871,4,-0.9315035729027961,-1.9596406868207128,-0.6297231588038005,1st,1st,2nd,-1.2850505989406478,-1.2299047342055414,-0.5216200836989492
mem,resp,671,1,mem1.1.3.bmp,mem2.3.2.bmp,mem2.1.1.bmp,ACC031,"[-3, -3, 3]","[0, 3, 0]","[0, -3, -3]",non-match,0.7090055512641944,2,1.3439193033621915,-0.23405029317546294,-0.8621859428600224,4th,2nd,1st,1.2484186952188474,-0.3857567763323112,-1.1336579735535868
mem,resp,916,1,mem2.1.2.bmp,mem2.3.1.bmp,mem2.3.1.bmp,ACC031,"[0, -3, 0]","[0, 3, -3]","[0, 3, -3]",match,1.3545027756320973,,1.6230909994763125,0.8348501125554808,-0.9302601612635901,4th,4th,1st,1.2484186952188474,1.3095207568324363,-1.1336579735535868
mem,resp,570,1,mem2.1.3.bmp,mem3.1.3.bmp,mem3.3.3.bmp,ACC031,"[0, -3, 3]","[3, -3, 3]","[3, 3, 3]",non-match,0.7771525064424715,2,-1.117406664548091,-0.5893875731408055,-1.3290169409061448,1st,2nd,1st,-1.2850505989406478,-0.3857567763323112,-1.1336579735535868
mem,resp,561,1,mem3.1.2.bmp,mem1.1.1.bmp,mem1.2.3.bmp,ACC031,"[3, -3, 0]","[-3, -3, -3]","[-3, 0, 3]",non-match,0.6473959944455496,1,-0.14075712182601607,0.5442340418012518,-1.3904374409251659,2nd,3rd,1st,-0.2996502577125311,0.3061407537054162,-1.1336579735535868
mem,resp,654,1,mem1.1.2.bmp,mem3.2.1.bmp,mem2.2.1.bmp,ACC031,"[-3, -3, 0]","[3, 0, -3]","[0, 0, -3]",non-match,1.2113248654051871,4,-0.15930468739455456,0.6753088796532115,-1.3366124264338688,2nd,3rd,1st,-0.2996502577125311,0.3061407537054162,-1.1336579735535868
mem,resp,646,1,mem2.2.2.bmp,mem1.3.3.bmp,mem1.3.3.bmp,ACC031,"[0, 0, 0]","[-3, 3, 3]","[-3, 3, 3]",match,1.5,,1.6777814784067102,0.463342261486271,-1.033621031266834,4th,3rd,1st,1.2484186952188474,0.3061407537054162,-1.1336579735535868
mem,resp,590,1,mem1.3.1.bmp,mem1.1.3.bmp,mem2.1.1.bmp,ACC031,"[-3, 3, -3]","[-3, -3, 3]","[0, -3, -3]",non-match,0.7090055512641944,2,0.1766956918335769,1.2757357893883847,-1.195863838142313,3rd,4th,1st,0.33628216143433143,1.3095207568324363,-1.1336579735535868
mem,resp,803,0,mem2.2.3.bmp,mem3.3.1.bmp,mem2.3.2.bmp,ACC031,"[0, 0, 3]","[3, 3, -3]","[0, 3, 0]",non-match,1.1835034190722742,4,-1.6642110245245616,-0.48405058866410555,-1.3941712370369923,1st,2nd,1st,-1.2850505989406478,-0.3857567763323112,-1.1336579735535868
mem,resp,495,1,mem1.2.2.bmp,mem1.2.1.bmp,mem1.2.1.bmp,ACC031,"[-3, 0, 0]","[-3, 0, -3]","[-3, 0, -3]",match,1.7113248654051871,,-0.015006729439944065,-0.3895195599557142,-0.9490821112471722,2nd,2nd,1st,-0.2996502577125311,-0.3857567763323112,-1.1336579735535868
mem,resp,626,0,mem3.2.2.bmp,mem1.1.2.bmp,mem3.2.3.bmp,ACC031,"[3, 0, 0]","[-3, -3, 0]","[3, 0, 3]",non-match,1.0042180842186395,3,-0.2442414870946373,-0.6301381146988639,-1.1219165127651427,2nd,2nd,1st,-0.2996502577125311,-0.3857567763323112,-1.1336579735535868
mem,resp,587,1,mem1.3.2.bmp,mem2.3.3.bmp,mem3.3.2.bmp,ACC031,"[-3, 3, 0]","[0, 3, 3]","[3, 3, 0]",non-match,1.0144014403465114,3,0.3323074174121414,-1.854238087032246,-1.126058363554422,3rd,1st,1st,0.33628216143433143,-1.2299047342055414,-1.1336579735535868
mem,resp,762,1,mem3.3.1.bmp,mem1.3.1.bmp,mem1.3.1.bmp,ACC031,"[3, 3, -3]","[-3, 3, -3]","[-3, 3, -3]",match,1.4226497308103743,,-0.45635990944400956,-0.14283872778975865,-1.1565885373936404,2nd,2nd,1st,-0.2996502577125311,-0.3857567763323112,-1.1336579735535868
mem,resp,602,1,mem3.3.3.bmp,mem3.1.2.bmp,mem3.1.2.bmp,ACC031,"[3, 3, 3]","[3, -3, 0]","[3, -3, 0]",match,1.3545027756320973,,-2.093560452840957,-0.11791591638549608,-1.3205835453551267,1st,2nd,1st,-1.2850505989406478,-0.3857567763323112,-1.1336579735535868
mem,resp,856,1,mem3.1.1.bmp,mem2.1.2.bmp,mem1.1.3.bmp,ACC031,"[3, -3, -3]","[0, -3, 0]","[-3, -3, 3]",non-match,0.7752551286084112,2,-0.3613465382576077,0.35449590393391783,-1.2861275163324835,2nd,3rd,1st,-0.2996502577125311,0.3061407537054162,-1.1336579735535868
mem,resp,405,1,mem2.2.1.bmp,mem2.2.2.bmp,mem2.2.1.bmp,ACC031,"[0, 0, -3]","[0, 0, 0]","[0, 0, -3]",match,1.7113248654051871,,1.7600183782186587,-0.12765848998660254,-1.335561278659173,4th,2nd,1st,1.2484186952188474,-0.3857567763323112,-1.1336579735535868
mem,resp,451,1,mem3.2.1.bmp,mem3.3.2.bmp,mem3.2.1.bmp,ACC031,"[3, 0, -3]","[3, 3, 0]","[3, 0, -3]",match,1.591751709536137,,1.6453274260482942,0.8098482838160629,-1.3510951811560792,4th,4th,1st,1.2484186952188474,1.3095207568324363,-1.1336579735535868
mem,resp,612,1,mem2.3.1.bmp,mem3.2.3.bmp,mem2.1.3.bmp,ACC031,"[0, 3, -3]","[3, 0, 3]","[0, -3, 3]",non-match,0.7752551286084112,2,0.47764850946628995,-0.5634963776955974,-1.2808081747833386,3rd,2nd,1st,0.33628216143433143,-0.3857567763323112,-1.1336579735535868
mem,resp,553,1,mem1.2.3.bmp,mem2.1.1.bmp,mem2.1.1.bmp,ACC031,"[-3, 0, 3]","[0, -3, -3]","[0, -3, -3]",match,1.2928932188134525,,0.8861051404568004,0.9245609540700443,-1.4014981353107208,4th,4th,1st,1.2484186952188474,1.3095207568324363,-1.1336579735535868
mem,resp,446,1,mem1.2.1.bmp,mem1.3.2.bmp,mem1.2.1.bmp,ACC031,"[-3, 0, -3]","[-3, 3, 0]","[-3, 0, -3]",match,1.591751709536137,,-0.10956408949461831,-0.7522973794829322,-1.270006811480122,2nd,2nd,1st,-0.2996502577125311,-0.3857567763323112,-1.1336579735535868
mem,resp,519,1,mem2.3.3.bmp,mem1.3.1.bmp,mem2.2.3.bmp,ACC031,"[0, 3, 3]","[-3, 3, -3]","[0, 0, 3]",non-match,1.0042180842186395,3,1.3422919562951572,-0.6923869938898067,-1.3069147519737085,4th,2nd,1st,1.2484186952188474,-0.3857567763323112,-1.1336579735535868
mem,resp,680,1,mem3.3.2.bmp,mem2.2.1.bmp,mem3.3.3.bmp,ACC031,"[3, 3, 0]","[0, 0, -3]","[3, 3, 3]",non-match,1.0042180842186395,3,-1.5761766763406893,1.2376459738614105,-1.0448617580937194,1st,4th,1st,-1.2850505989406478,1.3095207568324363,-1.1336579735535868
mem,resp,563,0,mem2.1.1.bmp,mem1.1.3.bmp,mem1.2.3.bmp,ACC031,"[0, -3, -3]","[-3, -3, 3]","[-3, 0, 3]",non-match,1.0042180842186395,3,0.03395416708626793,-1.3380067415404955,-1.1467671048662993,2nd,1st,1st,-0.2996502577125311,-1.2299047342055414,-1.1336579735535868
mem,resp,522,1,mem3.1.3.bmp,mem3.1.1.bmp,mem3.1.3.bmp,ACC031,"[3, -3, 3]","[3, -3, -3]","[3, -3, 3]",match,1.4226497308103743,,1.2341746300745184,0.7784550901315604,-1.1719822353797789,4th,4th,1st,1.2484186952188474,1.3095207568324363,-1.1336579735535868
mem,resp,588,0,mem3.2.2.bmp,mem2.2.2.bmp,mem2.2.3.bmp,ACC031,"[3, 0, 0]","[0, 0, 0]","[0, 0, 3]",non-match,1.3030765749413242,4,-1.416338518252433,-1.2236563705797407,-1.1199001741729935,1st,1st,1st,-1.2850505989406478,-1.2299047342055414,-1.1336579735535868
mem,resp,539,1,mem2.2.1.bmp,mem3.2.3.bmp,mem1.2.2.bmp,ACC031,"[0, 0, -3]","[3, 0, 3]","[-3, 0, 0]",non-match,0.9462544851682343,3,0.7719251825165595,1.3091575704227234,-0.8340724092025642,4th,4th,2nd,1.2484186952188474,1.3095207568324363,-0.5216200836989492
mem,resp,539,1,mem2.1.3.bmp,mem2.3.1.bmp,mem2.3.1.bmp,ACC031,"[0, -3, 3]","[0, 3, -3]","[0, 3, -3]",match,1.1835034190722742,,2.006685120253985,1.765845243794525,-0.5791749606564538,4th,4th,2nd,1.2484186952188474,1.3095207568324363,-0.5216200836989492
mem,resp,592,1,mem2.1.1.bmp,mem2.3.2.bmp,mem3.1.3.bmp,ACC031,"[0, -3, -3]","[0, 3, 0]","[3, -3, 3]",non-match,0.6473959944455496,1,0.38459468993022666,1.4080122789316267,-0.9412571832083506,3rd,4th,1st,0.33628216143433143,1.3095207568324363,-1.1336579735535868
mem,resp,476,1,mem3.2.1.bmp,mem2.1.2.bmp,mem2.1.2.bmp,ACC031,"[3, 0, -3]","[0, -3, 0]","[0, -3, 0]",match,1.5,,1.7560157413806619,0.6941990829789031,-1.0729425325204,4th,3rd,1st,1.2484186952188474,0.3061407537054162,-1.1336579735535868
mem,resp,515,1,mem3.1.1.bmp,mem2.2.3.bmp,mem2.2.3.bmp,ACC031,"[3, -3, -3]","[0, 0, 3]","[0, 0, 3]",match,1.2928932188134525,,0.9959200330943481,0.6461122554366341,-0.9178295504544454,4th,3rd,1st,1.2484186952188474,0.3061407537054162,-1.1336579735535868
mem,resp,648,1,mem3.1.2.bmp,mem1.2.2.bmp,mem3.1.2.bmp,ACC031,"[3, -3, 0]","[-3, 0, 0]","[3, -3, 0]",match,1.3545027756320973,,-0.257742273472116,0.44576010429328594,-0.9340539861247575,2nd,3rd,1st,-0.2996502577125311,0.3061407537054162,-1.1336579735535868
mem,resp,519,1,mem2.3.2.bmp,mem3.2.2.bmp,mem2.3.2.bmp,ACC031,"[0, 3, 0]","[3, 0, 0]","[0, 3, 0]",match,1.591751709536137,,0.09291589813493209,0.3078195379866698,-0.6762223269105875,3rd,3rd,2nd,0.33628216143433143,0.3061407537054162,-0.5216200836989492
mem,resp,592,0,mem1.3.3.bmp,mem3.2.1.bmp,mem2.2.1.bmp,ACC031,"[-3, 3, 3]","[3, 0, -3]","[0, 0, -3]",non-match,1.0042180842186395,3,-0.8954263664440547,-0.7368576862919272,-0.7189996655049761,1st,2nd,2nd,-1.2850505989406478,-0.3857567763323112,-0.5216200836989492
mem,resp,523,1,mem2.2.3.bmp,mem1.1.2.bmp,mem1.1.2.bmp,ACC031,"[0, 0, 3]","[-3, -3, 0]","[-3, -3, 0]",match,1.5,,0.3020640649774866,-0.954518504689093,-1.0930360982768117,3rd,1st,1st,0.33628216143433143,-1.2299047342055414,-1.1336579735535868
mem,resp,564,0,mem1.1.3.bmp,mem2.3.3.bmp,mem1.2.3.bmp,ACC031,"[-3, -3, 3]","[0, 3, 3]","[-3, 0, 3]",non-match,1.3030765749413242,4,-0.724257306315387,2.215091793732518,-0.9769342089891665,1st,4th,1st,-1.2850505989406478,1.3095207568324363,-1.1336579735535868
mem,resp,805,1,mem1.2.2.bmp,mem3.3.1.bmp,mem1.2.2.bmp,ACC031,"[-3, 0, 0]","[3, 3, -3]","[-3, 0, 0]",match,1.2928932188134525,,-0.8978294526923303,-1.070856025662545,-1.0050277236898986,1st,1st,1st,-1.2850505989406478,-1.2299047342055414,-1.1336579735535868
mem,resp,617,1,mem1.2.1.bmp,mem1.3.3.bmp,mem2.2.1.bmp,ACC031,"[-3, 0, -3]","[-3, 3, 3]","[0, 0, -3]",non-match,1.0042180842186395,3,-0.09840776268941866,-0.4583781289455263,-0.9215523821266337,2nd,2nd,1st,-0.2996502577125311,-0.3857567763323112,-1.1336579735535868
mem,resp,543,1,mem3.2.1.bmp,mem3.1.2.bmp,mem1.2.2.bmp,ACC031,"[3, 0, -3]","[3, -3, 0]","[-3, 0, 0]",non-match,0.7090055512641944,2,1.0625690828458458,0.7356783832109506,-0.9613185410686415,4th,3rd,1st,1.2484186952188474,0.3061407537054162,-1.1336579735535868
mem,resp,595,1,mem2.3.2.bmp,mem3.3.3.bmp,mem3.3.3.bmp,ACC031,"[0, 3, 0]","[3, 3, 3]","[3, 3, 3]",match,1.591751709536137,,0.7300988354300719,-0.17934776411588585,-1.1180488083602977,4th,2nd,1st,1.2484186952188474,-0.3857567763323112,-1.1336579735535868
mem,resp,598,1,mem2.2.3.bmp,mem1.2.1.bmp,mem2.2.3.bmp,ACC031,"[0, 0, 3]","[-3, 0, -3]","[0, 0, 3]",match,1.3545027756320973,,-0.4270956056053927,-1.6018413324376073,-1.1696634481887005,2nd,1st,1st,-0.2996502577125311,-1.2299047342055414,-1.1336579735535868
mem,resp,549,1,mem3.2.2.bmp,mem1.3.2.bmp,mem2.2.1.bmp,ACC031,"[3, 0, 0]","[-3, 3, 0]","[0, 0, -3]",non-match,1.091751709536137,4,0.46316924155160305,1.67144240741312,-1.2249808552692447,3rd,4th,1st,0.33628216143433143,1.3095207568324363,-1.1336579735535868
mem,resp,571,1,mem1.1.2.bmp,mem2.3.3.bmp,mem2.3.3.bmp,ACC031,"[-3, -3, 0]","[0, 3, 3]","[0, 3, 3]",match,1.2928932188134525,,-0.5609485176361083,0.34013148659767223,-1.105080668624649,2nd,3rd,1st,-0.2996502577125311,0.3061407537054162,-1.1336579735535868
mem,resp,521,1,mem1.1.3.bmp,mem1.2.2.bmp,mem1.1.3.bmp,ACC031,"[-3, -3, 3]","[-3, 0, 0]","[-3, -3, 3]",match,1.591751709536137,,0.962470128533565,-0.2679625698846799,-1.2558166886278472,4th,2nd,1st,1.2484186952188474,-0.3857567763323112,-1.1336579735535868
mem,resp,534,1,mem1.2.1.bmp,mem1.2.3.bmp,mem1.2.3.bmp,ACC031,"[-3, 0, -3]","[-3, 0, 3]","[-3, 0, 3]",match,1.4226497308103743,,-1.4104710795751747,-0.4546044132576816,-1.1619052762666173,1st,2nd,1st,-1.2850505989406478,-0.3857567763323112,-1.1336579735535868
mem,resp,535,1,mem3.3.2.bmp,mem3.1.3.bmp,mem3.1.3.bmp,ACC031,"[3, 3, 0]","[3, -3, 3]","[3, -3, 3]",match,1.3545027756320973,,-0.432394362289753,-0.21307039057077434,-1.100003722109356,2nd,2nd,1st,-0.2996502577125311,-0.3857567763323112,-1.1336579735535868
mem,resp,536,1,mem2.1.2.bmp,mem2.2.2.bmp,mem2.1.2.bmp,ACC031,"[0, -3, 0]","[0, 0, 0]","[0, -3, 0]",match,1.7113248654051871,,0.9315344955983296,0.0340666402001205,-0.7869206590319765,4th,3rd,2nd,1.2484186952188474,0.3061407537054162,-0.5216200836989492
mem,resp,616,1,mem2.3.1.bmp,mem3.1.1.bmp,mem2.3.1.bmp,ACC031,"[0, 3, -3]","[3, -3, -3]","[0, 3, -3]",match,1.3545027756320973,,1.8475561341009274,1.9044902624027393,-0.6725132346168802,4th,4th,2nd,1.2484186952188474,1.3095207568324363,-0.5216200836989492
mem,resp,616,1,mem1.3.1.bmp,mem3.2.2.bmp,mem1.3.1.bmp,ACC031,"[-3, 3, -3]","[3, 0, 0]","[-3, 3, -3]",match,1.2928932188134525,,0.6984702148805446,-0.7593024587059914,-0.9307802939619834,3rd,2nd,1st,0.33628216143433143,-0.3857567763323112,-1.1336579735535868
mem,resp,631,1,mem2.1.3.bmp,mem3.2.3.bmp,mem1.3.3.bmp,ACC031,"[0, -3, 3]","[3, 0, 3]","[-3, 3, 3]",non-match,0.7090055512641944,2,0.16878582385557125,0.5799473688048838,-0.9769035494519599,3rd,3rd,1st,0.33628216143433143,0.3061407537054162,-1.1336579735535868
mem,resp,724,0,mem3.1.3.bmp,mem1.1.1.bmp,mem1.2.1.bmp,ACC031,"[3, -3, 3]","[-3, -3, -3]","[-3, 0, -3]",non-match,0.8452994616207485,2,-0.10048436204724347,-0.8354115061305073,-0.6497823593795621,2nd,1st,2nd,-0.2996502577125311,-1.2299047342055414,-0.5216200836989492
mem,resp,704,1,mem3.1.1.bmp,mem2.1.1.bmp,mem2.1.1.bmp,ACC031,"[3, -3, -3]","[0, -3, -3]","[0, -3, -3]",match,1.7113248654051871,,-3.105234256087097,0.6464218373113175,-0.5142810801041842,1st,3rd,2nd,-1.2850505989406478,0.3061407537054162,-0.5216200836989492
mem,resp,515,1,mem3.3.3.bmp,mem2.2.1.bmp,mem2.2.1.bmp,ACC031,"[3, 3, 3]","[0, 0, -3]","[0, 0, -3]",match,1.2928932188134525,,-2.2097039190997885,0.12006098547643494,-0.3287245830290774,1st,3rd,2nd,-1.2850505989406478,0.3061407537054162,-0.5216200836989492
mem,resp,584,0,mem3.1.2.bmp,mem1.3.3.bmp,mem2.1.2.bmp,ACC031,"[3, -3, 0]","[-3, 3, 3]","[0, -3, 0]",non-match,1.0042180842186395,3,-0.514189773253273,1.5396506613249554,-0.12525060274319,2nd,4th,3rd,-0.2996502577125311,1.3095207568324363,0.20921330949155886
mem,resp,603,1,mem1.3.2.bmp,mem3.2.2.bmp,mem1.1.1.bmp,ACC031,"[-3, 3, 0]","[3, 0, 0]","[-3, -3, -3]",non-match,0.6473959944455496,1,0.2036538693674647,-1.6694813890824696,-0.2657883625397568,3rd,1st,2nd,0.33628216143433143,-1.2299047342055414,-0.5216200836989492
mem,resp,546,1,mem3.3.1.bmp,mem2.3.1.bmp,mem3.3.1.bmp,ACC031,"[3, 3, -3]","[0, 3, -3]","[3, 3, -3]",match,1.7113248654051871,,1.974476648254202,0.6144811880009786,0.16515476748628632,4th,3rd,3rd,1.2484186952188474,0.3061407537054162,0.20921330949155886
mem,resp,588,0,mem2.3.3.bmp,mem3.1.3.bmp,mem3.1.3.bmp,ACC031,"[0, 3, 3]","[3, -3, 3]","[3, -3, 3]",match,1.3545027756320973,,-2.0385536097966943,0.21225656969600126,0.31250780484652485,1st,3rd,3rd,-1.2850505989406478,0.3061407537054162,0.20921330949155886
mem,resp,802,0,mem3.2.3.bmp,mem3.1.1.bmp,mem3.2.3.bmp,ACC031,"[3, 0, 3]","[3, -3, -3]","[3, 0, 3]",match,1.3545027756320973,,-0.2416055038052288,1.1426705104863184,0.30823093140332014,2nd,4th,3rd,-0.2996502577125311,1.3095207568324363,0.20921330949155886
mem,resp,718,1,mem2.1.1.bmp,mem3.2.1.bmp,mem1.2.1.bmp,ACC031,"[0, -3, -3]","[3, 0, -3]","[-3, 0, -3]",non-match,1.0144014403465114,3,0.5539572090884037,-1.3556000666357864,0.1809559129044539,3rd,1st,3rd,0.33628216143433143,-1.2299047342055414,0.20921330949155886
mem,resp,749,0,mem1.3.3.bmp,mem1.1.2.bmp,mem1.3.2.bmp,ACC031,"[-3, 3, 3]","[-3, -3, 0]","[-3, 3, 0]",non-match,1.1339745962155614,4,-1.0619615238399347,-0.10193205455139785,0.26486566017840507,1st,2nd,3rd,-1.2850505989406478,-0.3857567763323112,0.20921330949155886
mem,resp,603,0,mem1.2.3.bmp,mem3.3.1.bmp,mem1.1.3.bmp,ACC031,"[-3, 0, 3]","[3, 3, -3]","[-3, -3, 3]",non-match,0.7113248654051871,2,-0.9584114032894016,1.255712355512198,0.4471591215477686,1st,4th,3rd,-1.2850505989406478,1.3095207568324363,0.20921330949155886
mem,resp,723,0,mem2.2.1.bmp,mem1.3.1.bmp,mem2.2.3.bmp,ACC031,"[0, 0, -3]","[-3, 3, -3]","[0, 0, 3]",non-match,0.7155429496238267,2,-0.45068986070977723,-0.47541529574973235,-0.09939479122372627,2nd,2nd,3rd,-0.2996502577125311,-0.3857567763323112,0.20921330949155886
mem,resp,697,0,mem1.1.1.bmp,mem3.3.2.bmp,mem3.2.3.bmp,ACC031,"[-3, -3, -3]","[3, 3, 0]","[3, 0, 3]",non-match,0.7257263057516985,2,0.3820148654170746,-0.20352581443017354,0.11008879621712193,3rd,2nd,3rd,0.33628216143433143,-0.3857567763323112,0.20921330949155886
mem,resp,707,0,mem2.2.2.bmp,mem2.1.3.bmp,mem2.1.3.bmp,ACC031,"[0, 0, 0]","[0, -3, 3]","[0, -3, 3]",match,1.591751709536137,,0.05689673805982054,-0.4606993875088277,0.18909421099860943,2nd,2nd,3rd,-0.2996502577125311,-0.3857567763323112,0.20921330949155886
mem,resp,571,1,mem1.2.2.bmp,mem2.3.2.bmp,mem1.2.2.bmp,ACC031,"[-3, 0, 0]","[0, 3, 0]","[-3, 0, 0]",match,1.591751709536137,,-0.3534045393258073,-1.9687275965672053,0.19798386934947798,2nd,1st,3rd,-0.2996502577125311,-1.2299047342055414,0.20921330949155886
mem,resp,442,1,mem3.3.3.bmp,mem1.1.3.bmp,mem3.3.3.bmp,ACC031,"[3, 3, 3]","[-3, -3, 3]","[3, 3, 3]",match,1.1835034190722742,,1.384146757589126,0.3005054823857485,0.27534887047006956,4th,3rd,3rd,1.2484186952188474,0.3061407537054162,0.20921330949155886
mem,resp,585,1,mem3.3.1.bmp,mem3.2.3.bmp,mem3.2.3.bmp,ACC031,"[3, 3, -3]","[3, 0, 3]","[3, 0, 3]",match,1.3545027756320973,,-1.8299946726771474,0.7474595348594415,0.38414521831004506,1st,4th,3rd,-1.2850505989406478,1.3095207568324363,0.20921330949155886
mem,resp,569,0,mem1.1.2.bmp,mem2.2.1.bmp,mem3.1.3.bmp,ACC031,"[-3, -3, 0]","[0, 0, -3]","[3, -3, 3]",non-match,0.6473959944455496,1,-1.3287448808921223,0.5630148232014128,0.5292037644391352,1st,3rd,3rd,-1.2850505989406478,0.3061407537054162,0.20921330949155886
mem,resp,550,1,mem1.3.2.bmp,mem2.2.3.bmp,mem2.2.3.bmp,ACC031,"[-3, 3, 0]","[0, 0, 3]","[0, 0, 3]",match,1.5,,0.08115818350494912,-0.0326854053490222,0.6084984010292808,3rd,3rd,3rd,0.33628216143433143,0.3061407537054162,0.20921330949155886
mem,resp,566,0,mem1.1.3.bmp,mem2.1.2.bmp,mem1.1.3.bmp,ACC031,"[-3, -3, 3]","[0, -3, 0]","[-3, -3, 3]",match,1.591751709536137,,-0.4120017720745527,-0.1262812442171966,0.6605028430877787,2nd,2nd,4th,-0.2996502577125311,-0.3857567763323112,1.4460647477609776
mem,resp,821,0,mem3.2.3.bmp,mem1.3.3.bmp,mem2.2.2.bmp,ACC031,"[3, 0, 3]","[-3, 3, 3]","[0, 0, 0]",non-match,1.091751709536137,4,0.9066355637109915,0.16056526282739025,0.8112411312522311,4th,3rd,4th,1.2484186952188474,0.3061407537054162,1.4460647477609776
mem,resp,483,1,mem1.2.1.bmp,mem1.2.3.bmp,mem1.2.3.bmp,ACC031,"[-3, 0, -3]","[-3, 0, 3]","[-3, 0, 3]",match,1.4226497308103743,,-0.7608878383905928,0.5253583703992666,0.7864862590036137,1st,3rd,4th,-1.2850505989406478,0.3061407537054162,1.4460647477609776
mem,resp,426,1,mem1.3.1.bmp,mem1.3.2.bmp,mem1.3.2.bmp,ACC031,"[-3, 3, -3]","[-3, 3, 0]","[-3, 3, 0]",match,1.7113248654051871,,-0.6434612753408661,1.689073436849524,0.9964537651775687,2nd,4th,4th,-0.2996502577125311,1.3095207568324363,1.4460647477609776
mem,resp,629,1,mem3.1.2.bmp,mem3.3.3.bmp,mem1.1.2.bmp,ACC031,"[3, -3, 0]","[3, 3, 3]","[-3, -3, 0]",non-match,0.5566243270259357,1,0.1522932517973244,-0.8748906989881964,0.7753262989073566,3rd,1st,4th,0.33628216143433143,-1.2299047342055414,1.4460647477609776
mem,resp,437,1,mem3.2.1.bmp,mem3.2.2.bmp,mem3.2.2.bmp,ACC031,"[3, 0, -3]","[3, 0, 0]","[3, 0, 0]",match,1.7113248654051871,,0.38401488813125345,-0.5584100962737738,0.9689623865825684,3rd,2nd,4th,0.33628216143433143,-0.3857567763323112,1.4460647477609776
mem,resp,538,1,mem2.1.1.bmp,mem2.1.3.bmp,mem2.3.1.bmp,ACC031,"[0, -3, -3]","[0, -3, 3]","[0, 3, -3]",non-match,0.6061531498826483,1,0.35906773397787345,-0.5509236038281529,0.9904739570650577,3rd,2nd,4th,0.33628216143433143,-0.3857567763323112,1.4460647477609776
mem,resp,492,1,mem3.1.1.bmp,mem2.3.2.bmp,mem3.1.1.bmp,ACC031,"[3, -3, -3]","[0, 3, 0]","[3, -3, -3]",match,1.2928932188134525,,-0.6985803207550646,-0.5721662920532067,1.2166327545124378,1st,2nd,4th,-1.2850505989406478,-0.3857567763323112,1.4460647477609776
mem,resp,583,1,mem3.1.3.bmp,mem3.1.2.bmp,mem3.3.1.bmp,ACC031,"[3, -3, 3]","[3, -3, 0]","[3, 3, -3]",non-match,0.5380061947043713,1,0.26962819224665086,0.35196397572663984,0.9846283384429863,3rd,3rd,4th,0.33628216143433143,0.3061407537054162,1.4460647477609776
mem,resp,664,1,mem2.3.3.bmp,mem3.3.2.bmp,mem3.3.2.bmp,ACC031,"[0, 3, 3]","[3, 3, 0]","[3, 3, 0]",match,1.591751709536137,,-0.6465557910117888,0.29745027517570627,0.6705160892964823,1st,3rd,4th,-1.2850505989406478,0.3061407537054162,1.4460647477609776
