mode,type,rt,acc,item_1,item_2,item_cue,subj_idx,item_1_number,item_2_number,item_cue_number,trial_type,summed_similarity,similarity_bin,ams,pams,slps,ams_quantile,pams_quantile,slps_quantile,ams_bin,pam_bin,slp_bin
mem,resp,665,0,mem2.3.1.bmp,mem3.1.1.bmp,mem2.2.1.bmp,ACC032,"[0, 3, -3]","[3, -3, -3]","[0, 0, -3]",non-match,1.3030765749413242,4,0.3763750898350152,0.15087143763559896,0.33456548407936626,3rd,3rd,3rd,0.38196285420259296,0.2632689248151961,0.39865763416347705
mem,resp,1077,1,mem1.2.1.bmp,mem3.1.2.bmp,mem3.1.2.bmp,ACC032,"[-3, 0, -3]","[3, -3, 0]","[3, -3, 0]",match,1.2928932188134525,,-2.947841852435216,-1.955126783897656,0.41903251567048794,1st,1st,3rd,-1.2922242102303447,-1.2348773975467622,0.39865763416347705
mem,resp,853,1,mem1.2.3.bmp,mem3.3.3.bmp,mem3.2.1.bmp,ACC032,"[-3, 0, 3]","[3, 3, 3]","[3, 0, -3]",non-match,0.5380061947043713,1,-1.0530294619876839,0.9832432987030111,0.08883095705490346,1st,4th,2nd,-1.2922242102303447,1.3241291147128196,0.014029642274415898
mem,resp,806,1,mem1.1.2.bmp,mem1.2.2.bmp,mem1.1.2.bmp,ACC032,"[-3, -3, 0]","[-3, 0, 0]","[-3, -3, 0]",match,1.7113248654051871,,-1.456510679482588,0.31107829515913155,0.4874619347067479,1st,3rd,3rd,-1.2922242102303447,0.2632689248151961,0.39865763416347705
mem,resp,882,1,mem3.2.2.bmp,mem1.3.2.bmp,mem1.3.2.bmp,ACC032,"[3, 0, 0]","[-3, 3, 0]","[-3, 3, 0]",match,1.3545027756320973,,-1.174643810064951,0.3655885896735986,0.1909355328604309,1st,3rd,2nd,-1.2922242102303447,0.2632689248151961,0.014029642274415898
mem,resp,873,1,mem2.1.2.bmp,mem1.1.3.bmp,mem3.1.1.bmp,ACC032,"[0, -3, 0]","[-3, -3, 3]","[3, -3, -3]",non-match,0.7752551286084112,2,-1.0511979640944733,1.4693855904253579,0.12405649997253554,1st,4th,2nd,-1.2922242102303447,1.3241291147128196,0.014029642274415898
mem,resp,739,1,mem2.2.3.bmp,mem2.3.3.bmp,mem3.1.3.bmp,ACC032,"[0, 0, 3]","[0, 3, 3]","[3, -3, 3]",non-match,0.9462544851682343,2,-1.1367568095690364,-0.7593954137960942,0.32455547383574096,1st,1st,3rd,-1.2922242102303447,-1.2348773975467622,0.39865763416347705
mem,resp,921,1,mem3.2.1.bmp,mem3.3.1.bmp,mem3.3.3.bmp,ACC032,"[3, 0, -3]","[3, 3, -3]","[3, 3, 3]",non-match,0.7771525064424715,2,-0.7768080510240607,1.8623212251398458,0.38018604840685166,1st,4th,3rd,-1.2922242102303447,1.3241291147128196,0.39865763416347705
mem,resp,987,1,mem2.1.1.bmp,mem1.2.1.bmp,mem2.2.2.bmp,ACC032,"[0, -3, -3]","[-3, 0, -3]","[0, 0, 0]",non-match,1.1835034190722742,4,0.5242032998736437,1.501857648343899,0.40146497556189314,3rd,4th,3rd,0.38196285420259296,1.3241291147128196,0.39865763416347705
mem,resp,812,1,mem2.3.2.bmp,mem1.3.3.bmp,mem1.3.3.bmp,ACC032,"[0, 3, 0]","[-3, 3, 3]","[-3, 3, 3]",match,1.591751709536137,,-1.259556667337879,1.1808623415854882,0.3845800216074835,1st,4th,3rd,-1.2922242102303447,1.3241291147128196,0.39865763416347705
mem,resp,626,1,mem1.3.2.bmp,mem3.1.3.bmp,mem3.1.3.bmp,ACC032,"[-3, 3, 0]","[3, -3, 3]","[3, -3, 3]",match,1.1339745962155614,,-0.7734170151344887,0.809626012863453,0.4325392765277247,1st,4th,3rd,-1.2922242102303447,1.3241291147128196,0.39865763416347705
mem,resp,929,0,mem3.1.2.bmp,mem2.1.3.bmp,mem3.2.2.bmp,ACC032,"[3, -3, 0]","[0, -3, 3]","[3, 0, 0]",non-match,1.2113248654051871,4,-1.0336066654911538,0.7119038516697512,0.16890160148701658,1st,4th,2nd,-1.2922242102303447,1.3241291147128196,0.014029642274415898
mem,resp,673,1,mem1.1.1.bmp,mem2.1.2.bmp,mem1.1.1.bmp,ACC032,"[-3, -3, -3]","[0, -3, 0]","[-3, -3, -3]",match,1.591751709536137,,0.40934127362821837,-1.6405134564868322,0.26218513559239115,3rd,1st,3rd,0.38196285420259296,-1.2348773975467622,0.39865763416347705
mem,resp,663,1,mem3.3.1.bmp,mem2.3.1.bmp,mem2.3.1.bmp,ACC032,"[3, 3, -3]","[0, 3, -3]","[0, 3, -3]",match,1.7113248654051871,,-0.8399062518807114,-1.1074666172446161,0.015810149711765066,1st,1st,2nd,-1.2922242102303447,-1.2348773975467622,0.014029642274415898
mem,resp,808,1,mem3.1.3.bmp,mem1.2.3.bmp,mem3.1.3.bmp,ACC032,"[3, -3, 3]","[-3, 0, 3]","[3, -3, 3]",match,1.3545027756320973,,-1.910191380923026,-0.1404383381544093,0.3568390497821705,1st,2nd,3rd,-1.2922242102303447,-0.35252064198125244,0.39865763416347705
mem,resp,642,1,mem3.3.3.bmp,mem3.3.2.bmp,mem2.3.3.bmp,ACC032,"[3, 3, 3]","[3, 3, 0]","[0, 3, 3]",non-match,1.3030765749413242,4,0.021652715352753232,1.3087917686032076,0.30923346472386354,3rd,4th,3rd,0.38196285420259296,1.3241291147128196,0.39865763416347705
mem,resp,583,1,mem2.1.3.bmp,mem2.2.1.bmp,mem1.3.3.bmp,ACC032,"[0, -3, 3]","[0, 0, -3]","[-3, 3, 3]",non-match,0.6473959944455496,1,1.365843935902307,1.0280846057531867,0.18370195491500554,4th,4th,2nd,1.2695922936308957,1.3241291147128196,0.014029642274415898
mem,resp,828,1,mem3.2.3.bmp,mem1.1.2.bmp,mem3.1.2.bmp,ACC032,"[3, 0, 3]","[-3, -3, 0]","[3, -3, 0]",non-match,1.0144014403465114,3,-1.4333422237117537,1.233364046169018,0.19274179554270654,1st,4th,2nd,-1.2922242102303447,1.3241291147128196,0.014029642274415898
mem,resp,570,1,mem3.1.1.bmp,mem2.1.1.bmp,mem2.1.1.bmp,ACC032,"[3, -3, -3]","[0, -3, -3]","[0, -3, -3]",match,1.7113248654051871,,-1.386896670305816,0.06181433946711988,-0.017697706945559503,1st,3rd,2nd,-1.2922242102303447,0.2632689248151961,0.014029642274415898
mem,resp,613,1,mem1.3.1.bmp,mem3.3.2.bmp,mem3.1.3.bmp,ACC032,"[-3, 3, -3]","[3, 3, 0]","[3, -3, 3]",non-match,0.3545027756320972,1,-1.7364119110621465,-1.438089976721157,0.07304944797583666,1st,1st,2nd,-1.2922242102303447,-1.2348773975467622,0.014029642274415898
mem,resp,593,1,mem2.2.1.bmp,mem2.3.1.bmp,mem3.2.1.bmp,ACC032,"[0, 0, -3]","[0, 3, -3]","[3, 0, -3]",non-match,1.3030765749413242,4,-0.1005054285285725,1.2143825850058059,0.04041979188555143,2nd,4th,2nd,-0.3593309376031439,1.3241291147128196,0.014029642274415898
mem,resp,495,1,mem2.2.2.bmp,mem2.3.3.bmp,mem3.3.1.bmp,ACC032,"[0, 0, 0]","[0, 3, 3]","[3, 3, -3]",non-match,0.8545027756320972,2,0.8480884274213304,0.7485383357990207,-0.03491443267447707,4th,4th,2nd,1.2695922936308957,1.3241291147128196,0.014029642274415898
mem,resp,640,1,mem1.2.2.bmp,mem3.2.2.bmp,mem2.3.2.bmp,ACC032,"[-3, 0, 0]","[3, 0, 0]","[0, 3, 0]",non-match,1.1835034190722742,4,0.774433011482689,0.06949346542578994,0.25476803202341447,4th,3rd,3rd,1.2695922936308957,0.2632689248151961,0.39865763416347705
mem,resp,631,0,mem1.3.3.bmp,mem2.1.3.bmp,mem1.1.2.bmp,ACC032,"[-3, 3, 3]","[0, -3, 3]","[-3, -3, 0]",non-match,0.9462544851682343,2,-0.9296202028506398,-0.4159283208693765,0.25629371808860874,1st,2nd,3rd,-1.2922242102303447,-0.35252064198125244,0.39865763416347705
mem,resp,572,1,mem3.3.2.bmp,mem3.1.2.bmp,mem1.1.1.bmp,ACC032,"[3, 3, 0]","[3, -3, 0]","[-3, -3, -3]",non-match,0.4884773718476586,1,0.37290259773683565,-0.349766486860345,0.22888668027968623,3rd,2nd,2nd,0.38196285420259296,-0.35252064198125244,0.014029642274415898
mem,resp,583,1,mem1.1.3.bmp,mem2.2.3.bmp,mem1.1.3.bmp,ACC032,"[-3, -3, 3]","[0, 0, 3]","[-3, -3, 3]",match,1.591751709536137,,0.16806228152228278,-0.2509919296375926,0.3055753397039339,3rd,2nd,3rd,0.38196285420259296,-0.35252064198125244,0.39865763416347705
mem,resp,536,1,mem2.3.3.bmp,mem1.3.2.bmp,mem3.2.2.bmp,ACC032,"[0, 3, 3]","[-3, 3, 0]","[3, 0, 0]",non-match,0.8545027756320972,2,0.42600412680311256,0.7237204775176862,0.17877366132683786,3rd,4th,2nd,0.38196285420259296,1.3241291147128196,0.014029642274415898
mem,resp,665,1,mem3.2.1.bmp,mem1.2.3.bmp,mem3.2.1.bmp,ACC032,"[3, 0, -3]","[-3, 0, 3]","[3, 0, -3]",match,1.1835034190722742,,0.6619823641292493,-0.2360812736116204,0.3562528712156681,3rd,2nd,3rd,0.38196285420259296,-0.35252064198125244,0.39865763416347705
mem,resp,838,0,mem2.1.1.bmp,mem2.3.2.bmp,mem2.1.2.bmp,ACC032,"[0, -3, -3]","[0, 3, 0]","[0, -3, 0]",non-match,1.1339745962155614,4,-0.5950003825553324,1.3359389579411274,0.5952081440583007,2nd,4th,4th,-0.3593309376031439,1.3241291147128196,1.0416362452419923
mem,resp,592,1,mem3.3.3.bmp,mem1.1.3.bmp,mem3.3.3.bmp,ACC032,"[3, 3, 3]","[-3, -3, 3]","[3, 3, 3]",match,1.1835034190722742,,0.5198268387971863,-0.18860107753965236,0.5006935949388351,3rd,2nd,3rd,0.38196285420259296,-0.35252064198125244,0.39865763416347705
mem,resp,755,1,mem1.3.3.bmp,mem3.3.1.bmp,mem3.2.2.bmp,ACC032,"[-3, 3, 3]","[3, 3, -3]","[3, 0, 0]",non-match,0.8846449283495895,2,-0.4381205829039025,1.9064658751893229,0.35680021604744705,2nd,4th,3rd,-0.3593309376031439,1.3241291147128196,0.39865763416347705
mem,resp,578,1,mem3.1.1.bmp,mem2.2.2.bmp,mem1.2.1.bmp,ACC032,"[3, -3, -3]","[0, 0, 0]","[-3, 0, -3]",non-match,0.9462544851682343,2,0.9152639047366067,-0.14230501647409316,0.06611546645705955,4th,2nd,2nd,1.2695922936308957,-0.35252064198125244,0.014029642274415898
mem,resp,882,0,mem1.3.1.bmp,mem1.2.2.bmp,mem1.2.2.bmp,ACC032,"[-3, 3, -3]","[-3, 0, 0]","[-3, 0, 0]",match,1.591751709536137,,-1.6546782032341516,-0.8757552381800066,0.03536681155434567,1st,1st,2nd,-1.2922242102303447,-1.2348773975467622,0.014029642274415898
mem,resp,692,1,mem2.3.2.bmp,mem3.3.3.bmp,mem2.3.2.bmp,ACC032,"[0, 3, 0]","[3, 3, 3]","[0, 3, 0]",match,1.591751709536137,,-0.5755608541865993,1.1694746505720415,-0.0992950007260278,2nd,4th,2nd,-0.3593309376031439,1.3241291147128196,0.014029642274415898
mem,resp,594,1,mem3.3.1.bmp,mem3.1.3.bmp,mem3.1.3.bmp,ACC032,"[3, 3, -3]","[3, -3, 3]","[3, -3, 3]",match,1.1835034190722742,,-0.9418462158282886,-1.5903745250727641,-0.04177257854257272,1st,1st,2nd,-1.2922242102303447,-1.2348773975467622,0.014029642274415898
mem,resp,485,1,mem2.2.2.bmp,mem2.1.2.bmp,mem2.1.2.bmp,ACC032,"[0, 0, 0]","[0, -3, 0]","[0, -3, 0]",match,1.7113248654051871,,0.4769860186859864,-0.2656512340273972,-0.09883993330005711,3rd,2nd,2nd,0.38196285420259296,-0.35252064198125244,0.014029642274415898
mem,resp,508,1,mem1.1.3.bmp,mem1.1.1.bmp,mem1.1.3.bmp,ACC032,"[-3, -3, 3]","[-3, -3, -3]","[-3, -3, 3]",match,1.4226497308103743,,0.4151121294257635,0.9925445218730546,-0.10000348319208631,3rd,4th,2nd,0.38196285420259296,1.3241291147128196,0.014029642274415898
mem,resp,569,1,mem2.2.1.bmp,mem2.1.1.bmp,mem2.2.1.bmp,ACC032,"[0, 0, -3]","[0, -3, -3]","[0, 0, -3]",match,1.7113248654051871,,-0.13042677419223844,-0.42680391071361273,-0.2500774637254949,2nd,2nd,2nd,-0.3593309376031439,-0.35252064198125244,0.014029642274415898
mem,resp,520,1,mem1.2.2.bmp,mem1.1.2.bmp,mem3.3.2.bmp,ACC032,"[-3, 0, 0]","[-3, -3, 0]","[3, 3, 0]",non-match,0.5380061947043713,1,1.3749399482302969,0.09996077341426812,-0.19902249479843015,4th,3rd,2nd,1.2695922936308957,0.2632689248151961,0.014029642274415898
mem,resp,685,0,mem3.1.2.bmp,mem3.2.3.bmp,mem3.2.1.bmp,ACC032,"[3, -3, 0]","[3, 0, 3]","[3, 0, -3]",non-match,1.0144014403465114,3,0.742744741963983,1.2508339617249709,-0.1335638733756501,4th,4th,2nd,1.2695922936308957,1.3241291147128196,0.014029642274415898
mem,resp,599,1,mem2.3.2.bmp,mem2.2.1.bmp,mem2.3.2.bmp,ACC032,"[0, 3, 0]","[0, 0, -3]","[0, 3, 0]",match,1.591751709536137,,0.5012320969371399,0.8168183345007768,0.2607273112559166,3rd,4th,3rd,0.38196285420259296,1.3241291147128196,0.39865763416347705
mem,resp,653,1,mem3.2.3.bmp,mem1.2.3.bmp,mem3.2.3.bmp,ACC032,"[3, 0, 3]","[-3, 0, 3]","[3, 0, 3]",match,1.4226497308103743,,-0.47104817537164645,-0.4124355369163535,0.5577766854289186,2nd,2nd,3rd,-0.3593309376031439,-0.35252064198125244,0.39865763416347705
mem,resp,492,1,mem1.1.1.bmp,mem2.2.3.bmp,mem1.1.1.bmp,ACC032,"[-3, -3, -3]","[0, 0, 3]","[-3, -3, -3]",match,1.2928932188134525,,1.274539680949714,1.1310701281450872,0.17072986274183946,4th,4th,2nd,1.2695922936308957,1.3241291147128196,0.014029642274415898
mem,resp,1068,0,mem1.3.3.bmp,mem3.2.2.bmp,mem2.2.2.bmp,ACC032,"[-3, 3, 3]","[3, 0, 0]","[0, 0, 0]",non-match,1.2113248654051871,4,-1.2896150172042165,-1.5825960643546384,0.12780814024721376,1st,1st,2nd,-1.2922242102303447,-1.2348773975467622,0.014029642274415898
mem,resp,600,1,mem1.1.3.bmp,mem2.3.2.bmp,mem2.1.1.bmp,ACC032,"[-3, -3, 3]","[0, 3, 0]","[0, -3, -3]",non-match,0.7090055512641944,2,0.7200855605369406,-0.7315785822004673,0.14031447331171631,3rd,1st,2nd,0.38196285420259296,-1.2348773975467622,0.014029642274415898
mem,resp,1005,1,mem2.1.2.bmp,mem2.3.1.bmp,mem2.3.1.bmp,ACC032,"[0, -3, 0]","[0, 3, -3]","[0, 3, -3]",match,1.3545027756320973,,-2.632145338540953,1.156309510732908,0.018413231560318932,1st,4th,2nd,-1.2922242102303447,1.3241291147128196,0.014029642274415898
mem,resp,457,1,mem2.1.3.bmp,mem3.1.3.bmp,mem3.3.3.bmp,ACC032,"[0, -3, 3]","[3, -3, 3]","[3, 3, 3]",non-match,0.7771525064424715,2,0.6420603133446073,0.9150215063302959,-0.01248934645891732,3rd,4th,2nd,0.38196285420259296,1.3241291147128196,0.014029642274415898
mem,resp,1040,1,mem3.1.2.bmp,mem1.1.1.bmp,mem1.2.3.bmp,ACC032,"[3, -3, 0]","[-3, -3, -3]","[-3, 0, 3]",non-match,0.6473959944455496,1,-0.9295711498590472,-2.2544037330803293,-0.3221241134930394,1st,1st,2nd,-1.2922242102303447,-1.2348773975467622,0.014029642274415898
mem,resp,573,0,mem1.1.2.bmp,mem3.2.1.bmp,mem2.2.1.bmp,ACC032,"[-3, -3, 0]","[3, 0, -3]","[0, 0, -3]",non-match,1.2113248654051871,4,-1.888214957684788,-0.6799811304543688,-0.12624411449835277,1st,2nd,2nd,-1.2922242102303447,-0.35252064198125244,0.014029642274415898
mem,resp,686,1,mem2.2.2.bmp,mem1.3.3.bmp,mem1.3.3.bmp,ACC032,"[0, 0, 0]","[-3, 3, 3]","[-3, 3, 3]",match,1.5,,-0.35068739886808703,0.16093237466280144,0.03730843016561354,2nd,3rd,2nd,-0.3593309376031439,0.2632689248151961,0.014029642274415898
mem,resp,939,1,mem1.3.1.bmp,mem1.1.3.bmp,mem2.1.1.bmp,ACC032,"[-3, 3, -3]","[-3, -3, 3]","[0, -3, -3]",non-match,0.7090055512641944,2,-1.5051666730140774,0.3206094468025706,0.2702896849058625,1st,3rd,3rd,-1.2922242102303447,0.2632689248151961,0.39865763416347705
mem,resp,683,1,mem2.2.3.bmp,mem3.3.1.bmp,mem2.3.2.bmp,ACC032,"[0, 0, 3]","[3, 3, -3]","[0, 3, 0]",non-match,1.1835034190722742,4,-0.12423872230616483,0.6796626653827145,0.4963141359554265,2nd,4th,3rd,-0.3593309376031439,1.3241291147128196,0.39865763416347705
mem,resp,566,1,mem1.2.2.bmp,mem1.2.1.bmp,mem1.2.1.bmp,ACC032,"[-3, 0, 0]","[-3, 0, -3]","[-3, 0, -3]",match,1.7113248654051871,,-0.09505237361462607,-0.09245580933650703,0.38936174828709935,2nd,2nd,3rd,-0.3593309376031439,-0.35252064198125244,0.39865763416347705
mem,resp,772,1,mem3.2.2.bmp,mem1.1.2.bmp,mem3.2.3.bmp,ACC032,"[3, 0, 0]","[-3, -3, 0]","[3, 0, 3]",non-match,1.0042180842186395,3,0.7421903680378048,2.175730374381803,0.7729619947345434,4th,4th,4th,1.2695922936308957,1.3241291147128196,1.0416362452419923
mem,resp,661,1,mem1.3.2.bmp,mem2.3.3.bmp,mem3.3.2.bmp,ACC032,"[-3, 3, 0]","[0, 3, 3]","[3, 3, 0]",non-match,1.0144014403465114,3,1.2284294138464935,-0.3633274162632641,0.5685787068568348,4th,2nd,3rd,1.2695922936308957,-0.35252064198125244,0.39865763416347705
mem,resp,661,1,mem3.3.1.bmp,mem1.3.1.bmp,mem1.3.1.bmp,ACC032,"[3, 3, -3]","[-3, 3, -3]","[-3, 3, -3]",match,1.4226497308103743,,-1.293542784042502,1.9371419579621703,0.6713963912148835,1st,4th,4th,-1.2922242102303447,1.3241291147128196,1.0416362452419923
mem,resp,602,1,mem3.3.3.bmp,mem3.1.2.bmp,mem3.1.2.bmp,ACC032,"[3, 3, 3]","[3, -3, 0]","[3, -3, 0]",match,1.3545027756320973,,0.4177198369620353,-0.7639723916801427,0.6749665169274479,3rd,1st,4th,0.38196285420259296,-1.2348773975467622,1.0416362452419923
mem,resp,583,1,mem3.1.1.bmp,mem2.1.2.bmp,mem1.1.3.bmp,ACC032,"[3, -3, -3]","[0, -3, 0]","[-3, -3, 3]",non-match,0.7752551286084112,2,0.7614816605958078,-0.07273474379439837,0.5121791867621883,4th,2nd,3rd,1.2695922936308957,-0.35252064198125244,0.39865763416347705
mem,resp,524,1,mem2.2.1.bmp,mem2.2.2.bmp,mem2.2.1.bmp,ACC032,"[0, 0, -3]","[0, 0, 0]","[0, 0, -3]",match,1.7113248654051871,,0.34511644923879886,0.277267626409541,0.46765280590650815,3rd,3rd,3rd,0.38196285420259296,0.2632689248151961,0.39865763416347705
mem,resp,666,1,mem3.2.1.bmp,mem3.3.2.bmp,mem3.2.1.bmp,ACC032,"[3, 0, -3]","[3, 3, 0]","[3, 0, -3]",match,1.591751709536137,,-0.24549343952546293,0.6951553173306511,0.28204771166469544,2nd,4th,3rd,-0.3593309376031439,1.3241291147128196,0.39865763416347705
mem,resp,689,1,mem2.3.1.bmp,mem3.2.3.bmp,mem2.1.3.bmp,ACC032,"[0, 3, -3]","[3, 0, 3]","[0, -3, 3]",non-match,0.7752551286084112,2,-0.17089330223558696,-0.2919728231773704,0.4682147223331418,2nd,2nd,3rd,-0.3593309376031439,-0.35252064198125244,0.39865763416347705
mem,resp,591,1,mem1.2.3.bmp,mem2.1.1.bmp,mem2.1.1.bmp,ACC032,"[-3, 0, 3]","[0, -3, -3]","[0, -3, -3]",match,1.2928932188134525,,0.0750659247996484,-0.817150492207127,0.27450290474176825,3rd,1st,3rd,0.38196285420259296,-1.2348773975467622,0.39865763416347705
mem,resp,503,1,mem1.2.1.bmp,mem1.3.2.bmp,mem1.2.1.bmp,ACC032,"[-3, 0, -3]","[-3, 3, 0]","[-3, 0, -3]",match,1.591751709536137,,1.4479950201284546,0.273051170712828,0.4617286830535234,4th,3rd,3rd,1.2695922936308957,0.2632689248151961,0.39865763416347705
mem,resp,586,0,mem2.3.3.bmp,mem1.3.1.bmp,mem2.2.3.bmp,ACC032,"[0, 3, 3]","[-3, 3, -3]","[0, 0, 3]",non-match,1.0042180842186395,3,0.0710693157769598,-0.21447628343011219,0.38531177172969455,3rd,2nd,3rd,0.38196285420259296,-0.35252064198125244,0.39865763416347705
mem,resp,618,0,mem3.3.2.bmp,mem2.2.1.bmp,mem3.3.3.bmp,ACC032,"[3, 3, 0]","[0, 0, -3]","[3, 3, 3]",non-match,1.0042180842186395,3,0.4027182794365565,0.551820615226992,0.7078689426117682,3rd,3rd,4th,0.38196285420259296,0.2632689248151961,1.0416362452419923
mem,resp,661,1,mem2.1.1.bmp,mem1.1.3.bmp,mem1.2.3.bmp,ACC032,"[0, -3, -3]","[-3, -3, 3]","[-3, 0, 3]",non-match,1.0042180842186395,3,1.0837766728534368,1.0359722370224806,0.4845038982982313,4th,4th,3rd,1.2695922936308957,1.3241291147128196,0.39865763416347705
mem,resp,642,1,mem3.1.3.bmp,mem3.1.1.bmp,mem3.1.3.bmp,ACC032,"[3, -3, 3]","[3, -3, -3]","[3, -3, 3]",match,1.4226497308103743,,0.11472758772420438,-0.38055295281621615,0.37355288088159583,3rd,2nd,3rd,0.38196285420259296,-0.35252064198125244,0.39865763416347705
mem,resp,1068,0,mem3.2.2.bmp,mem2.2.2.bmp,mem2.2.3.bmp,ACC032,"[3, 0, 0]","[0, 0, 0]","[0, 0, 3]",non-match,1.3030765749413242,4,-2.0070144618166648,-0.24156839907128425,0.29861195729262774,1st,2nd,3rd,-1.2922242102303447,-0.35252064198125244,0.39865763416347705
mem,resp,491,1,mem2.2.1.bmp,mem3.2.3.bmp,mem1.2.2.bmp,ACC032,"[0, 0, -3]","[3, 0, 3]","[-3, 0, 0]",non-match,0.9462544851682343,2,1.3730811339245614,1.4059571970385905,0.01934356069527637,4th,4th,2nd,1.2695922936308957,1.3241291147128196,0.014029642274415898
mem,resp,893,0,mem2.1.3.bmp,mem2.3.1.bmp,mem2.3.1.bmp,ACC032,"[0, -3, 3]","[0, 3, -3]","[0, 3, -3]",match,1.1835034190722742,,-0.3628933887532385,1.0036753370385505,0.025052980965643075,2nd,4th,2nd,-0.3593309376031439,1.3241291147128196,0.014029642274415898
mem,resp,757,0,mem2.1.1.bmp,mem2.3.2.bmp,mem3.1.3.bmp,ACC032,"[0, -3, -3]","[0, 3, 0]","[3, -3, 3]",non-match,0.6473959944455496,1,-0.23065209842420598,-1.2009134006229283,0.08425864553753187,2nd,1st,2nd,-0.3593309376031439,-1.2348773975467622,0.014029642274415898
mem,resp,528,1,mem3.2.1.bmp,mem2.1.2.bmp,mem2.1.2.bmp,ACC032,"[3, 0, -3]","[0, -3, 0]","[0, -3, 0]",match,1.5,,0.00577939518364124,0.8165387554897621,0.16062846090677693,3rd,4th,2nd,0.38196285420259296,1.3241291147128196,0.014029642274415898
mem,resp,669,1,mem3.1.1.bmp,mem2.2.3.bmp,mem2.2.3.bmp,ACC032,"[3, -3, -3]","[0, 0, 3]","[0, 0, 3]",match,1.2928932188134525,,-0.6373268383212457,1.0510674825641584,0.266900213284062,2nd,4th,3rd,-0.3593309376031439,1.3241291147128196,0.39865763416347705
mem,resp,571,1,mem3.1.2.bmp,mem1.2.2.bmp,mem3.1.2.bmp,ACC032,"[3, -3, 0]","[-3, 0, 0]","[3, -3, 0]",match,1.3545027756320973,,0.5346002345655205,-0.631071965636045,0.0025718131685822654,3rd,2nd,2nd,0.38196285420259296,-0.35252064198125244,0.014029642274415898
mem,resp,563,1,mem2.3.2.bmp,mem3.2.2.bmp,mem2.3.2.bmp,ACC032,"[0, 3, 0]","[3, 0, 0]","[0, 3, 0]",match,1.591751709536137,,0.8911158489265387,1.4549148502890057,0.08692490187847773,4th,4th,2nd,1.2695922936308957,1.3241291147128196,0.014029642274415898
mem,resp,726,1,mem1.3.3.bmp,mem3.2.1.bmp,mem2.2.1.bmp,ACC032,"[-3, 3, 3]","[3, 0, -3]","[0, 0, -3]",non-match,1.0042180842186395,3,-0.26480205410892316,2.2951960352622294,0.1701506300453437,2nd,4th,2nd,-0.3593309376031439,1.3241291147128196,0.014029642274415898
mem,resp,880,1,mem2.2.3.bmp,mem1.1.2.bmp,mem1.1.2.bmp,ACC032,"[0, 0, 3]","[-3, -3, 0]","[-3, -3, 0]",match,1.5,,-1.2860125893228005,1.863751995991875,0.037462999196400386,1st,4th,2nd,-1.2922242102303447,1.3241291147128196,0.014029642274415898
mem,resp,825,0,mem1.1.3.bmp,mem2.3.3.bmp,mem1.2.3.bmp,ACC032,"[-3, -3, 3]","[0, 3, 3]","[-3, 0, 3]",non-match,1.3030765749413242,4,0.030611838783607515,1.0409174170956135,-0.01649771976857819,3rd,4th,2nd,0.38196285420259296,1.3241291147128196,0.014029642274415898
mem,resp,719,1,mem1.2.2.bmp,mem3.3.1.bmp,mem1.2.2.bmp,ACC032,"[-3, 0, 0]","[3, 3, -3]","[-3, 0, 0]",match,1.2928932188134525,,0.9913837070044546,1.9347746311074614,-0.014185312539399484,4th,4th,2nd,1.2695922936308957,1.3241291147128196,0.014029642274415898
mem,resp,930,0,mem1.2.1.bmp,mem1.3.3.bmp,mem2.2.1.bmp,ACC032,"[-3, 0, -3]","[-3, 3, 3]","[0, 0, -3]",non-match,1.0042180842186395,3,-1.2130137387250397,-0.7521970289994955,-0.5164212192586838,1st,1st,1st,-1.2922242102303447,-1.2348773975467622,-1.4543235216798827
mem,resp,557,1,mem3.2.1.bmp,mem3.1.2.bmp,mem1.2.2.bmp,ACC032,"[3, 0, -3]","[3, -3, 0]","[-3, 0, 0]",non-match,0.7090055512641944,2,0.9257345019328262,-1.4614202641375325,-0.3093420174008348,4th,1st,2nd,1.2695922936308957,-1.2348773975467622,0.014029642274415898
mem,resp,716,1,mem2.3.2.bmp,mem3.3.3.bmp,mem3.3.3.bmp,ACC032,"[0, 3, 0]","[3, 3, 3]","[3, 3, 3]",match,1.591751709536137,,0.14172527575479335,-0.3901423444729137,0.0015029544038473192,3rd,2nd,2nd,0.38196285420259296,-0.35252064198125244,0.014029642274415898
mem,resp,790,1,mem2.2.3.bmp,mem1.2.1.bmp,mem2.2.3.bmp,ACC032,"[0, 0, 3]","[-3, 0, -3]","[0, 0, 3]",match,1.3545027756320973,,1.1905809796957931,-0.7356341283868655,0.15430222109355826,4th,1st,2nd,1.2695922936308957,-1.2348773975467622,0.014029642274415898
mem,resp,634,0,mem3.2.2.bmp,mem1.3.2.bmp,mem2.2.1.bmp,ACC032,"[3, 0, 0]","[-3, 3, 0]","[0, 0, -3]",non-match,1.091751709536137,4,0.2989688016612274,0.08249900943911782,0.31999028944424096,3rd,3rd,3rd,0.38196285420259296,0.2632689248151961,0.39865763416347705
mem,resp,665,1,mem1.1.2.bmp,mem2.3.3.bmp,mem2.3.3.bmp,ACC032,"[-3, -3, 0]","[0, 3, 3]","[0, 3, 3]",match,1.2928932188134525,,0.5379461387329907,2.9681842137303462,0.5370577161011121,3rd,4th,3rd,0.38196285420259296,1.3241291147128196,0.39865763416347705
mem,resp,716,1,mem1.1.3.bmp,mem1.2.2.bmp,mem1.1.3.bmp,ACC032,"[-3, -3, 3]","[-3, 0, 0]","[-3, -3, 3]",match,1.591751709536137,,0.687038460814665,0.6229639745805883,0.5795576050488429,3rd,3rd,3rd,0.38196285420259296,0.2632689248151961,0.39865763416347705
mem,resp,732,1,mem1.2.1.bmp,mem1.2.3.bmp,mem1.2.3.bmp,ACC032,"[-3, 0, -3]","[-3, 0, 3]","[-3, 0, 3]",match,1.4226497308103743,,-0.9067895389823127,0.16045426086974898,0.6918212100710815,1st,3rd,4th,-1.2922242102303447,0.2632689248151961,1.0416362452419923
mem,resp,663,1,mem3.3.2.bmp,mem3.1.3.bmp,mem3.1.3.bmp,ACC032,"[3, 3, 0]","[3, -3, 3]","[3, -3, 3]",match,1.3545027756320973,,-0.025071764196617417,0.40744426235988696,0.9767848121367991,2nd,3rd,4th,-0.3593309376031439,0.2632689248151961,1.0416362452419923
mem,resp,661,1,mem2.1.2.bmp,mem2.2.2.bmp,mem2.1.2.bmp,ACC032,"[0, -3, 0]","[0, 0, 0]","[0, -3, 0]",match,1.7113248654051871,,-0.06090716332782182,0.46894484057094654,0.6774126543622616,2nd,3rd,4th,-0.3593309376031439,0.2632689248151961,1.0416362452419923
mem,resp,723,1,mem2.3.1.bmp,mem3.1.1.bmp,mem2.3.1.bmp,ACC032,"[0, 3, -3]","[3, -3, -3]","[0, 3, -3]",match,1.3545027756320973,,-0.41950031231640167,0.6871603681421892,0.8721325122484157,2nd,4th,4th,-0.3593309376031439,1.3241291147128196,1.0416362452419923
mem,resp,856,1,mem1.3.1.bmp,mem3.2.2.bmp,mem1.3.1.bmp,ACC032,"[-3, 3, -3]","[3, 0, 0]","[-3, 3, -3]",match,1.2928932188134525,,-1.1287015453078615,1.2814331097434617,1.2403247635931671,1st,4th,4th,-1.2922242102303447,1.3241291147128196,1.0416362452419923
mem,resp,607,1,mem2.1.3.bmp,mem3.2.3.bmp,mem1.3.3.bmp,ACC032,"[0, -3, 3]","[3, 0, 3]","[-3, 3, 3]",non-match,0.7090055512641944,2,1.1232153645739507,-0.46632873655349766,0.8476597101710257,4th,2nd,4th,1.2695922936308957,-0.35252064198125244,1.0416362452419923
mem,resp,771,1,mem3.1.3.bmp,mem1.1.1.bmp,mem1.2.1.bmp,ACC032,"[3, -3, 3]","[-3, -3, -3]","[-3, 0, -3]",non-match,0.8452994616207485,2,1.0923435744355443,0.35948884933763103,0.25471245120195546,4th,3rd,3rd,1.2695922936308957,0.2632689248151961,0.39865763416347705
mem,resp,602,1,mem3.1.1.bmp,mem2.1.1.bmp,mem2.1.1.bmp,ACC032,"[3, -3, -3]","[0, -3, -3]","[0, -3, -3]",match,1.7113248654051871,,0.739098905863198,0.8815384502868655,0.4152761904330591,3rd,4th,3rd,0.38196285420259296,1.3241291147128196,0.39865763416347705
mem,resp,804,1,mem3.3.3.bmp,mem2.2.1.bmp,mem2.2.1.bmp,ACC032,"[3, 3, 3]","[0, 0, -3]","[0, 0, -3]",match,1.2928932188134525,,-0.016560380988140385,0.4894713294543043,0.43626061379201514,2nd,3rd,3rd,-0.3593309376031439,0.2632689248151961,0.39865763416347705
mem,resp,900,0,mem3.1.2.bmp,mem1.3.3.bmp,mem2.1.2.bmp,ACC032,"[3, -3, 0]","[-3, 3, 3]","[0, -3, 0]",non-match,1.0042180842186395,3,0.3332505101953366,0.8546861325950197,0.5077511310273132,3rd,4th,3rd,0.38196285420259296,1.3241291147128196,0.39865763416347705
mem,resp,743,1,mem1.3.2.bmp,mem3.2.2.bmp,mem1.1.1.bmp,ACC032,"[-3, 3, 0]","[3, 0, 0]","[-3, -3, -3]",non-match,0.6473959944455496,1,-0.0494179307949115,0.14628064922209053,0.33839855442345845,2nd,3rd,3rd,-0.3593309376031439,0.2632689248151961,0.39865763416347705
mem,resp,697,1,mem3.3.1.bmp,mem2.3.1.bmp,mem3.3.1.bmp,ACC032,"[3, 3, -3]","[0, 3, -3]","[3, 3, -3]",match,1.7113248654051871,,-1.019554693549128,-1.0893815604959955,0.3333819902071526,1st,1st,3rd,-1.2922242102303447,-1.2348773975467622,0.39865763416347705
mem,resp,668,1,mem2.3.3.bmp,mem3.1.3.bmp,mem3.1.3.bmp,ACC032,"[0, 3, 3]","[3, -3, 3]","[3, -3, 3]",match,1.3545027756320973,,1.0865124470753906,1.3103140931602888,0.5763009136474196,4th,4th,3rd,1.2695922936308957,1.3241291147128196,0.39865763416347705
mem,resp,732,1,mem3.2.3.bmp,mem3.1.1.bmp,mem3.2.3.bmp,ACC032,"[3, 0, 3]","[3, -3, -3]","[3, 0, 3]",match,1.3545027756320973,,-1.6715045007837783,0.33175575670843627,0.5874261286848722,1st,3rd,4th,-1.2922242102303447,0.2632689248151961,1.0416362452419923
mem,resp,573,1,mem2.1.1.bmp,mem3.2.1.bmp,mem1.2.1.bmp,ACC032,"[0, -3, -3]","[3, 0, -3]","[-3, 0, -3]",non-match,1.0144014403465114,3,1.4148242866642209,-1.2780901339815938,0.38019390191989255,4th,1st,3rd,1.2695922936308957,-1.2348773975467622,0.39865763416347705
mem,resp,1177,0,mem1.3.3.bmp,mem1.1.2.bmp,mem1.3.2.bmp,ACC032,"[-3, 3, 3]","[-3, -3, 0]","[-3, 3, 0]",non-match,1.1339745962155614,4,-1.5948611957368852,-1.296480150799638,0.26631095252141296,1st,1st,3rd,-1.2922242102303447,-1.2348773975467622,0.39865763416347705
mem,resp,641,1,mem1.2.3.bmp,mem3.3.1.bmp,mem1.1.3.bmp,ACC032,"[-3, 0, 3]","[3, 3, -3]","[-3, -3, 3]",non-match,0.7113248654051871,2,0.7299190859726721,0.3140103716160887,0.3319391403617047,3rd,3rd,3rd,0.38196285420259296,0.2632689248151961,0.39865763416347705
mem,resp,820,1,mem1.1.1.bmp,mem3.3.2.bmp,mem3.2.3.bmp,ACC032,"[-3, -3, -3]","[3, 3, 0]","[3, 0, 3]",non-match,0.7257263057516985,2,-0.001857210925484742,0.19264333767123812,0.40107228405239326,2nd,3rd,3rd,-0.3593309376031439,0.2632689248151961,0.39865763416347705
mem,resp,650,1,mem1.2.2.bmp,mem2.3.2.bmp,mem1.2.2.bmp,ACC032,"[-3, 0, 0]","[0, 3, 0]","[-3, 0, 0]",match,1.591751709536137,,0.29936174129324633,0.09296547076916378,0.15348068198798182,3rd,3rd,2nd,0.38196285420259296,0.2632689248151961,0.014029642274415898
mem,resp,906,1,mem3.3.3.bmp,mem1.1.3.bmp,mem3.3.3.bmp,ACC032,"[3, 3, 3]","[-3, -3, 3]","[3, 3, 3]",match,1.1835034190722742,,-0.4171301540373782,-0.6496430351268848,0.1815129858571346,2nd,2nd,2nd,-0.3593309376031439,-0.35252064198125244,0.014029642274415898
mem,resp,767,1,mem3.3.1.bmp,mem3.2.3.bmp,mem3.2.3.bmp,ACC032,"[3, 3, -3]","[3, 0, 3]","[3, 0, 3]",match,1.3545027756320973,,-0.9187281913498284,2.3752355313778626,0.4272656412181241,1st,4th,3rd,-1.2922242102303447,1.3241291147128196,0.39865763416347705
mem,resp,803,1,mem1.1.2.bmp,mem2.2.1.bmp,mem3.1.3.bmp,ACC032,"[-3, -3, 0]","[0, 0, -3]","[3, -3, 3]",non-match,0.6473959944455496,1,0.2285796112310054,0.05203857303115174,0.49704056085410436,3rd,3rd,3rd,0.38196285420259296,0.2632689248151961,0.39865763416347705
mem,resp,966,1,mem1.3.2.bmp,mem2.2.3.bmp,mem2.2.3.bmp,ACC032,"[-3, 3, 0]","[0, 0, 3]","[0, 0, 3]",match,1.5,,-1.3457913721707773,0.10980943249840892,0.5263732906000467,1st,3rd,3rd,-1.2922242102303447,0.2632689248151961,0.39865763416347705
mem,resp,920,1,mem1.1.3.bmp,mem2.1.2.bmp,mem1.1.3.bmp,ACC032,"[-3, -3, 3]","[0, -3, 0]","[-3, -3, 3]",match,1.591751709536137,,-0.35995627624285714,-0.47144200087542054,0.6993009403400412,2nd,2nd,4th,-0.3593309376031439,-0.35252064198125244,1.0416362452419923
mem,resp,803,0,mem3.2.3.bmp,mem1.3.3.bmp,mem2.2.2.bmp,ACC032,"[3, 0, 3]","[-3, 3, 3]","[0, 0, 0]",non-match,1.091751709536137,4,-1.429941906077729,-0.2646972295996931,0.9483203033352108,1st,2nd,4th,-1.2922242102303447,-0.35252064198125244,1.0416362452419923
mem,resp,1060,0,mem1.2.1.bmp,mem1.2.3.bmp,mem1.2.3.bmp,ACC032,"[-3, 0, -3]","[-3, 0, 3]","[-3, 0, 3]",match,1.4226497308103743,,-0.7646173262825657,0.6033534269583758,0.5755486418249708,1st,3rd,3rd,-1.2922242102303447,0.2632689248151961,0.39865763416347705
mem,resp,732,1,mem1.3.1.bmp,mem1.3.2.bmp,mem1.3.2.bmp,ACC032,"[-3, 3, -3]","[-3, 3, 0]","[-3, 3, 0]",match,1.7113248654051871,,-0.07869588206579399,0.036175529419948844,0.8222954530253774,2nd,3rd,4th,-0.3593309376031439,0.2632689248151961,1.0416362452419923
mem,resp,625,1,mem3.1.2.bmp,mem3.3.3.bmp,mem1.1.2.bmp,ACC032,"[3, -3, 0]","[3, 3, 3]","[-3, -3, 0]",non-match,0.5566243270259357,1,0.507347790017939,-1.28877038904452,1.0124913174184234,3rd,1st,4th,0.38196285420259296,-1.2348773975467622,1.0416362452419923
mem,resp,596,1,mem3.2.1.bmp,mem3.2.2.bmp,mem3.2.2.bmp,ACC032,"[3, 0, -3]","[3, 0, 0]","[3, 0, 0]",match,1.7113248654051871,,1.5631834112159173,0.33625610299609243,1.0563011232050314,4th,3rd,4th,1.2695922936308957,0.2632689248151961,1.0416362452419923
mem,resp,657,1,mem2.1.1.bmp,mem2.1.3.bmp,mem2.3.1.bmp,ACC032,"[0, -3, -3]","[0, -3, 3]","[0, 3, -3]",non-match,0.6061531498826483,1,1.4907717693585445,0.3339613993158109,1.107955610850793,4th,3rd,4th,1.2695922936308957,0.2632689248151961,1.0416362452419923
mem,resp,1003,1,mem3.1.1.bmp,mem2.3.2.bmp,mem3.1.1.bmp,ACC032,"[3, -3, -3]","[0, 3, 0]","[3, -3, -3]",match,1.2928932188134525,,-1.4420914294405438,0.2740683667338653,0.6851283967540599,1st,3rd,4th,-1.2922242102303447,0.2632689248151961,1.0416362452419923
mem,resp,749,1,mem2.1.3.bmp,mem3.1.1.bmp,mem3.1.1.bmp,ACC032,"[0, -3, 3]","[3, -3, -3]","[3, -3, -3]",match,1.3545027756320973,,-0.8386314015292112,0.017588038872738923,0.641500923798452,1st,3rd,4th,-1.2922242102303447,0.2632689248151961,1.0416362452419923
mem,resp,762,1,mem3.1.2.bmp,mem2.1.1.bmp,mem2.1.1.bmp,ACC032,"[3, -3, 0]","[0, -3, -3]","[0, -3, -3]",match,1.591751709536137,,0.354459242950893,0.6930256663195227,0.9844622676738078,3rd,4th,4th,0.38196285420259296,1.3241291147128196,1.0416362452419923
mem,resp,1067,1,mem3.2.1.bmp,mem1.2.2.bmp,mem1.1.2.bmp,ACC032,"[3, 0, -3]","[-3, 0, 0]","[-3, -3, 0]",non-match,1.0042180842186395,3,-2.3372106460076716,-0.08248251864504648,1.2012288801676283,1st,2nd,4th,-1.2922242102303447,-0.35252064198125244,1.0416362452419923
mem,resp,679,1,mem2.1.2.bmp,mem1.3.3.bmp,mem2.1.2.bmp,ACC032,"[0, -3, 0]","[-3, 3, 3]","[0, -3, 0]",match,1.2928932188134525,,0.3414552573460113,0.19089098358810652,1.3067551042246441,3rd,3rd,4th,0.38196285420259296,0.2632689248151961,1.0416362452419923
mem,resp,671,1,mem3.2.2.bmp,mem3.1.3.bmp,mem3.1.1.bmp,ACC032,"[3, 0, 0]","[3, -3, 3]","[3, -3, -3]",non-match,1.0144014403465114,3,0.9465582763458481,0.9339863274897204,1.2046750099459187,4th,4th,4th,1.2695922936308957,1.3241291147128196,1.0416362452419923
mem,resp,835,1,mem1.3.2.bmp,mem1.2.3.bmp,mem1.2.3.bmp,ACC032,"[-3, 3, 0]","[-3, 0, 3]","[-3, 0, 3]",match,1.591751709536137,,1.5783762588114099,-0.17409466581623226,1.0988246723099824,4th,2nd,4th,1.2695922936308957,-0.35252064198125244,1.0416362452419923
mem,resp,910,1,mem2.1.1.bmp,mem3.3.2.bmp,mem3.3.2.bmp,ACC032,"[0, -3, -3]","[3, 3, 0]","[3, 3, 0]",match,1.2928932188134525,,-0.16852480629945235,-0.05721602026157915,0.9664684719150064,2nd,2nd,4th,-0.3593309376031439,-0.35252064198125244,1.0416362452419923
mem,resp,582,1,mem2.3.2.bmp,mem3.2.3.bmp,mem3.1.2.bmp,ACC032,"[0, 3, 0]","[3, 0, 3]","[3, -3, 0]",non-match,0.9462544851682343,2,2.2014548738907305,-0.34884906349359995,0.873437315028199,4th,2nd,4th,1.2695922936308957,-0.35252064198125244,1.0416362452419923
mem,resp,937,1,mem1.1.2.bmp,mem1.1.3.bmp,mem1.1.3.bmp,ACC032,"[-3, -3, 0]","[-3, -3, 3]","[-3, -3, 3]",match,1.7113248654051871,,0.4404943313942719,0.4845854336051939,0.682140837343304,3rd,3rd,4th,0.38196285420259296,0.2632689248151961,1.0416362452419923
mem,resp,539,0,mem2.3.3.bmp,mem2.1.3.bmp,mem2.3.3.bmp,ACC032,"[0, 3, 3]","[0, -3, 3]","[0, 3, 3]",match,1.4226497308103743,,2.120088655284389,-0.27484827191056566,0.41077402813274094,4th,2nd,3rd,1.2695922936308957,-0.35252064198125244,0.39865763416347705
mem,resp,669,1,mem3.3.2.bmp,mem1.3.2.bmp,mem1.2.1.bmp,ACC032,"[3, 3, 0]","[-3, 3, 0]","[-3, 0, -3]",non-match,0.8846449283495895,2,0.30041463550295955,0.011265915328251955,0.5327353921082705,3rd,3rd,3rd,0.38196285420259296,0.2632689248151961,0.39865763416347705
mem,resp,764,1,mem2.2.2.bmp,mem2.2.3.bmp,mem2.2.3.bmp,ACC032,"[0, 0, 0]","[0, 0, 3]","[0, 0, 3]",match,1.7113248654051871,,0.809226651505352,-0.9574225578241063,0.5133754043519937,4th,1st,3rd,1.2695922936308957,-1.2348773975467622,0.39865763416347705
mem,resp,908,1,mem1.2.2.bmp,mem3.2.1.bmp,mem1.2.2.bmp,ACC032,"[-3, 0, 0]","[3, 0, -3]","[-3, 0, 0]",match,1.3545027756320973,,-0.4461032103801007,0.7171756339224974,0.3611263875290881,2nd,4th,3rd,-0.3593309376031439,1.3241291147128196,0.39865763416347705
mem,resp,779,1,mem3.3.1.bmp,mem1.3.1.bmp,mem1.3.1.bmp,ACC032,"[3, 3, -3]","[-3, 3, -3]","[-3, 3, -3]",match,1.4226497308103743,,-0.5919861461768483,-0.6923801901191053,0.32486542119454237,2nd,2nd,3rd,-0.3593309376031439,-0.35252064198125244,0.39865763416347705
mem,resp,755,1,mem3.2.3.bmp,mem3.1.2.bmp,mem3.2.3.bmp,ACC032,"[3, 0, 3]","[3, -3, 0]","[3, 0, 3]",match,1.591751709536137,,-1.350391184877693,0.15482111432421203,0.3231004568554204,1st,3rd,3rd,-1.2922242102303447,0.2632689248151961,0.39865763416347705
mem,resp,788,1,mem3.1.1.bmp,mem3.3.3.bmp,mem3.1.1.bmp,ACC032,"[3, -3, -3]","[3, 3, 3]","[3, -3, -3]",match,1.1835034190722742,,-0.24008465166636858,-0.43272815627278627,0.04407707010140215,2nd,2nd,2nd,-0.3593309376031439,-0.35252064198125244,0.014029642274415898
mem,resp,721,1,mem1.2.1.bmp,mem1.1.1.bmp,mem1.2.3.bmp,ACC032,"[-3, 0, -3]","[-3, -3, -3]","[-3, 0, 3]",non-match,0.7771525064424715,2,0.8945544628400405,0.41194986338558187,-0.1440026015282568,4th,3rd,2nd,1.2695922936308957,0.2632689248151961,0.014029642274415898
mem,resp,742,1,mem2.3.1.bmp,mem1.1.2.bmp,mem1.1.2.bmp,ACC032,"[0, 3, -3]","[-3, -3, 0]","[-3, -3, 0]",match,1.2928932188134525,,-0.6678077647501731,-0.09557554057302575,-0.092246682727297,2nd,2nd,2nd,-0.3593309376031439,-0.35252064198125244,0.014029642274415898
mem,resp,655,1,mem3.1.3.bmp,mem3.3.1.bmp,mem3.1.3.bmp,ACC032,"[3, -3, 3]","[3, 3, -3]","[3, -3, 3]",match,1.1835034190722742,,-0.6473421014352043,-0.4293423870809675,-0.4405233344527639,2nd,2nd,1st,-0.3593309376031439,-0.35252064198125244,-1.4543235216798827
mem,resp,1011,1,mem2.2.1.bmp,mem2.3.3.bmp,mem1.3.1.bmp,ACC032,"[0, 0, -3]","[0, 3, 3]","[-3, 3, -3]",non-match,0.9462544851682343,2,-0.6194249326782,-0.0008620200642369021,-0.5325522402598248,2nd,3rd,1st,-0.3593309376031439,0.2632689248151961,-1.4543235216798827
mem,resp,630,1,mem3.3.3.bmp,mem2.2.2.bmp,mem3.3.3.bmp,ACC032,"[3, 3, 3]","[0, 0, 0]","[3, 3, 3]",match,1.5,,0.846729900199643,0.12427309894893993,-0.6880027815923679,4th,3rd,1st,1.2695922936308957,0.2632689248151961,-1.4543235216798827
mem,resp,734,1,mem1.1.1.bmp,mem1.2.1.bmp,mem3.2.3.bmp,ACC032,"[-3, -3, -3]","[-3, 0, -3]","[3, 0, 3]",non-match,0.3174780152878355,1,-0.7298130029611472,0.5535205903508319,-0.7421019268224638,2nd,3rd,1st,-0.3593309376031439,0.2632689248151961,-1.4543235216798827
mem,resp,605,1,mem1.2.3.bmp,mem3.3.1.bmp,mem3.3.1.bmp,ACC032,"[-3, 0, 3]","[3, 3, -3]","[3, 3, -3]",match,1.1339745962155614,,0.7234935586733432,-0.22693526731901656,-0.6084458046012651,3rd,2nd,1st,0.38196285420259296,-0.35252064198125244,-1.4543235216798827
mem,resp,595,1,mem1.1.3.bmp,mem3.3.2.bmp,mem1.1.3.bmp,ACC032,"[-3, -3, 3]","[3, 3, 0]","[-3, -3, 3]",match,1.1339745962155614,,-0.8939648834969035,-0.5108561403743187,-0.8300866719969772,1st,2nd,1st,-1.2922242102303447,-0.35252064198125244,-1.4543235216798827
mem,resp,579,0,mem1.3.1.bmp,mem1.2.2.bmp,mem1.2.2.bmp,ACC032,"[-3, 3, -3]","[-3, 0, 0]","[-3, 0, 0]",match,1.591751709536137,,1.093549035715233,0.4404010361782473,-1.1308874296994789,4th,3rd,1st,1.2695922936308957,0.2632689248151961,-1.4543235216798827
mem,resp,720,1,mem2.2.3.bmp,mem2.1.1.bmp,mem2.2.3.bmp,ACC032,"[0, 0, 3]","[0, -3, -3]","[0, 0, 3]",match,1.3545027756320973,,-0.37812256888242324,-0.5088006283274363,-0.7819781448333126,2nd,2nd,1st,-0.3593309376031439,-0.35252064198125244,-1.4543235216798827
mem,resp,771,0,mem1.3.3.bmp,mem2.3.1.bmp,mem1.3.2.bmp,ACC032,"[-3, 3, 3]","[0, 3, -3]","[-3, 3, 0]",non-match,1.3030765749413242,4,0.4034409910552959,0.25467467810838856,-0.8207514928706311,3rd,3rd,1st,0.38196285420259296,0.2632689248151961,-1.4543235216798827
mem,resp,702,1,mem1.3.3.bmp,mem1.1.1.bmp,mem1.1.1.bmp,ACC032,"[-3, 3, 3]","[-3, -3, -3]","[-3, -3, -3]",match,1.1835034190722742,,0.053954790862913375,0.9805629780928397,-0.7682908829032122,3rd,4th,1st,0.38196285420259296,1.3241291147128196,-1.4543235216798827
mem,resp,878,0,mem2.3.2.bmp,mem3.2.1.bmp,mem2.3.3.bmp,ACC032,"[0, 3, 0]","[3, 0, -3]","[0, 3, 3]",non-match,1.0042180842186395,3,-1.547173762212966,-1.7620959936386364,-0.6580168557032872,1st,1st,1st,-1.2922242102303447,-1.2348773975467622,-1.4543235216798827
mem,resp,609,1,mem1.3.1.bmp,mem3.1.1.bmp,mem1.1.3.bmp,ACC032,"[-3, 3, -3]","[3, -3, -3]","[-3, -3, 3]",non-match,0.36700683814454815,1,0.22150665900869135,-0.3693283271030485,-0.8791588455151892,3rd,2nd,1st,0.38196285420259296,-0.35252064198125244,-1.4543235216798827
mem,resp,559,1,mem2.2.1.bmp,mem2.1.2.bmp,mem3.3.1.bmp,ACC032,"[0, 0, -3]","[0, -3, 0]","[3, 3, -3]",non-match,0.8846449283495895,2,1.3689152996130478,-0.6548882573735851,-0.8267542332995093,4th,2nd,1st,1.2695922936308957,-0.35252064198125244,-1.4543235216798827
mem,resp,570,1,mem3.2.2.bmp,mem1.1.2.bmp,mem2.3.1.bmp,ACC032,"[3, 0, 0]","[-3, -3, 0]","[0, 3, -3]",non-match,0.7928932188134524,2,1.8030029898051356,0.08843457289560526,-0.9391881697080535,4th,3rd,1st,1.2695922936308957,0.2632689248151961,-1.4543235216798827
mem,resp,864,1,mem3.3.2.bmp,mem1.2.3.bmp,mem1.2.3.bmp,ACC032,"[3, 3, 0]","[-3, 0, 3]","[-3, 0, 3]",match,1.2928932188134525,,0.7171653462574993,1.6128451936100818,-0.7913983820408184,3rd,4th,1st,0.38196285420259296,1.3241291147128196,-1.4543235216798827
mem,resp,747,1,mem2.2.2.bmp,mem3.3.3.bmp,mem2.2.2.bmp,ACC032,"[0, 0, 0]","[3, 3, 3]","[0, 0, 0]",match,1.5,,1.6297703571039002,0.01545340259731815,-0.7931119249100952,4th,3rd,1st,1.2695922936308957,0.2632689248151961,-1.4543235216798827
mem,resp,781,1,mem1.2.1.bmp,mem2.1.3.bmp,mem1.1.1.bmp,ACC032,"[-3, 0, -3]","[0, -3, 3]","[-3, -3, -3]",non-match,1.0658276410372842,3,-0.5096550210688816,-0.5430963835032452,-0.6422122723916762,2nd,2nd,1st,-0.3593309376031439,-0.35252064198125244,-1.4543235216798827
mem,resp,582,1,mem3.2.3.bmp,mem3.1.2.bmp,mem1.3.1.bmp,ACC032,"[3, 0, 3]","[3, -3, 0]","[-3, 3, -3]",non-match,0.2679491924311228,1,1.2352403734611,-0.9560471975110073,-0.7288872033685956,4th,1st,1st,1.2695922936308957,-1.2348773975467622,-1.4543235216798827
mem,resp,630,1,mem3.2.1.bmp,mem3.1.3.bmp,mem3.1.3.bmp,ACC032,"[3, 0, -3]","[3, -3, 3]","[3, -3, 3]",match,1.3545027756320973,,0.16248603411942258,-0.8513873673695318,-0.9210139814865282,3rd,1st,1st,0.38196285420259296,-1.2348773975467622,-1.4543235216798827
mem,resp,746,1,mem1.2.2.bmp,mem2.2.3.bmp,mem2.2.1.bmp,ACC032,"[-3, 0, 0]","[0, 0, 3]","[0, 0, -3]",non-match,1.0144014403465114,3,-0.26961196149552696,0.040181795595128265,-1.2483898333406733,2nd,3rd,1st,-0.3593309376031439,0.2632689248151961,-1.4543235216798827
mem,resp,925,1,mem1.2.3.bmp,mem2.3.3.bmp,mem1.2.3.bmp,ACC032,"[-3, 0, 3]","[0, 3, 3]","[-3, 0, 3]",match,1.591751709536137,,-0.33718357830317763,-1.0949009470156352,-1.3056407712047458,2nd,1st,1st,-0.3593309376031439,-1.2348773975467622,-1.4543235216798827
mem,resp,533,1,mem1.1.3.bmp,mem1.1.1.bmp,mem1.3.3.bmp,ACC032,"[-3, -3, 3]","[-3, -3, -3]","[-3, 3, 3]",non-match,0.6061531498826483,1,0.8189929385041673,0.8412085379479144,-1.5430287334661879,4th,4th,1st,1.2695922936308957,1.3241291147128196,-1.4543235216798827
mem,resp,506,1,mem2.3.3.bmp,mem1.3.1.bmp,mem3.1.3.bmp,ACC032,"[0, 3, 3]","[-3, 3, -3]","[3, -3, 3]",non-match,0.3545027756320972,1,2.220597469970037,0.44170892700230285,-1.3275396186031672,4th,3rd,1st,1.2695922936308957,0.2632689248151961,-1.4543235216798827
mem,resp,817,1,mem2.1.2.bmp,mem2.2.2.bmp,mem1.2.1.bmp,ACC032,"[0, -3, 0]","[0, 0, 0]","[-3, 0, -3]",non-match,1.091751709536137,4,1.038673271413766,-1.4983955020285857,-1.5113103520083218,4th,1st,1st,1.2695922936308957,-1.2348773975467622,-1.4543235216798827
mem,resp,490,1,mem2.3.2.bmp,mem2.2.1.bmp,mem1.2.3.bmp,ACC032,"[0, 3, 0]","[0, 0, -3]","[-3, 0, 3]",non-match,0.8545027756320972,2,2.0426604278038485,-0.32244040063959417,-1.5383121442237317,4th,2nd,1st,1.2695922936308957,-0.35252064198125244,-1.4543235216798827
mem,resp,811,1,mem3.3.2.bmp,mem1.3.3.bmp,mem3.2.1.bmp,ACC032,"[3, 3, 0]","[-3, 3, 3]","[3, 0, -3]",non-match,0.7257263057516985,2,-0.11917817371918883,0.2165540462723774,-1.7521063567218695,2nd,3rd,1st,-0.3593309376031439,0.2632689248151961,-1.4543235216798827
mem,resp,744,1,mem1.2.2.bmp,mem3.3.1.bmp,mem2.1.3.bmp,ACC032,"[-3, 0, 0]","[3, 3, -3]","[0, -3, 3]",non-match,0.6339745962155614,1,-0.4065160909582775,1.0681945601473284,-2.005993373143156,2nd,4th,1st,-0.3593309376031439,1.3241291147128196,-1.4543235216798827
mem,resp,1078,1,mem1.1.1.bmp,mem3.1.2.bmp,mem3.1.2.bmp,ACC032,"[-3, -3, -3]","[3, -3, 0]","[3, -3, 0]",match,1.3545027756320973,,-1.045809509123432,0.6398085089415424,-1.5972474679827344,1st,3rd,1st,-1.2922242102303447,0.2632689248151961,-1.4543235216798827
mem,resp,629,0,mem1.3.1.bmp,mem2.2.3.bmp,mem2.2.2.bmp,ACC032,"[-3, 3, -3]","[0, 0, 3]","[0, 0, 0]",non-match,1.2113248654051871,4,1.19023859315198,-1.2291785775837782,-1.6015771564759662,4th,1st,1st,1.2695922936308957,-1.2348773975467622,-1.4543235216798827
mem,resp,773,0,mem3.2.3.bmp,mem1.2.3.bmp,mem1.2.3.bmp,ACC032,"[3, 0, 3]","[-3, 0, 3]","[-3, 0, 3]",match,1.4226497308103743,,-0.6091614737104017,0.3598923862716013,-1.772845177302917,2nd,3rd,1st,-0.3593309376031439,0.2632689248151961,-1.4543235216798827
mem,resp,613,1,mem2.1.3.bmp,mem3.2.2.bmp,mem2.1.3.bmp,ACC032,"[0, -3, 3]","[3, 0, 0]","[0, -3, 3]",match,1.5,,0.40850235406210406,0.12392332202720847,-1.8641289971792572,3rd,3rd,1st,0.38196285420259296,0.2632689248151961,-1.4543235216798827
mem,resp,674,1,mem1.3.3.bmp,mem2.3.1.bmp,mem3.1.2.bmp,ACC032,"[-3, 3, 3]","[0, 3, -3]","[3, -3, 0]",non-match,0.42686781502901383,1,1.5876919686819946,-0.6606057997278085,-1.8801484898006156,4th,2nd,1st,1.2695922936308957,-0.35252064198125244,-1.4543235216798827
mem,resp,848,1,mem2.1.1.bmp,mem1.2.1.bmp,mem2.1.1.bmp,ACC032,"[0, -3, -3]","[-3, 0, -3]","[0, -3, -3]",match,1.591751709536137,,-0.5200260538570004,0.8320409737556662,-1.458360908161812,2nd,4th,1st,-0.3593309376031439,1.3241291147128196,-1.4543235216798827
mem,resp,821,1,mem2.2.2.bmp,mem3.2.1.bmp,mem2.2.2.bmp,ACC032,"[0, 0, 0]","[3, 0, -3]","[0, 0, 0]",match,1.591751709536137,,0.41187428342815346,1.4298447645818304,-1.1905843890026144,3rd,4th,1st,0.38196285420259296,1.3241291147128196,-1.4543235216798827
mem,resp,672,1,mem1.2.3.bmp,mem1.1.2.bmp,mem1.3.2.bmp,ACC032,"[-3, 0, 3]","[-3, -3, 0]","[-3, 3, 0]",non-match,1.0144014403465114,3,1.7384319052420023,-0.049299184775110395,-1.3340097388761933,4th,2nd,1st,1.2695922936308957,-0.35252064198125244,-1.4543235216798827
mem,resp,916,0,mem2.2.1.bmp,mem1.2.2.bmp,mem1.2.2.bmp,ACC032,"[0, 0, -3]","[-3, 0, 0]","[-3, 0, 0]",match,1.591751709536137,,-0.6680882112867296,-1.111034247530467,-1.2564274497369103,2nd,1st,1st,-0.3593309376031439,-1.2348773975467622,-1.4543235216798827
mem,resp,729,1,mem3.3.3.bmp,mem3.1.3.bmp,mem3.1.3.bmp,ACC032,"[3, 3, 3]","[3, -3, 3]","[3, -3, 3]",match,1.4226497308103743,,1.2942273475197603,-0.3300463644763457,-1.0108106780046249,4th,2nd,1st,1.2695922936308957,-0.35252064198125244,-1.4543235216798827
mem,resp,762,1,mem2.2.3.bmp,mem3.1.1.bmp,mem3.1.1.bmp,ACC032,"[0, 0, 3]","[3, -3, -3]","[3, -3, -3]",match,1.2928932188134525,,1.4844807062840593,-0.616814429758755,-0.9215087700079347,4th,2nd,1st,1.2695922936308957,-0.35252064198125244,-1.4543235216798827
mem,resp,613,1,mem3.2.1.bmp,mem3.3.2.bmp,mem1.2.3.bmp,ACC032,"[3, 0, -3]","[3, 3, 0]","[-3, 0, 3]",non-match,0.4763966378857265,1,0.14653734447566022,-0.8811577320414569,-0.7908178040605474,3rd,1st,1st,0.38196285420259296,-1.2348773975467622,-1.4543235216798827
mem,resp,534,1,mem1.2.1.bmp,mem2.1.2.bmp,mem2.3.2.bmp,ACC032,"[-3, 0, -3]","[0, -3, 0]","[0, 3, 0]",non-match,0.9226497308103743,2,0.34306950335234415,0.2609009363678944,-0.5109206564400777,3rd,3rd,1st,0.38196285420259296,0.2632689248151961,-1.4543235216798827
mem,resp,596,1,mem1.3.2.bmp,mem2.1.1.bmp,mem2.1.1.bmp,ACC032,"[-3, 3, 0]","[0, -3, -3]","[0, -3, -3]",match,1.2928932188134525,,-0.6058966677583447,-1.8096420781466567,-0.3182687202010211,2nd,1st,2nd,-0.3593309376031439,-1.2348773975467622,0.014029642274415898
mem,resp,679,1,mem3.1.2.bmp,mem3.2.3.bmp,mem3.1.2.bmp,ACC032,"[3, -3, 0]","[3, 0, 3]","[3, -3, 0]",match,1.591751709536137,,0.8612288785680114,-0.8480192487080469,-0.21926897649162322,4th,1st,2nd,1.2695922936308957,-1.2348773975467622,0.014029642274415898
mem,resp,530,1,mem1.1.2.bmp,mem2.1.3.bmp,mem2.1.3.bmp,ACC032,"[-3, -3, 0]","[0, -3, 3]","[0, -3, 3]",match,1.591751709536137,,-1.6454737392315535,0.6227200334724237,-0.02625127511902822,1st,3rd,2nd,-1.2922242102303447,0.2632689248151961,0.014029642274415898
mem,resp,590,1,mem3.2.2.bmp,mem3.3.3.bmp,mem3.2.2.bmp,ACC032,"[3, 0, 0]","[3, 3, 3]","[3, 0, 0]",match,1.591751709536137,,-0.7709410103490578,1.357801362918078,0.1923204640736733,1st,4th,2nd,-1.2922242102303447,1.3241291147128196,0.014029642274415898
mem,resp,784,1,mem3.1.3.bmp,mem1.2.1.bmp,mem3.2.1.bmp,ACC032,"[3, -3, 3]","[-3, 0, -3]","[3, 0, -3]",non-match,0.7771525064424715,2,1.6229288927664016,-1.6585883953384126,0.25834149577621845,4th,1st,3rd,1.2695922936308957,-1.2348773975467622,0.39865763416347705
mem,resp,615,1,mem3.1.1.bmp,mem1.2.2.bmp,mem3.3.2.bmp,ACC032,"[3, -3, -3]","[-3, 0, 0]","[3, 3, 0]",non-match,0.7090055512641944,2,1.704426595781512,-0.28230915781955374,-0.005622365543636006,4th,2nd,2nd,1.2695922936308957,-0.35252064198125244,0.014029642274415898
mem,resp,686,1,mem3.3.1.bmp,mem1.1.2.bmp,mem2.3.2.bmp,ACC032,"[3, 3, -3]","[-3, -3, 0]","[0, 3, 0]",non-match,0.9462544851682343,2,-0.2476891294853667,-0.2583654723688022,-0.03014272277163391,2nd,2nd,2nd,-0.3593309376031439,-0.35252064198125244,0.014029642274415898
mem,resp,870,1,mem2.3.1.bmp,mem1.3.3.bmp,mem2.1.3.bmp,ACC032,"[0, 3, -3]","[-3, 3, 3]","[0, -3, 3]",non-match,0.5380061947043713,1,0.5884963742065309,1.631767168443962,-0.06894065283728337,3rd,4th,2nd,0.38196285420259296,1.3241291147128196,0.014029642274415898
mem,resp,591,1,mem2.3.3.bmp,mem3.1.2.bmp,mem1.3.1.bmp,ACC032,"[0, 3, 3]","[3, -3, 0]","[-3, 3, -3]",non-match,0.4884773718476586,1,0.36467854849668163,-0.9035129708148107,-0.0885593784750189,3rd,1st,2nd,0.38196285420259296,-1.2348773975467622,0.014029642274415898
mem,resp,692,0,mem1.3.2.bmp,mem2.2.2.bmp,mem2.2.3.bmp,ACC032,"[-3, 3, 0]","[0, 0, 0]","[0, 0, 3]",non-match,1.2113248654051871,4,-1.4696927842580947,0.6408454439144413,0.042322856154878505,1st,3rd,2nd,-1.2922242102303447,0.2632689248151961,0.014029642274415898
mem,resp,715,1,mem3.1.3.bmp,mem3.2.3.bmp,mem3.2.3.bmp,ACC032,"[3, -3, 3]","[3, 0, 3]","[3, 0, 3]",match,1.7113248654051871,,0.33778610454282704,-0.5713030088718185,0.10606278509724167,3rd,2nd,2nd,0.38196285420259296,-0.35252064198125244,0.014029642274415898
mem,resp,856,1,mem3.2.2.bmp,mem2.1.3.bmp,mem3.2.2.bmp,ACC032,"[3, 0, 0]","[0, -3, 3]","[3, 0, 0]",match,1.5,,-0.218724970218868,-2.1350136427434223,-0.08713509720233825,2nd,1st,2nd,-0.3593309376031439,-1.2348773975467622,0.014029642274415898
mem,resp,669,1,mem3.3.3.bmp,mem1.3.1.bmp,mem3.3.3.bmp,ACC032,"[3, 3, 3]","[-3, 3, -3]","[3, 3, 3]",match,1.1835034190722742,,-0.2743609675674134,-0.707220429286942,-0.1569931426834872,2nd,1st,2nd,-0.3593309376031439,-1.2348773975467622,0.014029642274415898
mem,resp,707,1,mem1.2.3.bmp,mem3.3.1.bmp,mem3.3.1.bmp,ACC032,"[-3, 0, 3]","[3, 3, -3]","[3, 3, -3]",match,1.1339745962155614,,-0.8867655988400391,-0.11436149853383702,-0.3661523918240206,1st,2nd,1st,-1.2922242102303447,-0.35252064198125244,-1.4543235216798827
mem,resp,646,1,mem2.2.1.bmp,mem3.2.1.bmp,mem2.2.1.bmp,ACC032,"[0, 0, -3]","[3, 0, -3]","[0, 0, -3]",match,1.7113248654051871,,-1.3638616995981452,0.4518361545709115,-0.25907046863474686,1st,3rd,2nd,-1.2922242102303447,0.2632689248151961,0.014029642274415898
mem,resp,644,1,mem1.3.3.bmp,mem2.3.3.bmp,mem2.1.1.bmp,ACC032,"[-3, 3, 3]","[0, 3, 3]","[0, -3, -3]",non-match,0.3174780152878355,1,1.1422398021158464,-0.5232819789925197,-0.15263913920677646,4th,2nd,2nd,1.2695922936308957,-0.35252064198125244,0.014029642274415898
mem,resp,808,0,mem2.3.2.bmp,mem3.1.1.bmp,mem3.2.2.bmp,ACC032,"[0, 3, 0]","[3, -3, -3]","[3, 0, 0]",non-match,1.1835034190722742,4,-0.5383019535580806,-1.6668454293233799,0.09764596468573526,2nd,1st,2nd,-0.3593309376031439,-1.2348773975467622,0.014029642274415898
mem,resp,589,1,mem1.2.2.bmp,mem2.2.3.bmp,mem1.2.2.bmp,ACC032,"[-3, 0, 0]","[0, 0, 3]","[-3, 0, 0]",match,1.591751709536137,,-0.6893255465643872,-0.7040741717285948,0.07629823554295283,2nd,1st,2nd,-0.3593309376031439,-1.2348773975467622,0.014029642274415898
mem,resp,631,1,mem3.1.2.bmp,mem1.1.1.bmp,mem1.1.1.bmp,ACC032,"[3, -3, 0]","[-3, -3, -3]","[-3, -3, -3]",match,1.3545027756320973,,-1.0337102958823021,1.7269665164317705,-0.02421977153448255,1st,4th,2nd,-1.2922242102303447,1.3241291147128196,0.014029642274415898
mem,resp,742,0,mem2.2.2.bmp,mem1.3.2.bmp,mem1.3.2.bmp,ACC032,"[0, 0, 0]","[-3, 3, 0]","[-3, 3, 0]",match,1.591751709536137,,-0.22682970201706484,-0.08499529395391879,0.2914631821938285,2nd,2nd,3rd,-0.3593309376031439,-0.35252064198125244,0.39865763416347705
mem,resp,615,0,mem2.1.2.bmp,mem3.2.2.bmp,mem2.1.3.bmp,ACC032,"[0, -3, 0]","[3, 0, 0]","[0, -3, 3]",non-match,1.2113248654051871,4,-0.23361233032979,1.773708287072479,0.1942783411375117,2nd,4th,2nd,-0.3593309376031439,1.3241291147128196,0.014029642274415898
mem,resp,661,1,mem2.1.3.bmp,mem1.1.1.bmp,mem2.1.3.bmp,ACC032,"[0, -3, 3]","[-3, -3, -3]","[0, -3, 3]",match,1.3545027756320973,,-0.8724812750530232,2.3307396223010524,-0.11973848497113135,1st,4th,2nd,-1.2922242102303447,1.3241291147128196,0.014029642274415898
mem,resp,482,1,mem3.1.2.bmp,mem3.1.1.bmp,mem1.1.2.bmp,ACC032,"[3, -3, 0]","[3, -3, -3]","[-3, -3, 0]",non-match,0.7771525064424715,2,0.8053609784427788,1.9233073106022027,-0.23570864032629457,4th,4th,2nd,1.2695922936308957,1.3241291147128196,0.014029642274415898
mem,resp,986,1,mem2.2.2.bmp,mem3.3.2.bmp,mem1.2.1.bmp,ACC032,"[0, 0, 0]","[3, 3, 0]","[-3, 0, -3]",non-match,0.8846449283495895,2,-0.5591255704943668,-1.1037310879731745,0.15539769026212263,2nd,1st,2nd,-0.3593309376031439,-1.2348773975467622,0.014029642274415898
mem,resp,617,1,mem3.3.3.bmp,mem1.1.3.bmp,mem3.3.1.bmp,ACC032,"[3, 3, 3]","[-3, -3, 3]","[3, 3, -3]",non-match,0.42264973081037427,1,0.6742974105860301,0.3082145302966723,0.2529480173501394,3rd,3rd,3rd,0.38196285420259296,0.2632689248151961,0.39865763416347705
mem,resp,880,0,mem2.1.2.bmp,mem2.3.3.bmp,mem2.3.3.bmp,ACC032,"[0, -3, 0]","[0, 3, 3]","[0, 3, 3]",match,1.3545027756320973,,-1.9925359459635683,-1.30631694461792,0.22320846489959031,1st,1st,2nd,-1.2922242102303447,-1.2348773975467622,0.014029642274415898
mem,resp,662,1,mem2.2.3.bmp,mem2.2.1.bmp,mem3.1.2.bmp,ACC032,"[0, 0, 3]","[0, 0, -3]","[3, -3, 0]",non-match,1.0,3,1.433102685947201,0.2704401722237004,0.1429526383340325,4th,3rd,2nd,1.2695922936308957,0.2632689248151961,0.014029642274415898
mem,resp,1036,1,mem2.3.2.bmp,mem2.3.1.bmp,mem1.3.1.bmp,ACC032,"[0, 3, 0]","[0, 3, -3]","[-3, 3, -3]",non-match,1.3030765749413242,4,-2.0281332451373224,-0.8053555084693811,0.1228125273355186,1st,1st,2nd,-1.2922242102303447,-1.2348773975467622,0.014029642274415898
mem,resp,700,1,mem1.3.2.bmp,mem3.2.1.bmp,mem1.3.2.bmp,ACC032,"[-3, 3, 0]","[3, 0, -3]","[-3, 3, 0]",match,1.2928932188134525,,0.469741637580516,-1.119862476908624,0.048788334451855715,3rd,1st,2nd,0.38196285420259296,-1.2348773975467622,0.014029642274415898
mem,resp,761,1,mem3.3.1.bmp,mem2.1.3.bmp,mem1.1.1.bmp,ACC032,"[3, 3, -3]","[0, -3, 3]","[-3, -3, -3]",non-match,0.5380061947043713,1,0.7563395762591377,0.010531397266302957,0.13879929410971698,4th,3rd,2nd,1.2695922936308957,0.2632689248151961,0.014029642274415898
mem,resp,741,0,mem1.2.1.bmp,mem2.3.2.bmp,mem2.3.1.bmp,ACC032,"[-3, 0, -3]","[0, 3, 0]","[0, 3, -3]",non-match,1.3030765749413242,4,0.30609796204883444,1.4066180813995668,0.43363945767895495,3rd,4th,3rd,0.38196285420259296,1.3241291147128196,0.39865763416347705
mem,resp,492,1,mem1.1.3.bmp,mem1.1.2.bmp,mem1.1.3.bmp,ACC032,"[-3, -3, 3]","[-3, -3, 0]","[-3, -3, 3]",match,1.7113248654051871,,-0.5814382113399992,-0.15606256065861332,0.4396196415736609,2nd,2nd,3rd,-0.3593309376031439,-0.35252064198125244,0.39865763416347705
mem,resp,654,1,mem3.3.2.bmp,mem3.2.2.bmp,mem3.2.2.bmp,ACC032,"[3, 3, 0]","[3, 0, 0]","[3, 0, 0]",match,1.7113248654051871,,-1.2552318322573062,-1.7378886870752404,0.5470084976040845,1st,1st,3rd,-1.2922242102303447,-1.2348773975467622,0.39865763416347705
mem,resp,616,1,mem2.1.1.bmp,mem3.1.3.bmp,mem3.1.3.bmp,ACC032,"[0, -3, -3]","[3, -3, 3]","[3, -3, 3]",match,1.3545027756320973,,-1.8609298247510198,0.3751867055428089,0.08328385062714821,1st,3rd,2nd,-1.2922242102303447,0.2632689248151961,0.014029642274415898
mem,resp,617,1,mem1.3.1.bmp,mem1.3.2.bmp,mem1.3.1.bmp,ACC032,"[-3, 3, -3]","[-3, 3, 0]","[-3, 3, -3]",match,1.7113248654051871,,0.15724290471037938,-0.9787336532018678,0.3312300549454141,3rd,1st,3rd,0.38196285420259296,-1.2348773975467622,0.39865763416347705
mem,resp,688,1,mem2.3.1.bmp,mem1.3.3.bmp,mem2.3.1.bmp,ACC032,"[0, 3, -3]","[-3, 3, 3]","[0, 3, -3]",match,1.3545027756320973,,-0.20276776965416496,-0.5340041035386617,0.2167012679378878,2nd,2nd,2nd,-0.3593309376031439,-0.35252064198125244,0.014029642274415898
mem,resp,517,1,mem3.2.1.bmp,mem2.1.1.bmp,mem3.2.1.bmp,ACC032,"[3, 0, -3]","[0, -3, -3]","[3, 0, -3]",match,1.591751709536137,,0.8974582180268084,-0.7899759849682509,0.4761924542208174,4th,1st,3rd,1.2695922936308957,-1.2348773975467622,0.39865763416347705
mem,resp,608,1,mem3.1.1.bmp,mem2.2.2.bmp,mem3.3.2.bmp,ACC032,"[3, -3, -3]","[0, 0, 0]","[3, 3, 0]",non-match,0.9462544851682343,2,0.7792386788603108,-0.692901958658938,0.6231639692699464,4th,2nd,4th,1.2695922936308957,-0.35252064198125244,1.0416362452419923
mem,resp,537,1,mem3.1.3.bmp,mem2.1.2.bmp,mem3.3.1.bmp,ACC032,"[3, -3, 3]","[0, -3, 0]","[3, 3, -3]",non-match,0.4763966378857265,1,1.1099928083774284,-1.691989213468385,0.6071842959796622,4th,1st,4th,1.2695922936308957,-1.2348773975467622,1.0416362452419923
mem,resp,768,1,mem2.3.3.bmp,mem3.3.3.bmp,mem2.3.3.bmp,ACC032,"[0, 3, 3]","[3, 3, 3]","[0, 3, 3]",match,1.7113248654051871,,-0.6700444445606811,-0.3074352603815865,0.41318458801001323,2nd,2nd,3rd,-0.3593309376031439,-0.35252064198125244,0.39865763416347705
mem,resp,580,1,mem1.2.3.bmp,mem2.2.3.bmp,mem3.1.2.bmp,ACC032,"[-3, 0, 3]","[0, 0, 3]","[3, -3, 0]",non-match,0.7928932188134524,2,0.7279159276423571,0.15602007038662652,0.452351222573689,3rd,3rd,3rd,0.38196285420259296,0.2632689248151961,0.39865763416347705
mem,resp,681,1,mem1.2.2.bmp,mem3.3.2.bmp,mem3.3.2.bmp,ACC032,"[-3, 0, 0]","[3, 3, 0]","[3, 3, 0]",match,1.3545027756320973,,0.4742423487349765,-0.03656506819199375,0.23998089908446366,3rd,2nd,3rd,0.38196285420259296,-0.35252064198125244,0.39865763416347705
mem,resp,570,1,mem2.2.1.bmp,mem1.3.3.bmp,mem2.2.1.bmp,ACC032,"[0, 0, -3]","[-3, 3, 3]","[0, 0, -3]",match,1.2928932188134525,,1.2121525986548431,-1.8142972981537804,0.4196169184537682,4th,1st,3rd,1.2695922936308957,-1.2348773975467622,0.39865763416347705
mem,resp,649,1,mem3.2.2.bmp,mem2.3.3.bmp,mem1.1.1.bmp,ACC032,"[3, 0, 0]","[0, 3, 3]","[-3, -3, -3]",non-match,0.42686781502901383,1,1.6446352938220699,-0.9656396712736697,0.2548100754675529,4th,1st,3rd,1.2695922936308957,-1.2348773975467622,0.39865763416347705
mem,resp,722,0,mem3.2.3.bmp,mem1.3.1.bmp,mem2.1.1.bmp,ACC032,"[3, 0, 3]","[-3, 3, -3]","[0, -3, -3]",non-match,0.6473959944455496,1,-0.4549778805427392,-0.01592984665230442,0.33710112782251755,2nd,2nd,3rd,-0.3593309376031439,-0.35252064198125244,0.39865763416347705
mem,resp,541,1,mem1.1.2.bmp,mem1.2.2.bmp,mem2.3.2.bmp,ACC032,"[-3, -3, 0]","[-3, 0, 0]","[0, 3, 0]",non-match,0.9462544851682343,2,1.5059929614348917,-0.5197476960826811,0.5431881205600328,4th,2nd,3rd,1.2695922936308957,-0.35252064198125244,0.39865763416347705
mem,resp,714,1,mem1.3.2.bmp,mem2.1.3.bmp,mem3.1.1.bmp,ACC032,"[-3, 3, 0]","[0, -3, 3]","[3, -3, -3]",non-match,0.4884773718476586,1,1.1693176469997202,0.3806627488946867,0.5773533400465212,4th,3rd,3rd,1.2695922936308957,0.2632689248151961,0.39865763416347705
mem,resp,645,0,mem3.2.2.bmp,mem1.2.1.bmp,mem2.1.2.bmp,ACC032,"[3, 0, 0]","[-3, 0, -3]","[0, -3, 0]",non-match,1.091751709536137,4,0.9552799119352582,-1.697058667254019,0.6754751864712919,4th,1st,4th,1.2695922936308957,-1.2348773975467622,1.0416362452419923
mem,resp,787,1,mem1.1.1.bmp,mem2.1.1.bmp,mem2.2.3.bmp,ACC032,"[-3, -3, -3]","[0, -3, -3]","[0, 0, 3]",non-match,0.6473959944455496,1,0.0981891028245398,0.6073362489176923,0.5666706141723064,3rd,3rd,3rd,0.38196285420259296,0.2632689248151961,0.39865763416347705
mem,resp,578,1,mem2.2.1.bmp,mem2.3.2.bmp,mem2.2.1.bmp,ACC032,"[0, 0, -3]","[0, 3, 0]","[0, 0, -3]",match,1.591751709536137,,-0.3211312935336991,-1.3632571302118643,0.7755359985757204,2nd,1st,4th,-0.3593309376031439,-1.2348773975467622,1.0416362452419923
mem,resp,850,1,mem2.3.3.bmp,mem1.1.2.bmp,mem1.1.2.bmp,ACC032,"[0, 3, 3]","[-3, -3, 0]","[-3, -3, 0]",match,1.2928932188134525,,-0.2045017265317211,-0.7601548244952887,0.6768628211925356,2nd,1st,4th,-0.3593309376031439,-1.2348773975467622,1.0416362452419923
mem,resp,542,0,mem2.2.2.bmp,mem1.3.2.bmp,mem1.3.2.bmp,ACC032,"[0, 0, 0]","[-3, 3, 0]","[-3, 3, 0]",match,1.591751709536137,,1.6327248366081153,-0.007684691091094143,0.6699950202656418,4th,3rd,4th,1.2695922936308957,0.2632689248151961,1.0416362452419923
mem,resp,573,1,mem1.1.3.bmp,mem3.2.1.bmp,mem3.2.1.bmp,ACC032,"[-3, -3, 3]","[3, 0, -3]","[3, 0, -3]",match,1.1339745962155614,,-0.03607645127733147,-0.41539675022204914,0.8259470705776943,2nd,2nd,4th,-0.3593309376031439,-0.35252064198125244,1.0416362452419923
mem,resp,572,1,mem2.2.3.bmp,mem2.3.1.bmp,mem1.3.1.bmp,ACC032,"[0, 0, 3]","[0, 3, -3]","[-3, 3, -3]",non-match,1.0042180842186395,3,0.5615667825354643,0.08837245919725455,0.669363863104248,3rd,3rd,4th,0.38196285420259296,0.2632689248151961,1.0416362452419923
mem,resp,613,1,mem2.3.2.bmp,mem3.3.3.bmp,mem2.1.1.bmp,ACC032,"[0, 3, 0]","[3, 3, 3]","[0, -3, -3]",non-match,0.4884773718476586,1,0.4023155850602166,-0.31358421336033576,0.4320933246761186,3rd,2nd,3rd,0.38196285420259296,-0.35252064198125244,0.39865763416347705
mem,resp,615,0,mem3.3.1.bmp,mem3.2.3.bmp,mem3.2.2.bmp,ACC032,"[3, 3, -3]","[3, 0, 3]","[3, 0, 0]",non-match,1.3030765749413242,4,1.0292565882545381,1.2950229402055922,0.38944016297756073,4th,4th,3rd,1.2695922936308957,1.3241291147128196,0.39865763416347705
mem,resp,980,1,mem2.1.2.bmp,mem3.1.2.bmp,mem2.1.2.bmp,ACC032,"[0, -3, 0]","[3, -3, 0]","[0, -3, 0]",match,1.7113248654051871,,-1.0091885428856129,-0.9524922324911974,0.6742522753306456,1st,1st,4th,-1.2922242102303447,-1.2348773975467622,1.0416362452419923
mem,resp,720,1,mem1.2.1.bmp,mem1.1.3.bmp,mem1.1.3.bmp,ACC032,"[-3, 0, -3]","[-3, -3, 3]","[-3, -3, 3]",match,1.3545027756320973,,0.48543783985585,-1.552262693238756,0.7704033127819396,3rd,1st,4th,0.38196285420259296,-1.2348773975467622,1.0416362452419923
mem,resp,804,1,mem1.2.2.bmp,mem1.3.2.bmp,mem1.3.2.bmp,ACC032,"[-3, 0, 0]","[-3, 3, 0]","[-3, 3, 0]",match,1.7113248654051871,,-1.1915558895103344,-1.4343175758623745,0.8213783400569027,1st,1st,4th,-1.2922242102303447,-1.2348773975467622,1.0416362452419923
mem,resp,512,1,mem2.1.2.bmp,mem2.1.1.bmp,mem2.1.1.bmp,ACC032,"[0, -3, 0]","[0, -3, -3]","[0, -3, -3]",match,1.7113248654051871,,1.8044390635117349,0.011963683908150925,0.7771618608384179,4th,3rd,4th,1.2695922936308957,0.2632689248151961,1.0416362452419923
mem,resp,579,1,mem1.2.2.bmp,mem1.1.3.bmp,mem1.1.3.bmp,ACC032,"[-3, 0, 0]","[-3, -3, 3]","[-3, -3, 3]",match,1.591751709536137,,1.050441508444295,-1.7293439356563538,0.995357948738645,4th,1st,4th,1.2695922936308957,-1.2348773975467622,1.0416362452419923
mem,resp,692,1,mem1.2.3.bmp,mem3.1.2.bmp,mem1.2.3.bmp,ACC032,"[-3, 0, 3]","[3, -3, 0]","[-3, 0, 3]",match,1.2928932188134525,,0.06436798519678036,0.008018958799612414,0.6636278326213609,3rd,3rd,4th,0.38196285420259296,0.2632689248151961,1.0416362452419923
mem,resp,661,1,mem3.2.2.bmp,mem1.2.1.bmp,mem2.3.3.bmp,ACC032,"[3, 0, 0]","[-3, 0, -3]","[0, 3, 3]",non-match,0.7928932188134524,2,-1.1666339526969518,-1.031398793612077,1.0479757227759272,1st,1st,4th,-1.2922242102303447,-1.2348773975467622,1.0416362452419923
mem,resp,804,0,mem3.2.1.bmp,mem1.1.2.bmp,mem2.1.3.bmp,ACC032,"[3, 0, -3]","[-3, -3, 0]","[0, -3, 3]",non-match,0.8846449283495895,2,-0.09120298014540132,0.1942440454040583,1.3870317340008436,2nd,3rd,4th,-0.3593309376031439,0.2632689248151961,1.0416362452419923
mem,resp,556,1,mem1.3.1.bmp,mem1.3.2.bmp,mem3.2.3.bmp,ACC032,"[-3, 3, -3]","[-3, 3, 0]","[3, 0, 3]",non-match,0.42686781502901383,1,1.3525312501448052,0.37828113993146334,1.5379915510545394,4th,3rd,4th,1.2695922936308957,0.2632689248151961,1.0416362452419923
mem,resp,607,1,mem3.3.2.bmp,mem3.3.1.bmp,mem3.3.2.bmp,ACC032,"[3, 3, 0]","[3, 3, -3]","[3, 3, 0]",match,1.7113248654051871,,0.4169691527536205,0.6750589759136377,1.2472058013287817,3rd,4th,4th,0.38196285420259296,1.3241291147128196,1.0416362452419923
mem,resp,625,1,mem2.2.2.bmp,mem1.2.2.bmp,mem2.2.2.bmp,ACC032,"[0, 0, 0]","[-3, 0, 0]","[0, 0, 0]",match,1.7113248654051871,,0.3978251913770274,-1.785648037158126,1.330190643558797,3rd,1st,4th,0.38196285420259296,-1.2348773975467622,1.0416362452419923
mem,resp,776,1,mem2.1.3.bmp,mem1.3.3.bmp,mem2.1.3.bmp,ACC032,"[0, -3, 3]","[-3, 3, 3]","[0, -3, 3]",match,1.3545027756320973,,0.24413947619147663,-1.1902219539785068,1.0743377879656038,3rd,1st,4th,0.38196285420259296,-1.2348773975467622,1.0416362452419923
mem,resp,698,1,mem2.3.1.bmp,mem2.3.2.bmp,mem2.3.1.bmp,ACC032,"[0, 3, -3]","[0, 3, 0]","[0, 3, -3]",match,1.7113248654051871,,-0.39284929551473424,-0.3553034649629369,1.143193783996783,2nd,2nd,4th,-0.3593309376031439,-0.35252064198125244,1.0416362452419923
mem,resp,823,1,mem1.3.2.bmp,mem2.3.3.bmp,mem1.3.2.bmp,ACC032,"[-3, 3, 0]","[0, 3, 3]","[-3, 3, 0]",match,1.591751709536137,,0.40059278583350283,0.08038714369519644,1.2226634958733011,3rd,3rd,4th,0.38196285420259296,0.2632689248151961,1.0416362452419923
mem,resp,765,1,mem3.3.1.bmp,mem2.2.3.bmp,mem2.2.3.bmp,ACC032,"[3, 3, -3]","[0, 0, 3]","[0, 0, 3]",match,1.2928932188134525,,-1.5725391761354115,-1.3567765518944632,1.1801795755250073,1st,1st,4th,-1.2922242102303447,-1.2348773975467622,1.0416362452419923
mem,resp,758,1,mem1.2.1.bmp,mem2.2.2.bmp,mem1.1.1.bmp,ACC032,"[-3, 0, -3]","[0, 0, 0]","[-3, -3, -3]",non-match,1.2113248654051871,4,0.7273493894473533,0.12395026940176403,1.3143214388380458,3rd,3rd,4th,0.38196285420259296,0.2632689248151961,1.0416362452419923
mem,resp,810,1,mem1.1.3.bmp,mem3.3.2.bmp,mem3.3.2.bmp,ACC032,"[-3, -3, 3]","[3, 3, 0]","[3, 3, 0]",match,1.1339745962155614,,0.20030131691152064,1.593984119842697,1.6169903140389454,3rd,4th,4th,0.38196285420259296,1.3241291147128196,1.0416362452419923
mem,resp,720,1,mem2.1.1.bmp,mem3.2.1.bmp,mem3.2.1.bmp,ACC032,"[0, -3, -3]","[3, 0, -3]","[3, 0, -3]",match,1.591751709536137,,0.38452918493712007,-0.5335889792336327,1.9290420746829295,3rd,2nd,4th,0.38196285420259296,-0.35252064198125244,1.0416362452419923
mem,resp,603,1,mem3.1.2.bmp,mem1.2.3.bmp,mem1.3.3.bmp,ACC032,"[3, -3, 0]","[-3, 0, 3]","[-3, 3, 3]",non-match,0.8452994616207485,2,1.5720947148112876,1.1406898019139418,1.4261956034740981,4th,4th,4th,1.2695922936308957,1.3241291147128196,1.0416362452419923
mem,resp,695,1,mem3.3.3.bmp,mem2.3.1.bmp,mem3.3.3.bmp,ACC032,"[3, 3, 3]","[0, 3, -3]","[3, 3, 3]",match,1.3545027756320973,,0.19246377162048872,-0.6942278705397275,1.4296016383453232,3rd,2nd,4th,0.38196285420259296,-0.35252064198125244,1.0416362452419923
mem,resp,656,1,mem3.2.3.bmp,mem3.1.3.bmp,mem3.2.3.bmp,ACC032,"[3, 0, 3]","[3, -3, 3]","[3, 0, 3]",match,1.7113248654051871,,0.049338428195952196,-0.8201542823646203,1.3004701913307686,3rd,1st,4th,0.38196285420259296,-1.2348773975467622,1.0416362452419923
mem,resp,557,1,mem2.2.1.bmp,mem3.1.1.bmp,mem1.2.1.bmp,ACC032,"[0, 0, -3]","[3, -3, -3]","[-3, 0, -3]",non-match,1.0658276410372842,3,1.4623401560147034,-2.177058325999055,1.4225005186178832,4th,1st,4th,1.2695922936308957,-1.2348773975467622,1.0416362452419923
mem,resp,749,1,mem1.1.1.bmp,mem2.2.2.bmp,mem1.1.1.bmp,ACC032,"[-3, -3, -3]","[0, 0, 0]","[-3, -3, -3]",match,1.5,,-0.9416036355642908,2.112746410569894,1.5363997668221796,1st,4th,4th,-1.2922242102303447,1.3241291147128196,1.0416362452419923
mem,resp,719,1,mem1.1.2.bmp,mem1.2.3.bmp,mem1.1.2.bmp,ACC032,"[-3, -3, 0]","[-3, 0, 3]","[-3, -3, 0]",match,1.591751709536137,,-0.39681458487035925,-2.0858416062863085,1.4970505008449089,2nd,1st,4th,-0.3593309376031439,-1.2348773975467622,1.0416362452419923
mem,resp,712,1,mem2.3.2.bmp,mem2.2.3.bmp,mem2.3.2.bmp,ACC032,"[0, 3, 0]","[0, 0, 3]","[0, 3, 0]",match,1.591751709536137,,-0.8855265331187228,0.8799319825527341,1.3451216138797584,1st,4th,4th,-1.2922242102303447,1.3241291147128196,1.0416362452419923
mem,resp,988,1,mem1.3.3.bmp,mem2.1.2.bmp,mem1.2.2.bmp,ACC032,"[-3, 3, 3]","[0, -3, 0]","[-3, 0, 0]",non-match,1.1835034190722742,4,-0.7126122603445941,-0.5294087003872604,1.2064514406376727,2nd,2nd,4th,-0.3593309376031439,-0.35252064198125244,1.0416362452419923
mem,resp,751,1,mem3.1.1.bmp,mem3.2.2.bmp,mem3.1.1.bmp,ACC032,"[3, -3, -3]","[3, 0, 0]","[3, -3, -3]",match,1.591751709536137,,0.7688070538066012,1.8784245719636485,1.3796317249342622,4th,4th,4th,1.2695922936308957,1.3241291147128196,1.0416362452419923
mem,resp,704,1,mem2.3.3.bmp,mem2.3.1.bmp,mem1.1.1.bmp,ACC032,"[0, 3, 3]","[0, 3, -3]","[-3, -3, -3]",non-match,0.4884773718476586,1,0.5080722188283033,-0.7575474975859443,1.641289923809718,3rd,1st,4th,0.38196285420259296,-1.2348773975467622,1.0416362452419923
mem,resp,685,1,mem2.2.3.bmp,mem2.1.3.bmp,mem2.1.1.bmp,ACC032,"[0, 0, 3]","[0, -3, 3]","[0, -3, -3]",non-match,0.7771525064424715,2,-1.3230689115110181,-0.41119167979108595,1.5048767357217543,1st,2nd,4th,-1.2922242102303447,-0.35252064198125244,1.0416362452419923
mem,resp,1180,1,mem1.3.2.bmp,mem3.3.3.bmp,mem3.2.3.bmp,ACC032,"[-3, 3, 0]","[3, 3, 3]","[3, 0, 3]",non-match,1.0042180842186395,3,-0.5225550809230932,1.9559120169719937,1.4543799438887248,2nd,4th,4th,-0.3593309376031439,1.3241291147128196,1.0416362452419923
mem,resp,764,1,mem2.2.2.bmp,mem3.2.1.bmp,mem1.2.1.bmp,ACC032,"[0, 0, 0]","[3, 0, -3]","[-3, 0, -3]",non-match,1.0144014403465114,3,-0.1373736595592564,0.9943877896610941,1.5990239860566575,2nd,4th,4th,-0.3593309376031439,1.3241291147128196,1.0416362452419923
mem,resp,636,1,mem3.1.2.bmp,mem3.1.3.bmp,mem3.1.3.bmp,ACC032,"[3, -3, 0]","[3, -3, 3]","[3, -3, 3]",match,1.7113248654051871,,0.4522703978133561,0.35479798511186705,1.2706419255975085,3rd,3rd,4th,0.38196285420259296,0.2632689248151961,1.0416362452419923
mem,resp,799,1,mem2.1.2.bmp,mem3.3.2.bmp,mem2.1.2.bmp,ACC032,"[0, -3, 0]","[3, 3, 0]","[0, -3, 0]",match,1.3545027756320973,,0.47205570181030065,0.23550903164008893,1.1571158310200347,3rd,3rd,4th,0.38196285420259296,0.2632689248151961,1.0416362452419923
mem,resp,703,0,mem3.1.1.bmp,mem1.3.3.bmp,mem1.3.2.bmp,ACC032,"[3, -3, -3]","[-3, 3, 3]","[-3, 3, 0]",non-match,0.8452994616207485,2,-0.6326575747533374,-1.1563793357479593,0.9742322784969961,2nd,1st,4th,-0.3593309376031439,-1.2348773975467622,1.0416362452419923
mem,resp,805,1,mem3.2.1.bmp,mem2.1.1.bmp,mem3.2.2.bmp,ACC032,"[3, 0, -3]","[0, -3, -3]","[3, 0, 0]",non-match,1.2113248654051871,4,-0.5186355674357785,-0.3701782136123136,0.9158797638695109,2nd,2nd,4th,-0.3593309376031439,-0.35252064198125244,1.0416362452419923
mem,resp,666,1,mem1.3.1.bmp,mem1.2.2.bmp,mem1.2.3.bmp,ACC032,"[-3, 3, -3]","[-3, 0, 0]","[-3, 0, 3]",non-match,1.0658276410372842,3,-0.053192049413845796,-1.556165275179806,1.1312002084347015,2nd,1st,4th,-0.3593309376031439,-1.2348773975467622,1.0416362452419923
mem,resp,920,1,mem3.1.3.bmp,mem1.2.1.bmp,mem2.3.3.bmp,ACC032,"[3, -3, 3]","[-3, 0, -3]","[0, 3, 3]",non-match,0.6473959944455496,1,-1.3445005981895035,-1.1146394862459323,1.2547283220813952,1st,1st,4th,-1.2922242102303447,-1.2348773975467622,1.0416362452419923
mem,resp,663,0,mem3.3.3.bmp,mem1.1.2.bmp,mem3.3.2.bmp,ACC032,"[3, 3, 3]","[-3, -3, 0]","[3, 3, 0]",non-match,0.8948282844774612,2,0.8514405501653959,-1.9046883370206666,1.119909320658354,4th,1st,4th,1.2695922936308957,-1.2348773975467622,1.0416362452419923
mem,resp,637,1,mem2.3.2.bmp,mem1.1.3.bmp,mem3.1.1.bmp,ACC032,"[0, 3, 0]","[-3, -3, 3]","[3, -3, -3]",non-match,0.4763966378857265,1,1.6002116185824447,0.1890683305416029,1.2135289370540543,4th,3rd,4th,1.2695922936308957,0.2632689248151961,1.0416362452419923
mem,resp,668,1,mem1.2.3.bmp,mem2.2.1.bmp,mem1.3.3.bmp,ACC032,"[-3, 0, 3]","[0, 0, -3]","[-3, 3, 3]",non-match,1.0042180842186395,3,-0.5352494005032903,-1.4737497679969611,1.0278291320695725,2nd,1st,4th,-0.3593309376031439,-1.2348773975467622,1.0416362452419923
mem,resp,639,1,mem3.2.3.bmp,mem3.3.1.bmp,mem3.2.3.bmp,ACC032,"[3, 0, 3]","[3, 3, -3]","[3, 0, 3]",match,1.3545027756320973,,-0.3017861552085285,-0.6832476575137795,0.8257395142431172,2nd,2nd,4th,-0.3593309376031439,-0.35252064198125244,1.0416362452419923
mem,resp,600,1,mem1.1.1.bmp,mem1.3.2.bmp,mem3.2.2.bmp,ACC032,"[-3, -3, -3]","[-3, 3, 0]","[3, 0, 0]",non-match,0.6473959944455496,1,-0.1934761875141353,-1.0325462296627632,0.7497441793918384,2nd,1st,4th,-0.3593309376031439,-1.2348773975467622,1.0416362452419923
mem,resp,1136,1,mem1.1.1.bmp,mem1.2.3.bmp,mem2.1.3.bmp,ACC032,"[-3, -3, -3]","[-3, 0, 3]","[0, -3, 3]",non-match,0.9462544851682343,2,-0.7865269989559058,1.53889304203812,0.32737114956154834,1st,4th,3rd,-1.2922242102303447,1.3241291147128196,0.39865763416347705
mem,resp,648,0,mem2.3.2.bmp,mem1.3.3.bmp,mem2.2.3.bmp,ACC032,"[0, 3, 0]","[-3, 3, 3]","[0, 0, 3]",non-match,1.1835034190722742,4,1.594956071381586,0.7949417821521843,0.1435866082069234,4th,4th,2nd,1.2695922936308957,1.3241291147128196,0.014029642274415898
mem,resp,820,1,mem1.1.3.bmp,mem2.2.2.bmp,mem2.2.2.bmp,ACC032,"[-3, -3, 3]","[0, 0, 0]","[0, 0, 0]",match,1.5,,-0.7559894414939159,-0.7187859898145649,-0.2887039086471556,1st,1st,2nd,-1.2922242102303447,-1.2348773975467622,0.014029642274415898
mem,resp,611,1,mem2.1.2.bmp,mem1.2.1.bmp,mem3.3.1.bmp,ACC032,"[0, -3, 0]","[-3, 0, -3]","[3, 3, -3]",non-match,0.6473959944455496,1,2.3932975918069563,1.6216133303429796,-0.3982511065869829,4th,4th,1st,1.2695922936308957,1.3241291147128196,-1.4543235216798827
mem,resp,753,1,mem3.2.2.bmp,mem1.1.1.bmp,mem1.1.1.bmp,ACC032,"[3, 0, 0]","[-3, -3, -3]","[-3, -3, -3]",match,1.2928932188134525,,-1.1304672931749786,-1.4692371164433453,-0.5982050203944522,1st,1st,1st,-1.2922242102303447,-1.2348773975467622,-1.4543235216798827
mem,resp,784,1,mem1.2.2.bmp,mem2.3.2.bmp,mem1.3.1.bmp,ACC032,"[-3, 0, 0]","[0, 3, 0]","[-3, 3, -3]",non-match,1.1835034190722742,4,-0.5241701668167477,0.6838877442392852,-0.9282888857396927,2nd,4th,1st,-0.3593309376031439,1.3241291147128196,-1.4543235216798827
mem,resp,785,0,mem3.2.3.bmp,mem2.1.1.bmp,mem2.2.2.bmp,ACC032,"[3, 0, 3]","[0, -3, -3]","[0, 0, 0]",non-match,1.1835034190722742,4,-1.125925847884453,-0.7104671668681631,-1.0074606016617165,1st,1st,1st,-1.2922242102303447,-1.2348773975467622,-1.4543235216798827
mem,resp,1132,0,mem3.3.3.bmp,mem3.2.1.bmp,mem3.1.2.bmp,ACC032,"[3, 3, 3]","[3, 0, -3]","[3, -3, 0]",non-match,0.9462544851682343,2,-1.11919059804401,-0.6943939000512082,-1.0627271899297703,1st,2nd,1st,-1.2922242102303447,-0.35252064198125244,-1.4543235216798827
mem,resp,613,1,mem1.3.2.bmp,mem2.3.1.bmp,mem2.3.3.bmp,ACC032,"[-3, 3, 0]","[0, 3, -3]","[0, 3, 3]",non-match,1.0144014403465114,3,-1.6668531595955767,-0.6056178966835618,-0.9408402920847592,1st,2nd,1st,-1.2922242102303447,-0.35252064198125244,-1.4543235216798827
mem,resp,685,1,mem1.1.2.bmp,mem3.1.3.bmp,mem1.1.2.bmp,ACC032,"[-3, -3, 0]","[3, -3, 3]","[-3, -3, 0]",match,1.3545027756320973,,-0.012434343804308027,-0.39083596989397457,-1.1455427582340092,2nd,2nd,1st,-0.3593309376031439,-0.35252064198125244,-1.4543235216798827
mem,resp,778,1,mem1.2.3.bmp,mem3.2.2.bmp,mem3.2.2.bmp,ACC032,"[-3, 0, 3]","[3, 0, 0]","[3, 0, 0]",match,1.3545027756320973,,0.48874565472011544,2.700581289652963,-1.284779980437179,3rd,4th,1st,0.38196285420259296,1.3241291147128196,-1.4543235216798827
mem,resp,579,1,mem3.1.2.bmp,mem3.1.1.bmp,mem3.3.1.bmp,ACC032,"[3, -3, 0]","[3, -3, -3]","[3, 3, -3]",non-match,0.7771525064424715,2,2.081151748638146,-0.08830783365538315,-1.3645657304631411,4th,2nd,1st,1.2695922936308957,-0.35252064198125244,-1.4543235216798827
mem,resp,661,1,mem2.2.3.bmp,mem2.3.3.bmp,mem2.3.3.bmp,ACC032,"[0, 0, 3]","[0, 3, 3]","[0, 3, 3]",match,1.7113248654051871,,-0.5230469003501104,1.6517119982475372,-1.4135792652703776,2nd,4th,1st,-0.3593309376031439,1.3241291147128196,-1.4543235216798827
mem,resp,744,1,mem2.2.1.bmp,mem2.1.3.bmp,mem2.2.1.bmp,ACC032,"[0, 0, -3]","[0, -3, 3]","[0, 0, -3]",match,1.3545027756320973,,-1.2142104262017135,-0.39615709952637607,-1.575399707537851,1st,2nd,1st,-1.2922242102303447,-0.35252064198125244,-1.4543235216798827
mem,resp,808,0,mem1.3.1.bmp,mem1.2.2.bmp,mem2.2.2.bmp,ACC032,"[-3, 3, -3]","[-3, 0, 0]","[0, 0, 0]",non-match,1.2113248654051871,4,-1.4905604123137324,-0.04750418647174437,-1.4493311371900794,1st,2nd,1st,-1.2922242102303447,-0.35252064198125244,-1.4543235216798827
mem,resp,728,0,mem1.3.3.bmp,mem2.1.2.bmp,mem3.1.3.bmp,ACC032,"[-3, 3, 3]","[0, -3, 0]","[3, -3, 3]",non-match,0.7752551286084112,2,-0.6668877037850558,0.29418390815524986,-1.5435150779255071,2nd,3rd,1st,-0.3593309376031439,0.2632689248151961,-1.4543235216798827
mem,resp,709,0,mem2.3.1.bmp,mem3.2.3.bmp,mem2.1.1.bmp,ACC032,"[0, 3, -3]","[3, 0, 3]","[0, -3, -3]",non-match,0.7155429496238267,2,-1.0640648044939873,0.8200312026006031,-1.8687040002558442,1st,4th,1st,-1.2922242102303447,1.3241291147128196,-1.4543235216798827
mem,resp,583,1,mem3.3.1.bmp,mem3.3.3.bmp,mem1.2.3.bmp,ACC032,"[3, 3, -3]","[3, 3, 3]","[-3, 0, 3]",non-match,0.4884773718476586,1,-0.37782728558982004,-0.8114901456553977,-1.8827986530155845,2nd,1st,1st,-0.3593309376031439,-1.2348773975467622,-1.4543235216798827
mem,resp,644,0,mem3.1.1.bmp,mem2.2.1.bmp,mem3.2.1.bmp,ACC032,"[3, -3, -3]","[0, 0, -3]","[3, 0, -3]",non-match,1.4226497308103743,4,-0.18987609267621008,1.9645869157889295,-1.8343009307181186,2nd,4th,1st,-0.3593309376031439,1.3241291147128196,-1.4543235216798827
mem,resp,645,1,mem1.2.1.bmp,mem3.1.2.bmp,mem3.3.2.bmp,ACC032,"[-3, 0, -3]","[3, -3, 0]","[3, 3, 0]",non-match,0.7155429496238267,2,0.9054732540011589,0.34284931712860867,-1.968059326731406,4th,3rd,1st,1.2695922936308957,0.2632689248151961,-1.4543235216798827
mem,resp,687,1,mem2.1.3.bmp,mem1.3.1.bmp,mem2.1.3.bmp,ACC032,"[0, -3, 3]","[-3, 3, -3]","[0, -3, 3]",match,1.1339745962155614,,0.6336066486293136,0.43869466105295085,-1.854006962376607,3rd,3rd,1st,0.38196285420259296,0.2632689248151961,-1.4543235216798827
mem,resp,849,1,mem2.1.1.bmp,mem1.3.2.bmp,mem1.1.2.bmp,ACC032,"[0, -3, -3]","[-3, 3, 0]","[-3, -3, 0]",non-match,1.0144014403465114,3,-1.35424225912637,-0.18194521076129413,-1.841418040708384,1st,2nd,1st,-1.2922242102303447,-0.35252064198125244,-1.4543235216798827
mem,resp,542,1,mem3.2.1.bmp,mem3.3.3.bmp,mem1.1.1.bmp,ACC032,"[3, 0, -3]","[3, 3, 3]","[-3, -3, -3]",non-match,0.3545027756320972,1,1.8981364322484555,-0.9119561895790048,-1.9972800387663532,4th,1st,1st,1.2695922936308957,-1.2348773975467622,-1.4543235216798827
mem,resp,752,1,mem3.1.3.bmp,mem3.3.2.bmp,mem3.3.2.bmp,ACC032,"[3, -3, 3]","[3, 3, 0]","[3, 3, 0]",match,1.3545027756320973,,0.9804876471257316,-0.23414406053903694,-2.005024668203369,4th,2nd,1st,1.2695922936308957,-0.35252064198125244,-1.4543235216798827
mem,resp,768,0,mem2.3.3.bmp,mem3.2.2.bmp,mem3.2.3.bmp,ACC032,"[0, 3, 3]","[3, 0, 0]","[3, 0, 3]",non-match,1.3030765749413242,4,0.4041444012967935,-0.700792933086888,-2.122382236777408,3rd,1st,1st,0.38196285420259296,-1.2348773975467622,-1.4543235216798827
mem,resp,627,1,mem2.2.2.bmp,mem1.1.2.bmp,mem1.1.2.bmp,ACC032,"[0, 0, 0]","[-3, -3, 0]","[-3, -3, 0]",match,1.591751709536137,,-1.070013530427102,0.15011145430469486,-2.3911283660403853,1st,3rd,1st,-1.2922242102303447,0.2632689248151961,-1.4543235216798827
mem,resp,658,1,mem1.2.2.bmp,mem2.2.3.bmp,mem2.2.3.bmp,ACC032,"[-3, 0, 0]","[0, 0, 3]","[0, 0, 3]",match,1.591751709536137,,-1.3748073566080452,-1.4184289448769256,-2.546858922925859,1st,1st,1st,-1.2922242102303447,-1.2348773975467622,-1.4543235216798827
mem,resp,546,1,mem1.3.3.bmp,mem1.3.1.bmp,mem3.2.1.bmp,ACC032,"[-3, 3, 3]","[-3, 3, -3]","[3, 0, -3]",non-match,0.4884773718476586,1,0.7411631491074362,-0.5751917844939357,-2.3529698414864706,4th,2nd,1st,1.2695922936308957,-0.35252064198125244,-1.4543235216798827
mem,resp,717,0,mem2.3.3.bmp,mem2.3.2.bmp,mem1.3.2.bmp,ACC032,"[0, 3, 3]","[0, 3, 0]","[-3, 3, 0]",non-match,1.3030765749413242,4,0.06329979048120733,1.0312171033084008,-2.380290331259692,3rd,4th,1st,0.38196285420259296,1.3241291147128196,-1.4543235216798827
mem,resp,819,1,mem2.2.2.bmp,mem2.1.3.bmp,mem2.2.2.bmp,ACC032,"[0, 0, 0]","[0, -3, 3]","[0, 0, 0]",match,1.591751709536137,,0.2796963798264701,-0.03524724052357054,-2.4323757771627954,3rd,2nd,1st,0.38196285420259296,-0.35252064198125244,-1.4543235216798827
mem,resp,792,0,mem1.1.1.bmp,mem3.2.3.bmp,mem2.1.2.bmp,ACC032,"[-3, -3, -3]","[3, 0, 3]","[0, -3, 0]",non-match,1.091751709536137,4,-1.4184707379391273,0.5983272026562673,-2.626040047632644,1st,3rd,1st,-1.2922242102303447,0.2632689248151961,-1.4543235216798827
mem,resp,715,1,mem2.2.3.bmp,mem3.1.3.bmp,mem3.1.3.bmp,ACC032,"[0, 0, 3]","[3, -3, 3]","[3, -3, 3]",match,1.591751709536137,,-0.9397429700646772,0.31884924429659967,-2.906459400446944,1st,3rd,1st,-1.2922242102303447,0.2632689248151961,-1.4543235216798827
mem,resp,667,1,mem3.2.2.bmp,mem1.3.2.bmp,mem1.3.3.bmp,ACC032,"[3, 0, 0]","[-3, 3, 0]","[-3, 3, 3]",non-match,1.0042180842186395,3,-0.7775126964556401,-0.7274490654709143,-2.6667106080700784,1st,1st,1st,-1.2922242102303447,-1.2348773975467622,-1.4543235216798827
mem,resp,575,1,mem3.1.2.bmp,mem2.3.1.bmp,mem3.1.2.bmp,ACC032,"[3, -3, 0]","[0, 3, -3]","[3, -3, 0]",match,1.2928932188134525,,-0.2618971395427839,-0.14659591429301608,-2.5440899465753843,2nd,2nd,1st,-0.3593309376031439,-0.35252064198125244,-1.4543235216798827
mem,resp,646,1,mem1.2.3.bmp,mem3.1.1.bmp,mem1.3.1.bmp,ACC032,"[-3, 0, 3]","[3, -3, -3]","[-3, 3, -3]",non-match,0.5380061947043713,1,-1.1142135406969447,1.4890875570157502,-2.3607227766713517,1st,4th,1st,-1.2922242102303447,1.3241291147128196,-1.4543235216798827
mem,resp,728,1,mem3.3.2.bmp,mem1.1.3.bmp,mem2.1.1.bmp,ACC032,"[3, 3, 0]","[-3, -3, 3]","[0, -3, -3]",non-match,0.6473959944455496,1,1.2031002479169586,-0.9846992461388752,-2.5913413477516376,4th,1st,1st,1.2695922936308957,-1.2348773975467622,-1.4543235216798827
mem,resp,711,1,mem1.2.1.bmp,mem2.1.2.bmp,mem2.2.3.bmp,ACC032,"[-3, 0, -3]","[0, -3, 0]","[0, 0, 3]",non-match,0.9462544851682343,2,-0.35410544331328103,0.02421877722432402,-3.0185264976495008,2nd,3rd,1st,-0.3593309376031439,0.2632689248151961,-1.4543235216798827
mem,resp,792,1,mem2.2.1.bmp,mem1.2.2.bmp,mem3.2.2.bmp,ACC032,"[0, 0, -3]","[-3, 0, 0]","[3, 0, 0]",non-match,1.0144014403465114,3,-0.41393000712619443,-1.227790324636165,-2.7507560892177123,2nd,1st,1st,-0.3593309376031439,-1.2348773975467622,-1.4543235216798827
mem,resp,636,1,mem3.1.1.bmp,mem3.3.1.bmp,mem3.1.1.bmp,ACC032,"[3, -3, -3]","[3, 3, -3]","[3, -3, -3]",match,1.4226497308103743,,0.8605143185431858,-0.27725255035263374,-2.9548580718489887,4th,2nd,1st,1.2695922936308957,-0.35252064198125244,-1.4543235216798827
