mode,type,rt,acc,item_1,item_2,item_cue,subj_idx,item_1_number,item_2_number,item_cue_number,trial_type,summed_similarity,similarity_bin,ams,pams,slps,ams_quantile,pams_quantile,slps_quantile,ams_bin,pam_bin,slp_bin
mem,resp,862,1,mem1.1.3.bmp,mem1.1.1.bmp,mem1.3.3.bmp,ACC019,"[-3, -3, 3]","[-3, -3, -3]","[-3, 3, 3]",non-match,0.6061531498826483,1,-0.2583489705924425,0.855662578120825,-1.4908066172778025,2nd,4th,1st,-0.3572715434865365,1.2541321839403718,-1.5100407109788843
mem,resp,778,1,mem2.3.3.bmp,mem1.3.1.bmp,mem3.1.3.bmp,ACC019,"[0, 3, 3]","[-3, 3, -3]","[3, -3, 3]",non-match,0.3545027756320972,1,-0.11641221506945734,0.7306964485578353,-1.3421262113659418,2nd,4th,1st,-0.3572715434865365,1.2541321839403718,-1.5100407109788843
mem,resp,589,0,mem2.1.2.bmp,mem2.2.2.bmp,mem1.2.1.bmp,ACC019,"[0, -3, 0]","[0, 0, 0]","[-3, 0, -3]",non-match,1.091751709536137,4,1.1669811523178115,1.2769564102984146,-1.607190150449637,4th,4th,1st,1.2989455670144114,1.2541321839403718,-1.5100407109788843
mem,resp,744,1,mem2.3.2.bmp,mem2.2.1.bmp,mem1.2.3.bmp,ACC019,"[0, 3, 0]","[0, 0, -3]","[-3, 0, 3]",non-match,0.8545027756320972,2,-1.2700976762658478,-0.4292598046366961,-1.4692123483201396,1st,2nd,1st,-1.2475766999350768,-0.3556843322527513,-1.5100407109788843
mem,resp,737,1,mem3.3.2.bmp,mem1.3.3.bmp,mem3.2.1.bmp,ACC019,"[3, 3, 0]","[-3, 3, 3]","[3, 0, -3]",non-match,0.7257263057516985,2,-0.8520666760127548,-0.8199024336728951,-1.4987024672506797,1st,1st,1st,-1.2475766999350768,-1.1715146098375644,-1.5100407109788843
mem,resp,518,1,mem1.2.2.bmp,mem3.3.1.bmp,mem2.1.3.bmp,ACC019,"[-3, 0, 0]","[3, 3, -3]","[0, -3, 3]",non-match,0.6339745962155614,1,-1.6245521103858993,2.0168997380892373,-1.4330096376154051,1st,4th,1st,-1.2475766999350768,1.2541321839403718,-1.5100407109788843
mem,resp,711,1,mem1.1.1.bmp,mem3.1.2.bmp,mem3.1.2.bmp,ACC019,"[-3, -3, -3]","[3, -3, 0]","[3, -3, 0]",match,1.3545027756320973,,-0.9490536301670749,-0.7290849974125506,-1.2738703919902405,1st,1st,1st,-1.2475766999350768,-1.1715146098375644,-1.5100407109788843
mem,resp,573,0,mem1.3.1.bmp,mem2.2.3.bmp,mem2.2.2.bmp,ACC019,"[-3, 3, -3]","[0, 0, 3]","[0, 0, 0]",non-match,1.2113248654051871,4,-1.6343223709391796,4.096495276917064,-1.2208868936102064,1st,4th,1st,-1.2475766999350768,1.2541321839403718,-1.5100407109788843
mem,resp,806,1,mem3.2.3.bmp,mem1.2.3.bmp,mem1.2.3.bmp,ACC019,"[3, 0, 3]","[-3, 0, 3]","[-3, 0, 3]",match,1.4226497308103743,,0.7961224493220428,3.276246647534579,-1.2765519589843557,4th,4th,1st,1.2989455670144114,1.2541321839403718,-1.5100407109788843
mem,resp,547,1,mem2.1.3.bmp,mem3.2.2.bmp,mem2.1.3.bmp,ACC019,"[0, -3, 3]","[3, 0, 0]","[0, -3, 3]",match,1.5,,-1.2915794482723881,1.1029365519891936,-1.3379047066058432,1st,4th,1st,-1.2475766999350768,1.2541321839403718,-1.5100407109788843
mem,resp,488,1,mem1.3.3.bmp,mem2.3.1.bmp,mem3.1.2.bmp,ACC019,"[-3, 3, 3]","[0, 3, -3]","[3, -3, 0]",non-match,0.42686781502901383,1,-0.11567955875143508,-0.2184618780258404,-1.411116479343107,2nd,2nd,1st,-0.3572715434865365,-0.3556843322527513,-1.5100407109788843
mem,resp,771,1,mem2.1.1.bmp,mem1.2.1.bmp,mem2.1.1.bmp,ACC019,"[0, -3, -3]","[-3, 0, -3]","[0, -3, -3]",match,1.591751709536137,,-0.7608755563128282,0.45846370147065674,-1.4861261084775115,1st,3rd,1st,-1.2475766999350768,0.2720075584819585,-1.5100407109788843
mem,resp,702,0,mem2.2.2.bmp,mem3.2.1.bmp,mem2.2.2.bmp,ACC019,"[0, 0, 0]","[3, 0, -3]","[0, 0, 0]",match,1.591751709536137,,-2.621814875107734,-1.6699515297462753,-1.4421396022906245,1st,1st,1st,-1.2475766999350768,-1.1715146098375644,-1.5100407109788843
mem,resp,745,0,mem1.2.3.bmp,mem1.1.2.bmp,mem1.3.2.bmp,ACC019,"[-3, 0, 3]","[-3, -3, 0]","[-3, 3, 0]",non-match,1.0144014403465114,3,-0.7281882445872723,0.47347161576249025,-1.485024713667955,1st,3rd,1st,-1.2475766999350768,0.2720075584819585,-1.5100407109788843
mem,resp,607,1,mem2.2.1.bmp,mem1.2.2.bmp,mem1.2.2.bmp,ACC019,"[0, 0, -3]","[-3, 0, 0]","[-3, 0, 0]",match,1.591751709536137,,-1.7964281498095767,-0.9682086614925864,-1.5578155515237169,1st,1st,1st,-1.2475766999350768,-1.1715146098375644,-1.5100407109788843
mem,resp,658,1,mem3.3.3.bmp,mem3.1.3.bmp,mem3.1.3.bmp,ACC019,"[3, 3, 3]","[3, -3, 3]","[3, -3, 3]",match,1.4226497308103743,,-2.7271248465810487,-0.84596289610741,-1.5818375754549272,1st,1st,1st,-1.2475766999350768,-1.1715146098375644,-1.5100407109788843
mem,resp,609,0,mem2.2.3.bmp,mem3.1.1.bmp,mem3.1.1.bmp,ACC019,"[0, 0, 3]","[3, -3, -3]","[3, -3, -3]",match,1.2928932188134525,,-0.04947008059325298,0.3411524874850889,-1.5642923693037787,2nd,3rd,1st,-0.3572715434865365,0.2720075584819585,-1.5100407109788843
mem,resp,540,1,mem3.2.1.bmp,mem3.3.2.bmp,mem1.2.3.bmp,ACC019,"[3, 0, -3]","[3, 3, 0]","[-3, 0, 3]",non-match,0.4763966378857265,1,2.0984017124783243,1.6001609645876116,-1.5339995532647783,4th,4th,1st,1.2989455670144114,1.2541321839403718,-1.5100407109788843
mem,resp,883,1,mem1.2.1.bmp,mem2.1.2.bmp,mem2.3.2.bmp,ACC019,"[-3, 0, -3]","[0, -3, 0]","[0, 3, 0]",non-match,0.9226497308103743,2,0.15549838263338236,0.8818973616012448,-1.610514293055948,3rd,4th,1st,0.3052441011882362,1.2541321839403718,-1.5100407109788843
mem,resp,676,0,mem1.3.2.bmp,mem2.1.1.bmp,mem2.1.1.bmp,ACC019,"[-3, 3, 0]","[0, -3, -3]","[0, -3, -3]",match,1.2928932188134525,,0.2791919667351345,0.13597471515025975,-1.640793209961861,3rd,3rd,1st,0.3052441011882362,0.2720075584819585,-1.5100407109788843
mem,resp,568,1,mem3.1.2.bmp,mem3.2.3.bmp,mem3.1.2.bmp,ACC019,"[3, -3, 0]","[3, 0, 3]","[3, -3, 0]",match,1.591751709536137,,0.044680462620622995,0.7863020232660475,-1.796013599300322,3rd,4th,1st,0.3052441011882362,1.2541321839403718,-1.5100407109788843
mem,resp,619,1,mem1.1.2.bmp,mem2.1.3.bmp,mem2.1.3.bmp,ACC019,"[-3, -3, 0]","[0, -3, 3]","[0, -3, 3]",match,1.591751709536137,,-0.8888378561846452,0.35929276318537107,-1.7426768370406467,1st,3rd,1st,-1.2475766999350768,0.2720075584819585,-1.5100407109788843
mem,resp,540,1,mem3.2.2.bmp,mem3.3.3.bmp,mem3.2.2.bmp,ACC019,"[3, 0, 0]","[3, 3, 3]","[3, 0, 0]",match,1.591751709536137,,0.3698412112120547,1.8536935666778165,-1.733430843572151,3rd,4th,1st,0.3052441011882362,1.2541321839403718,-1.5100407109788843
mem,resp,823,1,mem3.1.3.bmp,mem1.2.1.bmp,mem3.2.1.bmp,ACC019,"[3, -3, 3]","[-3, 0, -3]","[3, 0, -3]",non-match,0.7771525064424715,2,-0.8297050384924098,0.29346306249301374,-1.7632450664256845,1st,3rd,1st,-1.2475766999350768,0.2720075584819585,-1.5100407109788843
mem,resp,654,1,mem3.1.1.bmp,mem1.2.2.bmp,mem3.3.2.bmp,ACC019,"[3, -3, -3]","[-3, 0, 0]","[3, 3, 0]",non-match,0.7090055512641944,2,1.3666097749935564,1.2787364487806039,-1.809203529818225,4th,4th,1st,1.2989455670144114,1.2541321839403718,-1.5100407109788843
mem,resp,757,0,mem3.3.1.bmp,mem1.1.2.bmp,mem2.3.2.bmp,ACC019,"[3, 3, -3]","[-3, -3, 0]","[0, 3, 0]",non-match,0.9462544851682343,3,-1.0057451674278655,-0.9370676117845073,-1.8176333823297948,1st,1st,1st,-1.2475766999350768,-1.1715146098375644,-1.5100407109788843
mem,resp,719,1,mem2.3.1.bmp,mem1.3.3.bmp,mem2.1.3.bmp,ACC019,"[0, 3, -3]","[-3, 3, 3]","[0, -3, 3]",non-match,0.5380061947043713,1,-1.1235476079136137,-2.1870508986754627,-1.9720768918239138,1st,1st,1st,-1.2475766999350768,-1.1715146098375644,-1.5100407109788843
mem,resp,592,1,mem2.3.3.bmp,mem3.1.2.bmp,mem1.3.1.bmp,ACC019,"[0, 3, 3]","[3, -3, 0]","[-3, 3, -3]",non-match,0.4884773718476586,1,0.5503627447207011,-1.098626562609091,-1.9538442244205951,3rd,1st,1st,0.3052441011882362,-1.1715146098375644,-1.5100407109788843
mem,resp,703,0,mem1.3.2.bmp,mem2.2.2.bmp,mem2.2.3.bmp,ACC019,"[-3, 3, 0]","[0, 0, 0]","[0, 0, 3]",non-match,1.2113248654051871,4,-0.5178145340121224,-0.18943983307096876,-2.01158039143729,2nd,2nd,1st,-0.3572715434865365,-0.3556843322527513,-1.5100407109788843
mem,resp,804,1,mem3.1.3.bmp,mem3.2.3.bmp,mem3.2.3.bmp,ACC019,"[3, -3, 3]","[3, 0, 3]","[3, 0, 3]",match,1.7113248654051871,,-0.3474173633836506,-0.4919512576877684,-1.9112527731934557,2nd,2nd,1st,-0.3572715434865365,-0.3556843322527513,-1.5100407109788843
mem,resp,747,0,mem3.2.2.bmp,mem2.1.3.bmp,mem3.2.2.bmp,ACC019,"[3, 0, 0]","[0, -3, 3]","[3, 0, 0]",match,1.5,,-2.0326935174826137,-1.0625002643677035,-1.7818062948911368,1st,1st,1st,-1.2475766999350768,-1.1715146098375644,-1.5100407109788843
mem,resp,910,1,mem3.3.3.bmp,mem1.3.1.bmp,mem3.3.3.bmp,ACC019,"[3, 3, 3]","[-3, 3, -3]","[3, 3, 3]",match,1.1835034190722742,,-0.39135819885137474,0.8062183785662569,-1.6822223748737426,2nd,4th,1st,-0.3572715434865365,1.2541321839403718,-1.5100407109788843
mem,resp,662,1,mem1.2.3.bmp,mem3.3.1.bmp,mem3.3.1.bmp,ACC019,"[-3, 0, 3]","[3, 3, -3]","[3, 3, -3]",match,1.1339745962155614,,-0.41997458715271063,0.12968483259477903,-1.585209230827196,2nd,3rd,1st,-0.3572715434865365,0.2720075584819585,-1.5100407109788843
mem,resp,665,1,mem2.2.1.bmp,mem3.2.1.bmp,mem2.2.1.bmp,ACC019,"[0, 0, -3]","[3, 0, -3]","[0, 0, -3]",match,1.7113248654051871,,-0.3801432097944935,-0.745677688737127,-1.7680471247620155,2nd,1st,1st,-0.3572715434865365,-1.1715146098375644,-1.5100407109788843
mem,resp,564,1,mem1.3.3.bmp,mem2.3.3.bmp,mem2.1.1.bmp,ACC019,"[-3, 3, 3]","[0, 3, 3]","[0, -3, -3]",non-match,0.3174780152878355,1,0.09191762026336472,-1.3653730737285918,-1.7747565890627375,3rd,1st,1st,0.3052441011882362,-1.1715146098375644,-1.5100407109788843
mem,resp,568,0,mem2.3.2.bmp,mem3.1.1.bmp,mem3.2.2.bmp,ACC019,"[0, 3, 0]","[3, -3, -3]","[3, 0, 0]",non-match,1.1835034190722742,4,-0.6684590584437348,-0.1097833193552191,-1.7419349633026833,2nd,2nd,1st,-0.3572715434865365,-0.3556843322527513,-1.5100407109788843
mem,resp,758,1,mem1.2.2.bmp,mem2.2.3.bmp,mem1.2.2.bmp,ACC019,"[-3, 0, 0]","[0, 0, 3]","[-3, 0, 0]",match,1.591751709536137,,2.076597944009588,1.8387427436354404,-1.57508835088675,4th,4th,1st,1.2989455670144114,1.2541321839403718,-1.5100407109788843
mem,resp,701,0,mem3.1.2.bmp,mem1.1.1.bmp,mem1.1.1.bmp,ACC019,"[3, -3, 0]","[-3, -3, -3]","[-3, -3, -3]",match,1.3545027756320973,,-0.31869803654617795,-0.11886291164128736,-1.577653359493823,2nd,2nd,1st,-0.3572715434865365,-0.3556843322527513,-1.5100407109788843
mem,resp,511,1,mem2.2.2.bmp,mem1.3.2.bmp,mem1.3.2.bmp,ACC019,"[0, 0, 0]","[-3, 3, 0]","[-3, 3, 0]",match,1.591751709536137,,-0.8757511310033225,-1.0133109178587314,-1.7761109594309377,1st,1st,1st,-1.2475766999350768,-1.1715146098375644,-1.5100407109788843
mem,resp,710,0,mem2.1.2.bmp,mem3.2.2.bmp,mem2.1.3.bmp,ACC019,"[0, -3, 0]","[3, 0, 0]","[0, -3, 3]",non-match,1.2113248654051871,4,-0.6938734675923175,-1.5495097970556801,-1.8113699087424888,2nd,1st,1st,-0.3572715434865365,-1.1715146098375644,-1.5100407109788843
mem,resp,654,1,mem2.1.3.bmp,mem1.1.1.bmp,mem2.1.3.bmp,ACC019,"[0, -3, 3]","[-3, -3, -3]","[0, -3, 3]",match,1.3545027756320973,,0.26285600919190527,-0.9284563396428297,-1.849607267803775,3rd,1st,1st,0.3052441011882362,-1.1715146098375644,-1.5100407109788843
mem,resp,493,1,mem3.1.2.bmp,mem3.1.1.bmp,mem1.1.2.bmp,ACC019,"[3, -3, 0]","[3, -3, -3]","[-3, -3, 0]",non-match,0.7771525064424715,2,1.8650189218629005,1.783715947095776,-1.7727459833649384,4th,4th,1st,1.2989455670144114,1.2541321839403718,-1.5100407109788843
mem,resp,560,0,mem2.2.2.bmp,mem3.3.2.bmp,mem1.2.1.bmp,ACC019,"[0, 0, 0]","[3, 3, 0]","[-3, 0, -3]",non-match,0.8846449283495895,2,0.13281898328033712,0.007912010390844684,-1.7379088870789032,3rd,3rd,1st,0.3052441011882362,0.2720075584819585,-1.5100407109788843
mem,resp,683,1,mem3.3.3.bmp,mem1.1.3.bmp,mem3.3.1.bmp,ACC019,"[3, 3, 3]","[-3, -3, 3]","[3, 3, -3]",non-match,0.42264973081037427,1,0.6913685677331998,1.1511320367335358,-1.6573413031324749,4th,4th,1st,1.2989455670144114,1.2541321839403718,-1.5100407109788843
mem,resp,735,1,mem2.1.2.bmp,mem2.3.3.bmp,mem2.3.3.bmp,ACC019,"[0, -3, 0]","[0, 3, 3]","[0, 3, 3]",match,1.3545027756320973,,-1.1682259606064134,-1.6906010234040232,-1.724359589232661,1st,1st,1st,-1.2475766999350768,-1.1715146098375644,-1.5100407109788843
mem,resp,1220,0,mem2.2.3.bmp,mem2.2.1.bmp,mem3.1.2.bmp,ACC019,"[0, 0, 3]","[0, 0, -3]","[3, -3, 0]",non-match,1.0,3,-1.293501002568427,-1.743495490182062,-1.6833013455116503,1st,1st,1st,-1.2475766999350768,-1.1715146098375644,-1.5100407109788843
mem,resp,853,1,mem2.3.2.bmp,mem2.3.1.bmp,mem1.3.1.bmp,ACC019,"[0, 3, 0]","[0, 3, -3]","[-3, 3, -3]",non-match,1.3030765749413242,4,-1.868228360120245,-0.6572579807729072,-1.637775131434485,1st,2nd,1st,-1.2475766999350768,-0.3556843322527513,-1.5100407109788843
mem,resp,576,1,mem1.3.2.bmp,mem3.2.1.bmp,mem1.3.2.bmp,ACC019,"[-3, 3, 0]","[3, 0, -3]","[-3, 3, 0]",match,1.2928932188134525,,-0.5854715151992432,-0.1363791424797928,-1.5718603766620187,2nd,2nd,1st,-0.3572715434865365,-0.3556843322527513,-1.5100407109788843
mem,resp,728,0,mem3.3.1.bmp,mem2.1.3.bmp,mem1.1.1.bmp,ACC019,"[3, 3, -3]","[0, -3, 3]","[-3, -3, -3]",non-match,0.5380061947043713,1,-0.835557686426156,-1.37221559150479,-1.672119419009834,1st,1st,1st,-1.2475766999350768,-1.1715146098375644,-1.5100407109788843
mem,resp,569,1,mem1.3.3.bmp,mem1.2.2.bmp,mem1.2.2.bmp,ACC019,"[-3, 3, 3]","[-3, 0, 0]","[-3, 0, 0]",match,1.591751709536137,,-0.13154234856614816,-0.16090470458900638,-1.7077194041695696,2nd,2nd,1st,-0.3572715434865365,-0.3556843322527513,-1.5100407109788843
mem,resp,668,1,mem1.2.1.bmp,mem2.3.2.bmp,mem2.3.1.bmp,ACC019,"[-3, 0, -3]","[0, 3, 0]","[0, 3, -3]",non-match,1.3030765749413242,4,-0.12921234908361984,-0.3312399374142737,-1.6496813180722485,2nd,2nd,1st,-0.3572715434865365,-0.3556843322527513,-1.5100407109788843
mem,resp,579,1,mem1.1.3.bmp,mem1.1.2.bmp,mem1.1.3.bmp,ACC019,"[-3, -3, 3]","[-3, -3, 0]","[-3, -3, 3]",match,1.7113248654051871,,-1.2618930231119663,-0.5761861145580479,-1.600685457286109,1st,2nd,1st,-1.2475766999350768,-0.3556843322527513,-1.5100407109788843
mem,resp,661,1,mem3.3.2.bmp,mem3.2.2.bmp,mem3.2.2.bmp,ACC019,"[3, 3, 0]","[3, 0, 0]","[3, 0, 0]",match,1.7113248654051871,,-0.8760582570237093,-1.0516690359751453,-1.5850068497502272,1st,1st,1st,-1.2475766999350768,-1.1715146098375644,-1.5100407109788843
mem,resp,579,1,mem2.1.1.bmp,mem3.1.3.bmp,mem3.1.3.bmp,ACC019,"[0, -3, -3]","[3, -3, 3]","[3, -3, 3]",match,1.3545027756320973,,-1.3454786590204928,-1.6284759871883674,-1.3371723825345747,1st,1st,1st,-1.2475766999350768,-1.1715146098375644,-1.5100407109788843
mem,resp,531,1,mem1.3.1.bmp,mem1.3.2.bmp,mem1.3.1.bmp,ACC019,"[-3, 3, -3]","[-3, 3, 0]","[-3, 3, -3]",match,1.7113248654051871,,-1.2015483430932283,-0.11440734592742614,-1.4021577269240293,1st,2nd,1st,-1.2475766999350768,-0.3556843322527513,-1.5100407109788843
mem,resp,896,1,mem1.1.1.bmp,mem3.2.3.bmp,mem2.1.3.bmp,ACC019,"[-3, -3, -3]","[3, 0, 3]","[0, -3, 3]",non-match,0.9462544851682343,3,0.14105561163108368,-2.0426464325161935,-1.4261521241022186,3rd,1st,1st,0.3052441011882362,-1.1715146098375644,-1.5100407109788843
mem,resp,675,1,mem2.3.1.bmp,mem1.3.3.bmp,mem2.3.1.bmp,ACC019,"[0, 3, -3]","[-3, 3, 3]","[0, 3, -3]",match,1.3545027756320973,,-1.5715595579558599,-1.0013613312725245,-1.536307905604072,1st,1st,1st,-1.2475766999350768,-1.1715146098375644,-1.5100407109788843
mem,resp,445,1,mem3.2.1.bmp,mem2.1.1.bmp,mem3.2.1.bmp,ACC019,"[3, 0, -3]","[0, -3, -3]","[3, 0, -3]",match,1.591751709536137,,0.9652736429858102,0.7977069379752967,-1.5693995930608031,4th,4th,1st,1.2989455670144114,1.2541321839403718,-1.5100407109788843
mem,resp,756,1,mem3.1.1.bmp,mem2.2.2.bmp,mem3.3.2.bmp,ACC019,"[3, -3, -3]","[0, 0, 0]","[3, 3, 0]",non-match,0.9462544851682343,3,-1.8422173707375373,-0.8724796587905015,-1.5426572563128718,1st,1st,1st,-1.2475766999350768,-1.1715146098375644,-1.5100407109788843
mem,resp,537,1,mem3.1.3.bmp,mem2.1.2.bmp,mem3.3.1.bmp,ACC019,"[3, -3, 3]","[0, -3, 0]","[3, 3, -3]",non-match,0.4763966378857265,1,1.379862803875838,1.5428145234953783,-1.6077383425715246,4th,4th,1st,1.2989455670144114,1.2541321839403718,-1.5100407109788843
mem,resp,607,0,mem2.3.3.bmp,mem3.3.3.bmp,mem2.3.3.bmp,ACC019,"[0, 3, 3]","[3, 3, 3]","[0, 3, 3]",match,1.7113248654051871,,0.08774606391930613,-0.3102395255515908,-1.5626908838704805,3rd,2nd,1st,0.3052441011882362,-0.3556843322527513,-1.5100407109788843
mem,resp,469,1,mem1.2.3.bmp,mem2.2.3.bmp,mem3.1.2.bmp,ACC019,"[-3, 0, 3]","[0, 0, 3]","[3, -3, 0]",non-match,0.7928932188134524,2,-0.2194759973869818,-0.3351239655468818,-1.424342758553314,2nd,2nd,1st,-0.3572715434865365,-0.3556843322527513,-1.5100407109788843
mem,resp,618,1,mem1.2.2.bmp,mem3.3.2.bmp,mem3.3.2.bmp,ACC019,"[-3, 0, 0]","[3, 3, 0]","[3, 3, 0]",match,1.3545027756320973,,0.43968223223262215,0.172511083271707,-1.3842367712785897,3rd,3rd,1st,0.3052441011882362,0.2720075584819585,-1.5100407109788843
mem,resp,739,0,mem2.2.1.bmp,mem1.3.3.bmp,mem2.2.1.bmp,ACC019,"[0, 0, -3]","[-3, 3, 3]","[0, 0, -3]",match,1.2928932188134525,,-1.0184453045258173,-0.6099071964858748,-1.4461514852668853,1st,2nd,1st,-1.2475766999350768,-0.3556843322527513,-1.5100407109788843
mem,resp,650,1,mem3.2.2.bmp,mem2.3.3.bmp,mem1.1.1.bmp,ACC019,"[3, 0, 0]","[0, 3, 3]","[-3, -3, -3]",non-match,0.42686781502901383,1,1.0194908026348397,-0.06143468837601663,-1.449403163902005,4th,2nd,1st,1.2989455670144114,-0.3556843322527513,-1.5100407109788843
mem,resp,772,1,mem3.2.3.bmp,mem1.3.1.bmp,mem2.1.1.bmp,ACC019,"[3, 0, 3]","[-3, 3, -3]","[0, -3, -3]",non-match,0.6473959944455496,1,0.27066575788543035,0.35233310025988007,-1.4583943582216685,3rd,3rd,1st,0.3052441011882362,0.2720075584819585,-1.5100407109788843
mem,resp,500,1,mem1.1.2.bmp,mem1.2.2.bmp,mem2.3.2.bmp,ACC019,"[-3, -3, 0]","[-3, 0, 0]","[0, 3, 0]",non-match,0.9462544851682343,3,0.9356950037532296,-0.404221515184038,-1.524353349694082,4th,2nd,1st,1.2989455670144114,-0.3556843322527513,-1.5100407109788843
mem,resp,481,1,mem1.3.2.bmp,mem2.1.3.bmp,mem3.1.1.bmp,ACC019,"[-3, 3, 0]","[0, -3, 3]","[3, -3, -3]",non-match,0.4884773718476586,1,0.40389649283979373,-0.9959145864576712,-1.4629734818745315,3rd,1st,1st,0.3052441011882362,-1.1715146098375644,-1.5100407109788843
mem,resp,620,1,mem3.2.2.bmp,mem1.2.1.bmp,mem2.1.2.bmp,ACC019,"[3, 0, 0]","[-3, 0, -3]","[0, -3, 0]",non-match,1.091751709536137,4,0.7607967713281805,-0.6595411879815014,-1.374116193304719,4th,1st,1st,1.2989455670144114,-1.1715146098375644,-1.5100407109788843
mem,resp,701,1,mem1.1.1.bmp,mem2.1.1.bmp,mem2.2.3.bmp,ACC019,"[-3, -3, -3]","[0, -3, -3]","[0, 0, 3]",non-match,0.6473959944455496,1,-0.7357689699277599,-1.3882843694459621,-1.2668919847859772,1st,1st,1st,-1.2475766999350768,-1.1715146098375644,-1.5100407109788843
mem,resp,743,0,mem2.2.1.bmp,mem2.3.2.bmp,mem2.2.1.bmp,ACC019,"[0, 0, -3]","[0, 3, 0]","[0, 0, -3]",match,1.591751709536137,,-1.7661692027660165,0.3032148313146722,-1.2720478167427849,1st,3rd,1st,-1.2475766999350768,0.2720075584819585,-1.5100407109788843
mem,resp,664,1,mem2.3.3.bmp,mem1.1.2.bmp,mem1.1.2.bmp,ACC019,"[0, 3, 3]","[-3, -3, 0]","[-3, -3, 0]",match,1.2928932188134525,,-1.6439370216780251,-0.9041656017604014,-1.1023143169768288,1st,1st,1st,-1.2475766999350768,-1.1715146098375644,-1.5100407109788843
mem,resp,704,1,mem2.2.2.bmp,mem1.3.2.bmp,mem1.3.2.bmp,ACC019,"[0, 0, 0]","[-3, 3, 0]","[-3, 3, 0]",match,1.591751709536137,,-0.31963463602460646,0.45030579948377664,-1.0631155752135162,2nd,3rd,1st,-0.3572715434865365,0.2720075584819585,-1.5100407109788843
mem,resp,656,1,mem1.1.3.bmp,mem3.2.1.bmp,mem3.2.1.bmp,ACC019,"[-3, -3, 3]","[3, 0, -3]","[3, 0, -3]",match,1.1339745962155614,,0.1026667389995839,-0.5343744316417894,-0.9444879598139426,3rd,2nd,1st,0.3052441011882362,-0.3556843322527513,-1.5100407109788843
mem,resp,687,1,mem2.2.3.bmp,mem2.3.1.bmp,mem1.3.1.bmp,ACC019,"[0, 0, 3]","[0, 3, -3]","[-3, 3, -3]",non-match,1.0042180842186395,3,-0.13006306685729208,-1.4830406754274825,-0.8656270675052318,2nd,1st,1st,-0.3572715434865365,-1.1715146098375644,-1.5100407109788843
mem,resp,668,1,mem2.3.2.bmp,mem3.3.3.bmp,mem2.1.1.bmp,ACC019,"[0, 3, 0]","[3, 3, 3]","[0, -3, -3]",non-match,0.4884773718476586,1,-0.08582561616573567,-0.19942850974165546,-0.7478885493072949,2nd,2nd,1st,-0.3572715434865365,-0.3556843322527513,-1.5100407109788843
mem,resp,620,0,mem3.3.1.bmp,mem3.2.3.bmp,mem3.2.2.bmp,ACC019,"[3, 3, -3]","[3, 0, 3]","[3, 0, 0]",non-match,1.3030765749413242,4,-0.7846347493453074,0.22584561391616825,-0.7120780321229546,1st,3rd,1st,-1.2475766999350768,0.2720075584819585,-1.5100407109788843
mem,resp,1103,1,mem2.1.2.bmp,mem3.1.2.bmp,mem2.1.2.bmp,ACC019,"[0, -3, 0]","[3, -3, 0]","[0, -3, 0]",match,1.7113248654051871,,1.5487681729366698,3.445308943441044,-0.5917358939511856,4th,4th,1st,1.2989455670144114,1.2541321839403718,-1.5100407109788843
mem,resp,564,1,mem1.2.1.bmp,mem1.1.3.bmp,mem1.1.3.bmp,ACC019,"[-3, 0, -3]","[-3, -3, 3]","[-3, -3, 3]",match,1.3545027756320973,,0.6131049636236854,0.4927294943433581,-0.505613212781003,3rd,3rd,2nd,0.3052441011882362,0.2720075584819585,-0.08374174884616166
mem,resp,967,1,mem1.2.2.bmp,mem1.3.2.bmp,mem1.3.2.bmp,ACC019,"[-3, 0, 0]","[-3, 3, 0]","[-3, 3, 0]",match,1.7113248654051871,,-1.2936584967899707,0.08881869745239085,-0.26082830267106133,1st,3rd,2nd,-1.2475766999350768,0.2720075584819585,-0.08374174884616166
mem,resp,564,1,mem2.1.3.bmp,mem3.1.1.bmp,mem3.1.1.bmp,ACC019,"[0, -3, 3]","[3, -3, -3]","[3, -3, -3]",match,1.3545027756320973,,-0.5051293444741813,-0.6445179851114597,-0.2278065338125591,2nd,2nd,2nd,-0.3572715434865365,-0.3556843322527513,-0.08374174884616166
mem,resp,807,1,mem3.1.2.bmp,mem2.1.1.bmp,mem2.1.1.bmp,ACC019,"[3, -3, 0]","[0, -3, -3]","[0, -3, -3]",match,1.591751709536137,,0.564784142376627,-0.7968231137625433,-0.2469799883085516,3rd,1st,2nd,0.3052441011882362,-1.1715146098375644,-0.08374174884616166
mem,resp,848,0,mem3.2.1.bmp,mem1.2.2.bmp,mem1.1.2.bmp,ACC019,"[3, 0, -3]","[-3, 0, 0]","[-3, -3, 0]",non-match,1.0042180842186395,3,0.01697763456755778,-0.7672461220685283,-0.11240080965894717,3rd,1st,2nd,0.3052441011882362,-1.1715146098375644,-0.08374174884616166
mem,resp,720,1,mem2.1.2.bmp,mem1.3.3.bmp,mem2.1.2.bmp,ACC019,"[0, -3, 0]","[-3, 3, 3]","[0, -3, 0]",match,1.2928932188134525,,-0.8351735586273941,-1.436269720480141,-0.08912906653240005,1st,1st,2nd,-1.2475766999350768,-1.1715146098375644,-0.08374174884616166
mem,resp,831,0,mem3.2.2.bmp,mem3.1.3.bmp,mem3.1.1.bmp,ACC019,"[3, 0, 0]","[3, -3, 3]","[3, -3, -3]",non-match,1.0144014403465114,3,-0.4363466961595791,0.6889318555042687,-0.07826589235018284,2nd,4th,2nd,-0.3572715434865365,1.2541321839403718,-0.08374174884616166
mem,resp,722,1,mem1.3.2.bmp,mem1.2.3.bmp,mem1.2.3.bmp,ACC019,"[-3, 3, 0]","[-3, 0, 3]","[-3, 0, 3]",match,1.591751709536137,,0.3505425024118572,0.40005200850669304,-0.05845984043646891,3rd,3rd,2nd,0.3052441011882362,0.2720075584819585,-0.08374174884616166
mem,resp,987,1,mem2.1.1.bmp,mem3.3.2.bmp,mem3.3.2.bmp,ACC019,"[0, -3, -3]","[3, 3, 0]","[3, 3, 0]",match,1.2928932188134525,,-0.5198792987398927,-0.21510182879678919,0.033145660199319416,2nd,2nd,2nd,-0.3572715434865365,-0.3556843322527513,-0.08374174884616166
mem,resp,669,0,mem2.3.2.bmp,mem3.2.3.bmp,mem3.1.2.bmp,ACC019,"[0, 3, 0]","[3, 0, 3]","[3, -3, 0]",non-match,0.9462544851682343,3,-0.666773932616929,-1.2068529231624268,0.0064351460748228876,2nd,1st,2nd,-0.3572715434865365,-1.1715146098375644,-0.08374174884616166
mem,resp,576,1,mem1.1.2.bmp,mem1.1.3.bmp,mem1.1.3.bmp,ACC019,"[-3, -3, 0]","[-3, -3, 3]","[-3, -3, 3]",match,1.7113248654051871,,-0.13678206136813104,0.4030471633904405,-0.08423298230519315,2nd,3rd,2nd,-0.3572715434865365,0.2720075584819585,-0.08374174884616166
mem,resp,577,0,mem2.3.3.bmp,mem2.1.3.bmp,mem2.3.3.bmp,ACC019,"[0, 3, 3]","[0, -3, 3]","[0, 3, 3]",match,1.4226497308103743,,0.41698221750750486,0.4784501185687872,0.05765751188241108,3rd,3rd,2nd,0.3052441011882362,0.2720075584819585,-0.08374174884616166
mem,resp,1063,1,mem3.3.2.bmp,mem1.3.2.bmp,mem1.2.1.bmp,ACC019,"[3, 3, 0]","[-3, 3, 0]","[-3, 0, -3]",non-match,0.8846449283495895,2,-0.4685501260425805,-1.6465329586946769,0.03140174116017568,2nd,1st,2nd,-0.3572715434865365,-1.1715146098375644,-0.08374174884616166
mem,resp,753,1,mem2.2.2.bmp,mem2.2.3.bmp,mem2.2.3.bmp,ACC019,"[0, 0, 0]","[0, 0, 3]","[0, 0, 3]",match,1.7113248654051871,,0.14366982366184186,-0.41095033881028314,0.03913980342015211,3rd,2nd,2nd,0.3052441011882362,-0.3556843322527513,-0.08374174884616166
mem,resp,715,1,mem1.2.2.bmp,mem3.2.1.bmp,mem1.2.2.bmp,ACC019,"[-3, 0, 0]","[3, 0, -3]","[-3, 0, 0]",match,1.3545027756320973,,0.3777939791967364,0.6511714634961742,-0.03429580785441743,3rd,4th,2nd,0.3052441011882362,1.2541321839403718,-0.08374174884616166
mem,resp,736,1,mem3.3.1.bmp,mem1.3.1.bmp,mem1.3.1.bmp,ACC019,"[3, 3, -3]","[-3, 3, -3]","[-3, 3, -3]",match,1.4226497308103743,,-0.2948460208711279,0.49674765565785856,-0.09944673771144752,2nd,3rd,2nd,-0.3572715434865365,0.2720075584819585,-0.08374174884616166
mem,resp,699,1,mem3.2.3.bmp,mem3.1.2.bmp,mem3.2.3.bmp,ACC019,"[3, 0, 3]","[3, -3, 0]","[3, 0, 3]",match,1.591751709536137,,0.26851454956473436,0.17462814765170043,-0.10662776771862956,3rd,3rd,2nd,0.3052441011882362,0.2720075584819585,-0.08374174884616166
mem,resp,871,1,mem3.1.1.bmp,mem3.3.3.bmp,mem3.1.1.bmp,ACC019,"[3, -3, -3]","[3, 3, 3]","[3, -3, -3]",match,1.1835034190722742,,-0.4421481843095675,1.7969836200902616,-0.12772335104277252,2nd,4th,2nd,-0.3572715434865365,1.2541321839403718,-0.08374174884616166
mem,resp,634,1,mem1.2.1.bmp,mem1.1.1.bmp,mem1.2.3.bmp,ACC019,"[-3, 0, -3]","[-3, -3, -3]","[-3, 0, 3]",non-match,0.7771525064424715,2,-0.9075263055990214,-0.19623030587032858,0.07060952236301234,1st,2nd,2nd,-1.2475766999350768,-0.3556843322527513,-0.08374174884616166
mem,resp,785,1,mem2.3.1.bmp,mem1.1.2.bmp,mem1.1.2.bmp,ACC019,"[0, 3, -3]","[-3, -3, 0]","[-3, -3, 0]",match,1.2928932188134525,,-0.2941514291157769,-0.7864514543009553,-0.060167581963185425,2nd,1st,2nd,-0.3572715434865365,-1.1715146098375644,-0.08374174884616166
mem,resp,676,1,mem3.1.3.bmp,mem3.3.1.bmp,mem3.1.3.bmp,ACC019,"[3, -3, 3]","[3, 3, -3]","[3, -3, 3]",match,1.1835034190722742,,0.6830290472999607,0.14239331346980116,0.032811821015341205,3rd,3rd,2nd,0.3052441011882362,0.2720075584819585,-0.08374174884616166
mem,resp,979,0,mem2.2.1.bmp,mem2.3.3.bmp,mem1.3.1.bmp,ACC019,"[0, 0, -3]","[0, 3, 3]","[-3, 3, -3]",non-match,0.9462544851682343,3,-0.7385873341254049,0.479833800009803,0.12762864815995786,1st,3rd,2nd,-1.2475766999350768,0.2720075584819585,-0.08374174884616166
mem,resp,943,1,mem3.3.3.bmp,mem2.2.2.bmp,mem3.3.3.bmp,ACC019,"[3, 3, 3]","[0, 0, 0]","[3, 3, 3]",match,1.5,,-1.0434417383295764,-0.43961749080661705,0.28560779024977084,1st,2nd,3rd,-1.2475766999350768,-0.3556843322527513,0.47112169255107017
mem,resp,565,1,mem1.1.1.bmp,mem1.2.1.bmp,mem3.2.3.bmp,ACC019,"[-3, -3, -3]","[-3, 0, -3]","[3, 0, 3]",non-match,0.3174780152878355,1,-0.1543824154160861,-0.2362316856913181,0.39152897510904566,2nd,2nd,3rd,-0.3572715434865365,-0.3556843322527513,0.47112169255107017
mem,resp,646,1,mem1.2.3.bmp,mem3.3.1.bmp,mem3.3.1.bmp,ACC019,"[-3, 0, 3]","[3, 3, -3]","[3, 3, -3]",match,1.1339745962155614,,-1.4560570549589917,-0.271788048136052,0.42110179640450324,1st,2nd,3rd,-1.2475766999350768,-0.3556843322527513,0.47112169255107017
mem,resp,645,1,mem1.1.3.bmp,mem3.3.2.bmp,mem1.1.3.bmp,ACC019,"[-3, -3, 3]","[3, 3, 0]","[-3, -3, 3]",match,1.1339745962155614,,-0.5607765581283635,-0.8010074439509228,0.36631215902812386,2nd,1st,3rd,-0.3572715434865365,-1.1715146098375644,0.47112169255107017
mem,resp,575,1,mem1.3.1.bmp,mem1.2.2.bmp,mem1.2.2.bmp,ACC019,"[-3, 3, -3]","[-3, 0, 0]","[-3, 0, 0]",match,1.591751709536137,,0.12347163495110705,0.2615497312232081,0.2949447761339638,3rd,3rd,3rd,0.3052441011882362,0.2720075584819585,0.47112169255107017
mem,resp,747,1,mem2.2.3.bmp,mem2.1.1.bmp,mem2.2.3.bmp,ACC019,"[0, 0, 3]","[0, -3, -3]","[0, 0, 3]",match,1.3545027756320973,,-1.1873153066177295,-0.03311664728649645,0.3723330827827678,1st,3rd,3rd,-1.2475766999350768,0.2720075584819585,0.47112169255107017
mem,resp,546,0,mem1.3.3.bmp,mem2.3.1.bmp,mem1.3.2.bmp,ACC019,"[-3, 3, 3]","[0, 3, -3]","[-3, 3, 0]",non-match,1.3030765749413242,4,-0.582692286151615,0.9792206478625561,0.40731167656278217,2nd,4th,3rd,-0.3572715434865365,1.2541321839403718,0.47112169255107017
mem,resp,697,0,mem1.3.3.bmp,mem1.1.1.bmp,mem1.1.1.bmp,ACC019,"[-3, 3, 3]","[-3, -3, -3]","[-3, -3, -3]",match,1.1835034190722742,,0.44525520626993903,1.4329830445471523,0.4463218013697699,3rd,4th,3rd,0.3052441011882362,1.2541321839403718,0.47112169255107017
mem,resp,659,1,mem2.3.2.bmp,mem3.2.1.bmp,mem2.3.3.bmp,ACC019,"[0, 3, 0]","[3, 0, -3]","[0, 3, 3]",non-match,1.0042180842186395,3,0.01949302941791238,0.8122953670190599,0.42462317108835723,3rd,4th,3rd,0.3052441011882362,1.2541321839403718,0.47112169255107017
mem,resp,720,1,mem1.3.1.bmp,mem3.1.1.bmp,mem1.1.3.bmp,ACC019,"[-3, 3, -3]","[3, -3, -3]","[-3, -3, 3]",non-match,0.36700683814454815,1,-0.3854625960115206,-0.8973109533959573,0.29328432693483386,2nd,1st,3rd,-0.3572715434865365,-1.1715146098375644,0.47112169255107017
mem,resp,690,1,mem2.2.1.bmp,mem2.1.2.bmp,mem3.3.1.bmp,ACC019,"[0, 0, -3]","[0, -3, 0]","[3, 3, -3]",non-match,0.8846449283495895,2,-0.3571178702628646,-1.7046910211132822,0.5717837751110737,2nd,1st,3rd,-0.3572715434865365,-1.1715146098375644,0.47112169255107017
mem,resp,570,1,mem3.2.2.bmp,mem1.1.2.bmp,mem2.3.1.bmp,ACC019,"[3, 0, 0]","[-3, -3, 0]","[0, 3, -3]",non-match,0.7928932188134524,2,0.6431103742807895,0.5149294475313332,0.5877487488696865,3rd,3rd,3rd,0.3052441011882362,0.2720075584819585,0.47112169255107017
mem,resp,731,1,mem3.3.2.bmp,mem1.2.3.bmp,mem1.2.3.bmp,ACC019,"[3, 3, 0]","[-3, 0, 3]","[-3, 0, 3]",match,1.2928932188134525,,0.3961509624176717,-0.3854197936027175,0.5677563141619854,3rd,2nd,3rd,0.3052441011882362,-0.3556843322527513,0.47112169255107017
mem,resp,512,1,mem2.2.2.bmp,mem3.3.3.bmp,mem2.2.2.bmp,ACC019,"[0, 0, 0]","[3, 3, 3]","[0, 0, 0]",match,1.5,,0.8184037996905531,-0.2962586547086066,0.5249471905903962,4th,2nd,3rd,1.2989455670144114,-0.3556843322527513,0.47112169255107017
mem,resp,583,0,mem1.2.1.bmp,mem2.1.3.bmp,mem1.1.1.bmp,ACC019,"[-3, 0, -3]","[0, -3, 3]","[-3, -3, -3]",non-match,1.0658276410372842,3,-0.9753903965498033,2.2270941956079655,0.6041076534527885,1st,4th,3rd,-1.2475766999350768,1.2541321839403718,0.47112169255107017
mem,resp,762,1,mem3.2.3.bmp,mem3.1.2.bmp,mem1.3.1.bmp,ACC019,"[3, 0, 3]","[3, -3, 0]","[-3, 3, -3]",non-match,0.2679491924311228,1,0.3217638277012614,0.05762046533638072,0.6086012314397453,3rd,3rd,3rd,0.3052441011882362,0.2720075584819585,0.47112169255107017
mem,resp,935,1,mem3.2.1.bmp,mem3.1.3.bmp,mem3.1.3.bmp,ACC019,"[3, 0, -3]","[3, -3, 3]","[3, -3, 3]",match,1.3545027756320973,,-1.20141548640316,-0.5364250545175095,0.607242265528367,1st,2nd,3rd,-1.2475766999350768,-0.3556843322527513,0.47112169255107017
mem,resp,567,1,mem1.2.2.bmp,mem2.2.3.bmp,mem2.2.1.bmp,ACC019,"[-3, 0, 0]","[0, 0, 3]","[0, 0, -3]",non-match,1.0144014403465114,3,0.48450624407809995,-0.2329569868383954,0.6615523318890322,3rd,2nd,3rd,0.3052441011882362,-0.3556843322527513,0.47112169255107017
mem,resp,1008,1,mem1.2.3.bmp,mem2.3.3.bmp,mem1.2.3.bmp,ACC019,"[-3, 0, 3]","[0, 3, 3]","[-3, 0, 3]",match,1.591751709536137,,0.2781437346488362,-0.8368574669055284,0.6881788112132525,3rd,1st,3rd,0.3052441011882362,-1.1715146098375644,0.47112169255107017
mem,resp,637,1,mem2.1.2.bmp,mem2.1.1.bmp,mem2.1.1.bmp,ACC019,"[0, -3, 0]","[0, -3, -3]","[0, -3, -3]",match,1.7113248654051871,,-0.9858578337315456,1.1082000943183317,0.6510222153230353,1st,4th,3rd,-1.2475766999350768,1.2541321839403718,0.47112169255107017
mem,resp,535,1,mem1.2.2.bmp,mem1.1.3.bmp,mem1.1.3.bmp,ACC019,"[-3, 0, 0]","[-3, -3, 3]","[-3, -3, 3]",match,1.591751709536137,,-0.4651344869384908,0.6243123747011984,0.5537822214481619,2nd,4th,3rd,-0.3572715434865365,1.2541321839403718,0.47112169255107017
mem,resp,948,1,mem1.2.3.bmp,mem3.1.2.bmp,mem1.2.3.bmp,ACC019,"[-3, 0, 3]","[3, -3, 0]","[-3, 0, 3]",match,1.2928932188134525,,0.12679990558938925,2.4597137416980237,0.5477472113450255,3rd,4th,3rd,0.3052441011882362,1.2541321839403718,0.47112169255107017
mem,resp,770,1,mem3.2.2.bmp,mem1.2.1.bmp,mem2.3.3.bmp,ACC019,"[3, 0, 0]","[-3, 0, -3]","[0, 3, 3]",non-match,0.7928932188134524,2,0.6927217626067258,-0.823053964405979,0.5022223959888611,4th,1st,3rd,1.2989455670144114,-1.1715146098375644,0.47112169255107017
mem,resp,733,0,mem3.2.1.bmp,mem1.1.2.bmp,mem2.1.3.bmp,ACC019,"[3, 0, -3]","[-3, -3, 0]","[0, -3, 3]",non-match,0.8846449283495895,2,0.21248068181778365,1.5724477990352326,0.40194238466563165,3rd,4th,3rd,0.3052441011882362,1.2541321839403718,0.47112169255107017
mem,resp,482,1,mem1.3.1.bmp,mem1.3.2.bmp,mem3.2.3.bmp,ACC019,"[-3, 3, -3]","[-3, 3, 0]","[3, 0, 3]",non-match,0.42686781502901383,1,1.0379092820200406,-0.1854930358182904,0.31512091059325525,4th,2nd,3rd,1.2989455670144114,-0.3556843322527513,0.47112169255107017
mem,resp,654,1,mem3.3.2.bmp,mem3.3.1.bmp,mem3.3.2.bmp,ACC019,"[3, 3, 0]","[3, 3, -3]","[3, 3, 0]",match,1.7113248654051871,,-0.5678177142393818,0.05851957437951025,0.2515893743900101,2nd,3rd,3rd,-0.3572715434865365,0.2720075584819585,0.47112169255107017
mem,resp,714,1,mem3.1.3.bmp,mem3.3.3.bmp,mem2.2.3.bmp,ACC019,"[3, -3, 3]","[3, 3, 3]","[0, 0, 3]",non-match,1.1835034190722742,4,-0.00947599076600179,-0.731007764018385,0.10899522777330814,2nd,1st,2nd,-0.3572715434865365,-1.1715146098375644,-0.08374174884616166
mem,resp,713,1,mem2.2.2.bmp,mem1.2.2.bmp,mem2.2.2.bmp,ACC019,"[0, 0, 0]","[-3, 0, 0]","[0, 0, 0]",match,1.7113248654051871,,-0.5564938283800114,-0.7758892996758019,0.12038672894903593,2nd,1st,2nd,-0.3572715434865365,-1.1715146098375644,-0.08374174884616166
mem,resp,949,0,mem2.1.3.bmp,mem1.3.3.bmp,mem2.1.3.bmp,ACC019,"[0, -3, 3]","[-3, 3, 3]","[0, -3, 3]",match,1.3545027756320973,,-1.446427591558312,0.4060570078110007,0.14050087367140385,1st,3rd,2nd,-1.2475766999350768,0.2720075584819585,-0.08374174884616166
mem,resp,498,1,mem2.3.1.bmp,mem2.3.2.bmp,mem2.3.1.bmp,ACC019,"[0, 3, -3]","[0, 3, 0]","[0, 3, -3]",match,1.7113248654051871,,-1.0464621790731514,-1.8934725665392607,0.09105278710226875,1st,1st,2nd,-1.2475766999350768,-1.1715146098375644,-0.08374174884616166
mem,resp,487,0,mem1.3.2.bmp,mem2.3.3.bmp,mem1.3.2.bmp,ACC019,"[-3, 3, 0]","[0, 3, 3]","[-3, 3, 0]",match,1.591751709536137,,-0.2880714199157726,0.6014799900719189,-0.08189119437995694,2nd,4th,2nd,-0.3572715434865365,1.2541321839403718,-0.08374174884616166
mem,resp,457,1,mem3.3.1.bmp,mem2.2.3.bmp,mem2.2.3.bmp,ACC019,"[3, 3, -3]","[0, 0, 3]","[0, 0, 3]",match,1.2928932188134525,,1.6250761681771064,0.6187157132659613,0.07401075432755033,4th,4th,2nd,1.2989455670144114,1.2541321839403718,-0.08374174884616166
mem,resp,738,1,mem1.2.1.bmp,mem2.2.2.bmp,mem1.1.1.bmp,ACC019,"[-3, 0, -3]","[0, 0, 0]","[-3, -3, -3]",non-match,1.2113248654051871,4,-0.19633540233176855,0.18139012691688755,-0.017790627565398506,2nd,3rd,2nd,-0.3572715434865365,0.2720075584819585,-0.08374174884616166
mem,resp,568,1,mem1.1.3.bmp,mem3.3.2.bmp,mem3.3.2.bmp,ACC019,"[-3, -3, 3]","[3, 3, 0]","[3, 3, 0]",match,1.1339745962155614,,-1.5620510242712076,-1.8616055454016354,-0.07937440909639824,1st,1st,2nd,-1.2475766999350768,-1.1715146098375644,-0.08374174884616166
mem,resp,517,1,mem2.1.1.bmp,mem3.2.1.bmp,mem3.2.1.bmp,ACC019,"[0, -3, -3]","[3, 0, -3]","[3, 0, -3]",match,1.591751709536137,,0.6881520768386238,0.3659418622155436,-0.08780893512580315,3rd,3rd,2nd,0.3052441011882362,0.2720075584819585,-0.08374174884616166
mem,resp,659,1,mem3.1.2.bmp,mem1.2.3.bmp,mem1.3.3.bmp,ACC019,"[3, -3, 0]","[-3, 0, 3]","[-3, 3, 3]",non-match,0.8452994616207485,2,-0.5925347873825729,0.5034753593371488,-0.0961798796280397,2nd,3rd,2nd,-0.3572715434865365,0.2720075584819585,-0.08374174884616166
mem,resp,900,0,mem3.3.3.bmp,mem2.3.1.bmp,mem3.3.3.bmp,ACC019,"[3, 3, 3]","[0, 3, -3]","[3, 3, 3]",match,1.3545027756320973,,-1.2613912567419943,0.8137284823977908,-0.15631571165425423,1st,4th,2nd,-1.2475766999350768,1.2541321839403718,-0.08374174884616166
mem,resp,561,1,mem3.2.3.bmp,mem3.1.3.bmp,mem3.2.3.bmp,ACC019,"[3, 0, 3]","[3, -3, 3]","[3, 0, 3]",match,1.7113248654051871,,-1.0008452710208882,-1.3619253170257495,-0.34405367886094174,1st,1st,2nd,-1.2475766999350768,-1.1715146098375644,-0.08374174884616166
mem,resp,571,1,mem2.2.1.bmp,mem3.1.1.bmp,mem1.2.1.bmp,ACC019,"[0, 0, -3]","[3, -3, -3]","[-3, 0, -3]",non-match,1.0658276410372842,3,-0.5753174868374709,-0.8957054182766188,-0.22303478177418798,2nd,1st,2nd,-0.3572715434865365,-1.1715146098375644,-0.08374174884616166
mem,resp,721,0,mem1.1.1.bmp,mem2.2.2.bmp,mem1.1.1.bmp,ACC019,"[-3, -3, -3]","[0, 0, 0]","[-3, -3, -3]",match,1.5,,1.5553023810395898,0.649563115486808,-0.056028316346476564,4th,4th,2nd,1.2989455670144114,1.2541321839403718,-0.08374174884616166
mem,resp,592,1,mem1.1.2.bmp,mem1.2.3.bmp,mem1.1.2.bmp,ACC019,"[-3, -3, 0]","[-3, 0, 3]","[-3, -3, 0]",match,1.591751709536137,,-0.8822934371505281,-1.9001099883318082,-0.09212012561791057,1st,1st,2nd,-1.2475766999350768,-1.1715146098375644,-0.08374174884616166
mem,resp,814,0,mem2.3.2.bmp,mem2.2.3.bmp,mem2.3.2.bmp,ACC019,"[0, 3, 0]","[0, 0, 3]","[0, 3, 0]",match,1.591751709536137,,-0.9139066567131661,0.5545680687198173,-0.14320267897437008,1st,4th,2nd,-1.2475766999350768,1.2541321839403718,-0.08374174884616166
mem,resp,917,1,mem1.3.3.bmp,mem2.1.2.bmp,mem1.2.2.bmp,ACC019,"[-3, 3, 3]","[0, -3, 0]","[-3, 0, 0]",non-match,1.1835034190722742,4,0.9870702263677693,-0.20810679638372342,-0.17896760519816926,4th,2nd,2nd,1.2989455670144114,-0.3556843322527513,-0.08374174884616166
mem,resp,539,1,mem3.1.1.bmp,mem3.2.2.bmp,mem3.1.1.bmp,ACC019,"[3, -3, -3]","[3, 0, 0]","[3, -3, -3]",match,1.591751709536137,,0.27669087074683885,0.8196952993244951,-0.16957182000337398,3rd,4th,2nd,0.3052441011882362,1.2541321839403718,-0.08374174884616166
mem,resp,560,1,mem2.3.3.bmp,mem2.3.1.bmp,mem1.1.1.bmp,ACC019,"[0, 3, 3]","[0, 3, -3]","[-3, -3, -3]",non-match,0.4884773718476586,1,0.8689187777344644,-1.0921480341047853,-0.21722533125020066,4th,1st,2nd,1.2989455670144114,-1.1715146098375644,-0.08374174884616166
mem,resp,600,1,mem2.2.3.bmp,mem2.1.3.bmp,mem2.1.1.bmp,ACC019,"[0, 0, 3]","[0, -3, 3]","[0, -3, -3]",non-match,0.7771525064424715,2,0.11909853104648334,-0.40822957093066004,-0.36830447991698484,3rd,2nd,2nd,0.3052441011882362,-0.3556843322527513,-0.08374174884616166
mem,resp,639,0,mem1.3.2.bmp,mem3.3.3.bmp,mem3.2.3.bmp,ACC019,"[-3, 3, 0]","[3, 3, 3]","[3, 0, 3]",non-match,1.0042180842186395,3,-0.24078191078871905,-1.008206616359514,-0.1891407929454459,2nd,1st,2nd,-0.3572715434865365,-1.1715146098375644,-0.08374174884616166
mem,resp,579,1,mem2.2.2.bmp,mem3.2.1.bmp,mem1.2.1.bmp,ACC019,"[0, 0, 0]","[3, 0, -3]","[-3, 0, -3]",non-match,1.0144014403465114,3,-0.4953823120390759,-0.44129329608610063,-0.3234144111300612,2nd,2nd,2nd,-0.3572715434865365,-0.3556843322527513,-0.08374174884616166
mem,resp,558,1,mem3.1.2.bmp,mem3.1.3.bmp,mem3.1.3.bmp,ACC019,"[3, -3, 0]","[3, -3, 3]","[3, -3, 3]",match,1.7113248654051871,,-1.2727418838572497,0.31751457449666853,-0.2478784426912063,1st,3rd,2nd,-1.2475766999350768,0.2720075584819585,-0.08374174884616166
mem,resp,771,1,mem2.1.2.bmp,mem3.3.2.bmp,mem2.1.2.bmp,ACC019,"[0, -3, 0]","[3, 3, 0]","[0, -3, 0]",match,1.3545027756320973,,0.9070028416376826,1.1375056030567237,-0.3218895270541994,4th,4th,2nd,1.2989455670144114,1.2541321839403718,-0.08374174884616166
mem,resp,673,0,mem3.1.1.bmp,mem1.3.3.bmp,mem1.3.2.bmp,ACC019,"[3, -3, -3]","[-3, 3, 3]","[-3, 3, 0]",non-match,0.8452994616207485,2,-1.3619518128107058,0.8089776153215416,-0.39493308642704944,1st,4th,2nd,-1.2475766999350768,1.2541321839403718,-0.08374174884616166
mem,resp,509,0,mem1.3.1.bmp,mem1.2.2.bmp,mem1.2.3.bmp,ACC019,"[-3, 3, -3]","[-3, 0, 0]","[-3, 0, 3]",non-match,1.0658276410372842,3,0.060300523177539395,0.7102578333424193,-0.402497929267779,3rd,4th,2nd,0.3052441011882362,1.2541321839403718,-0.08374174884616166
mem,resp,570,1,mem3.1.3.bmp,mem1.2.1.bmp,mem2.3.3.bmp,ACC019,"[3, -3, 3]","[-3, 0, -3]","[0, 3, 3]",non-match,0.6473959944455496,1,0.2164391437869168,-0.20711379411326872,-0.36137337081781673,3rd,2nd,2nd,0.3052441011882362,-0.3556843322527513,-0.08374174884616166
mem,resp,730,0,mem3.3.3.bmp,mem1.1.2.bmp,mem3.3.2.bmp,ACC019,"[3, 3, 3]","[-3, -3, 0]","[3, 3, 0]",non-match,0.8948282844774612,2,0.16694690794286374,0.4367336050984778,-0.27275599907904363,3rd,3rd,2nd,0.3052441011882362,0.2720075584819585,-0.08374174884616166
mem,resp,617,1,mem2.3.2.bmp,mem1.1.3.bmp,mem3.1.1.bmp,ACC019,"[0, 3, 0]","[-3, -3, 3]","[3, -3, -3]",non-match,0.4763966378857265,1,0.9560378631738767,0.819094486850728,-0.3653754548036722,4th,4th,2nd,1.2989455670144114,1.2541321839403718,-0.08374174884616166
mem,resp,588,1,mem1.2.3.bmp,mem2.2.1.bmp,mem1.3.3.bmp,ACC019,"[-3, 0, 3]","[0, 0, -3]","[-3, 3, 3]",non-match,1.0042180842186395,3,1.7355904897630594,0.5610794924102844,-0.4357432096732577,4th,4th,2nd,1.2989455670144114,1.2541321839403718,-0.08374174884616166
mem,resp,730,1,mem3.2.3.bmp,mem3.3.1.bmp,mem3.2.3.bmp,ACC019,"[3, 0, 3]","[3, 3, -3]","[3, 0, 3]",match,1.3545027756320973,,-1.6137979951586645,-1.254097169239647,-0.5195913258768314,1st,1st,1st,-1.2475766999350768,-1.1715146098375644,-1.5100407109788843
mem,resp,560,1,mem1.1.1.bmp,mem1.3.2.bmp,mem3.2.2.bmp,ACC019,"[-3, -3, -3]","[-3, 3, 0]","[3, 0, 0]",non-match,0.6473959944455496,1,-0.6485287035562783,-0.26735324050878634,-0.33751632290891154,2nd,2nd,2nd,-0.3572715434865365,-0.3556843322527513,-0.08374174884616166
mem,resp,613,1,mem2.3.1.bmp,mem3.1.1.bmp,mem2.2.1.bmp,ACC019,"[0, 3, -3]","[3, -3, -3]","[0, 0, -3]",non-match,1.3030765749413242,4,1.3913346569033422,0.33869350069502013,-0.24989011451659474,4th,3rd,2nd,1.2989455670144114,0.2720075584819585,-0.08374174884616166
mem,resp,461,1,mem1.2.1.bmp,mem3.1.2.bmp,mem3.1.2.bmp,ACC019,"[-3, 0, -3]","[3, -3, 0]","[3, -3, 0]",match,1.2928932188134525,,0.9142079441255608,-0.5137215940145157,-0.1777932058025465,4th,2nd,2nd,1.2989455670144114,-0.3556843322527513,-0.08374174884616166
mem,resp,438,0,mem1.2.3.bmp,mem3.3.3.bmp,mem3.2.1.bmp,ACC019,"[-3, 0, 3]","[3, 3, 3]","[3, 0, -3]",non-match,0.5380061947043713,1,-0.23217285784922417,0.5525870648722908,0.12744175630460752,2nd,3rd,2nd,-0.3572715434865365,0.2720075584819585,-0.08374174884616166
mem,resp,619,1,mem1.1.2.bmp,mem1.2.2.bmp,mem1.1.2.bmp,ACC019,"[-3, -3, 0]","[-3, 0, 0]","[-3, -3, 0]",match,1.7113248654051871,,0.941927137844465,0.4449691220139092,-0.045743360530784684,4th,3rd,2nd,1.2989455670144114,0.2720075584819585,-0.08374174884616166
mem,resp,586,1,mem3.2.2.bmp,mem1.3.2.bmp,mem1.3.2.bmp,ACC019,"[3, 0, 0]","[-3, 3, 0]","[-3, 3, 0]",match,1.3545027756320973,,0.2740256582966589,-0.089754708906668,0.06796960948532642,3rd,2nd,2nd,0.3052441011882362,-0.3556843322527513,-0.08374174884616166
mem,resp,658,1,mem2.1.2.bmp,mem1.1.3.bmp,mem3.1.1.bmp,ACC019,"[0, -3, 0]","[-3, -3, 3]","[3, -3, -3]",non-match,0.7752551286084112,2,0.714897091462708,1.0822329521150247,0.12035966439400374,4th,4th,2nd,1.2989455670144114,1.2541321839403718,-0.08374174884616166
mem,resp,710,1,mem2.2.3.bmp,mem2.3.3.bmp,mem3.1.3.bmp,ACC019,"[0, 0, 3]","[0, 3, 3]","[3, -3, 3]",non-match,0.9462544851682343,3,-1.5535000279858637,-0.7271478017226832,0.3210949327358317,1st,1st,3rd,-1.2475766999350768,-1.1715146098375644,0.47112169255107017
mem,resp,913,1,mem3.2.1.bmp,mem3.3.1.bmp,mem3.3.3.bmp,ACC019,"[3, 0, -3]","[3, 3, -3]","[3, 3, 3]",non-match,0.7771525064424715,2,-0.4738450993442394,-0.4562965482731654,0.3226665530211617,2nd,2nd,3rd,-0.3572715434865365,-0.3556843322527513,0.47112169255107017
mem,resp,724,0,mem2.1.1.bmp,mem1.2.1.bmp,mem2.2.2.bmp,ACC019,"[0, -3, -3]","[-3, 0, -3]","[0, 0, 0]",non-match,1.1835034190722742,4,-1.3880594570335243,-0.5167226872216554,0.3504968664412193,1st,2nd,3rd,-1.2475766999350768,-0.3556843322527513,0.47112169255107017
mem,resp,562,1,mem2.3.2.bmp,mem1.3.3.bmp,mem1.3.3.bmp,ACC019,"[0, 3, 0]","[-3, 3, 3]","[-3, 3, 3]",match,1.591751709536137,,-1.2227311599428314,-0.5373384103277256,0.4819837996153994,1st,2nd,3rd,-1.2475766999350768,-0.3556843322527513,0.47112169255107017
mem,resp,633,1,mem1.3.2.bmp,mem3.1.3.bmp,mem3.1.3.bmp,ACC019,"[-3, 3, 0]","[3, -3, 3]","[3, -3, 3]",match,1.1339745962155614,,1.1592543587986794,0.7763931493272678,0.6633237886196002,4th,4th,3rd,1.2989455670144114,1.2541321839403718,0.47112169255107017
mem,resp,1192,0,mem1.1.1.bmp,mem2.1.2.bmp,mem1.1.1.bmp,ACC019,"[-3, -3, -3]","[0, -3, 0]","[-3, -3, -3]",match,1.591751709536137,,0.17572759513943415,-0.8496522878772444,0.5745873483188297,3rd,1st,3rd,0.3052441011882362,-1.1715146098375644,0.47112169255107017
mem,resp,663,1,mem3.3.1.bmp,mem2.3.1.bmp,mem2.3.1.bmp,ACC019,"[3, 3, -3]","[0, 3, -3]","[0, 3, -3]",match,1.7113248654051871,,0.6849641777173477,0.12118558119394024,0.46355394820143025,3rd,3rd,3rd,0.3052441011882362,0.2720075584819585,0.47112169255107017
mem,resp,752,1,mem3.1.3.bmp,mem1.2.3.bmp,mem3.1.3.bmp,ACC019,"[3, -3, 3]","[-3, 0, 3]","[3, -3, 3]",match,1.3545027756320973,,0.6402288469490284,-0.3533426896246128,0.5857379780501603,3rd,2nd,3rd,0.3052441011882362,-0.3556843322527513,0.47112169255107017
mem,resp,574,1,mem3.3.3.bmp,mem3.3.2.bmp,mem2.3.3.bmp,ACC019,"[3, 3, 3]","[3, 3, 0]","[0, 3, 3]",non-match,1.3030765749413242,4,0.7845669075269421,0.0651431750824848,0.6679307843261293,4th,3rd,3rd,1.2989455670144114,0.2720075584819585,0.47112169255107017
mem,resp,895,1,mem2.1.3.bmp,mem2.2.1.bmp,mem1.3.3.bmp,ACC019,"[0, -3, 3]","[0, 0, -3]","[-3, 3, 3]",non-match,0.6473959944455496,1,-2.31946039567384,-1.8848937223965694,0.7400756396350829,1st,1st,3rd,-1.2475766999350768,-1.1715146098375644,0.47112169255107017
mem,resp,615,0,mem3.2.3.bmp,mem1.1.2.bmp,mem3.1.2.bmp,ACC019,"[3, 0, 3]","[-3, -3, 0]","[3, -3, 0]",non-match,1.0144014403465114,3,0.10622418540350745,-0.6111117645498274,0.8424580328091779,3rd,2nd,4th,0.3052441011882362,-0.3556843322527513,1.1275643108651774
mem,resp,613,1,mem3.1.1.bmp,mem2.1.1.bmp,mem2.1.1.bmp,ACC019,"[3, -3, -3]","[0, -3, -3]","[0, -3, -3]",match,1.7113248654051871,,0.9366901369713195,-0.7536338179550514,0.8388188439547986,4th,1st,4th,1.2989455670144114,-1.1715146098375644,1.1275643108651774
mem,resp,784,1,mem1.3.1.bmp,mem3.3.2.bmp,mem3.1.3.bmp,ACC019,"[-3, 3, -3]","[3, 3, 0]","[3, -3, 3]",non-match,0.3545027756320972,1,-0.741172165656654,-1.455675403572126,0.8811966656178459,1st,1st,4th,-1.2475766999350768,-1.1715146098375644,1.1275643108651774
mem,resp,866,1,mem2.2.1.bmp,mem2.3.1.bmp,mem3.2.1.bmp,ACC019,"[0, 0, -3]","[0, 3, -3]","[3, 0, -3]",non-match,1.3030765749413242,4,-0.617446214016725,-0.04772476656045593,0.8715481330379041,2nd,3rd,4th,-0.3572715434865365,0.2720075584819585,1.1275643108651774
mem,resp,417,1,mem2.2.2.bmp,mem2.3.3.bmp,mem3.3.1.bmp,ACC019,"[0, 0, 0]","[0, 3, 3]","[3, 3, -3]",non-match,0.8545027756320972,2,1.37248949621426,0.00017177048257276922,0.7936419403309076,4th,3rd,3rd,1.2989455670144114,0.2720075584819585,0.47112169255107017
mem,resp,538,1,mem1.2.2.bmp,mem3.2.2.bmp,mem2.3.2.bmp,ACC019,"[-3, 0, 0]","[3, 0, 0]","[0, 3, 0]",non-match,1.1835034190722742,4,-0.3056441944737267,-1.0803669995353973,0.76719585210431,2nd,1st,3rd,-0.3572715434865365,-1.1715146098375644,0.47112169255107017
mem,resp,568,0,mem1.3.3.bmp,mem2.1.3.bmp,mem1.1.2.bmp,ACC019,"[-3, 3, 3]","[0, -3, 3]","[-3, -3, 0]",non-match,0.9462544851682343,3,1.6603077679871416,0.13772391602325268,0.8613812445896593,4th,3rd,4th,1.2989455670144114,0.2720075584819585,1.1275643108651774
mem,resp,516,1,mem3.3.2.bmp,mem3.1.2.bmp,mem1.1.1.bmp,ACC019,"[3, 3, 0]","[3, -3, 0]","[-3, -3, -3]",non-match,0.4884773718476586,1,0.9888800390561683,-0.12382604773354182,0.8879150929163396,4th,2nd,4th,1.2989455670144114,-0.3556843322527513,1.1275643108651774
mem,resp,451,1,mem1.1.3.bmp,mem2.2.3.bmp,mem1.1.3.bmp,ACC019,"[-3, -3, 3]","[0, 0, 3]","[-3, -3, 3]",match,1.591751709536137,,1.682067469545409,1.079572479054059,0.6753879231667786,4th,4th,3rd,1.2989455670144114,1.2541321839403718,0.47112169255107017
mem,resp,510,1,mem2.3.3.bmp,mem1.3.2.bmp,mem3.2.2.bmp,ACC019,"[0, 3, 3]","[-3, 3, 0]","[3, 0, 0]",non-match,0.8545027756320972,2,1.665658217092961,0.18776038520039162,0.8244445950622624,4th,3rd,4th,1.2989455670144114,0.2720075584819585,1.1275643108651774
mem,resp,883,1,mem3.2.1.bmp,mem1.2.3.bmp,mem3.2.1.bmp,ACC019,"[3, 0, -3]","[-3, 0, 3]","[3, 0, -3]",match,1.1835034190722742,,-0.403314356363444,0.9264015532704549,0.7431708446231694,2nd,4th,3rd,-0.3572715434865365,1.2541321839403718,0.47112169255107017
mem,resp,541,0,mem2.1.1.bmp,mem2.3.2.bmp,mem2.1.2.bmp,ACC019,"[0, -3, -3]","[0, 3, 0]","[0, -3, 0]",non-match,1.1339745962155614,4,1.1936715983273203,2.5840099346193357,0.7890103620153852,4th,4th,3rd,1.2989455670144114,1.2541321839403718,0.47112169255107017
mem,resp,482,0,mem3.3.3.bmp,mem1.1.3.bmp,mem3.3.3.bmp,ACC019,"[3, 3, 3]","[-3, -3, 3]","[3, 3, 3]",match,1.1835034190722742,,2.352885331833656,0.5535794941466289,0.8726969004944359,4th,3rd,4th,1.2989455670144114,0.2720075584819585,1.1275643108651774
mem,resp,571,0,mem1.3.3.bmp,mem3.3.1.bmp,mem3.2.2.bmp,ACC019,"[-3, 3, 3]","[3, 3, -3]","[3, 0, 0]",non-match,0.8846449283495895,2,-0.4055005399901623,0.761577397096794,0.9967469118013382,2nd,4th,4th,-0.3572715434865365,1.2541321839403718,1.1275643108651774
mem,resp,541,1,mem3.1.1.bmp,mem2.2.2.bmp,mem1.2.1.bmp,ACC019,"[3, -3, -3]","[0, 0, 0]","[-3, 0, -3]",non-match,0.9462544851682343,3,0.8348501848381253,0.3099587351569013,1.0398887715043441,4th,3rd,4th,1.2989455670144114,0.2720075584819585,1.1275643108651774
mem,resp,499,1,mem1.3.1.bmp,mem1.2.2.bmp,mem1.2.2.bmp,ACC019,"[-3, 3, -3]","[-3, 0, 0]","[-3, 0, 0]",match,1.591751709536137,,0.8971455257316137,0.582846312624496,1.0847865218858805,4th,4th,4th,1.2989455670144114,1.2541321839403718,1.1275643108651774
mem,resp,812,1,mem2.3.2.bmp,mem3.3.3.bmp,mem2.3.2.bmp,ACC019,"[0, 3, 0]","[3, 3, 3]","[0, 3, 0]",match,1.591751709536137,,-1.2581442607667173,-0.4901264994631888,0.9179110179147282,1st,2nd,4th,-1.2475766999350768,-0.3556843322527513,1.1275643108651774
mem,resp,631,1,mem3.3.1.bmp,mem3.1.3.bmp,mem3.1.3.bmp,ACC019,"[3, 3, -3]","[3, -3, 3]","[3, -3, 3]",match,1.1835034190722742,,-0.30204040980796454,-0.22975250605506162,1.0008788477521229,2nd,2nd,4th,-0.3572715434865365,-0.3556843322527513,1.1275643108651774
mem,resp,850,1,mem2.2.2.bmp,mem2.1.2.bmp,mem2.1.2.bmp,ACC019,"[0, 0, 0]","[0, -3, 0]","[0, -3, 0]",match,1.7113248654051871,,-0.14714574484186554,-0.07810095761104921,1.1058302078297542,2nd,2nd,4th,-0.3572715434865365,-0.3556843322527513,1.1275643108651774
mem,resp,520,1,mem1.1.3.bmp,mem1.1.1.bmp,mem1.1.3.bmp,ACC019,"[-3, -3, 3]","[-3, -3, -3]","[-3, -3, 3]",match,1.4226497308103743,,1.0035463833428693,0.29945253881161094,1.3073535066559747,4th,3rd,4th,1.2989455670144114,0.2720075584819585,1.1275643108651774
mem,resp,862,1,mem2.2.1.bmp,mem2.1.1.bmp,mem2.2.1.bmp,ACC019,"[0, 0, -3]","[0, -3, -3]","[0, 0, -3]",match,1.7113248654051871,,0.7839384156324021,0.48179553035158185,1.3560590241441726,4th,3rd,4th,1.2989455670144114,0.2720075584819585,1.1275643108651774
mem,resp,532,1,mem1.2.2.bmp,mem1.1.2.bmp,mem3.3.2.bmp,ACC019,"[-3, 0, 0]","[-3, -3, 0]","[3, 3, 0]",non-match,0.5380061947043713,1,1.908652719824609,-0.040927834532142424,1.466229910200116,4th,3rd,4th,1.2989455670144114,0.2720075584819585,1.1275643108651774
mem,resp,957,0,mem3.1.2.bmp,mem3.2.3.bmp,mem3.2.1.bmp,ACC019,"[3, -3, 0]","[3, 0, 3]","[3, 0, -3]",non-match,1.0144014403465114,3,-0.610224144031645,-0.8524606720721851,1.5488816334448676,2nd,1st,4th,-0.3572715434865365,-1.1715146098375644,1.1275643108651774
mem,resp,566,1,mem2.3.2.bmp,mem2.2.1.bmp,mem2.3.2.bmp,ACC019,"[0, 3, 0]","[0, 0, -3]","[0, 3, 0]",match,1.591751709536137,,0.04048902186022446,-0.6504566731378839,1.4172730976301922,3rd,2nd,4th,0.3052441011882362,-0.3556843322527513,1.1275643108651774
mem,resp,554,1,mem3.2.3.bmp,mem1.2.3.bmp,mem3.2.3.bmp,ACC019,"[3, 0, 3]","[-3, 0, 3]","[3, 0, 3]",match,1.4226497308103743,,0.47242727205019985,0.03707964844994625,1.3378145864898952,3rd,3rd,4th,0.3052441011882362,0.2720075584819585,1.1275643108651774
mem,resp,685,1,mem1.1.1.bmp,mem2.2.3.bmp,mem1.1.1.bmp,ACC019,"[-3, -3, -3]","[0, 0, 3]","[-3, -3, -3]",match,1.2928932188134525,,2.054537895532895,1.118024894099607,1.3325212897636582,4th,4th,4th,1.2989455670144114,1.2541321839403718,1.1275643108651774
mem,resp,849,1,mem1.3.3.bmp,mem3.2.2.bmp,mem2.2.2.bmp,ACC019,"[-3, 3, 3]","[3, 0, 0]","[0, 0, 0]",non-match,1.2113248654051871,4,1.0300959438422552,0.2611336318612824,1.3582451614662692,4th,3rd,4th,1.2989455670144114,0.2720075584819585,1.1275643108651774
mem,resp,638,1,mem1.1.3.bmp,mem2.3.2.bmp,mem2.1.1.bmp,ACC019,"[-3, -3, 3]","[0, 3, 0]","[0, -3, -3]",non-match,0.7090055512641944,2,-1.3885772871080528,-0.516091089229248,1.454581757224293,1st,2nd,4th,-1.2475766999350768,-0.3556843322527513,1.1275643108651774
mem,resp,589,1,mem2.1.2.bmp,mem2.3.1.bmp,mem2.3.1.bmp,ACC019,"[0, -3, 0]","[0, 3, -3]","[0, 3, -3]",match,1.3545027756320973,,0.5073395544160573,-0.04562952812345764,1.4141497006564632,3rd,3rd,4th,0.3052441011882362,0.2720075584819585,1.1275643108651774
mem,resp,659,1,mem2.1.3.bmp,mem3.1.3.bmp,mem3.3.3.bmp,ACC019,"[0, -3, 3]","[3, -3, 3]","[3, 3, 3]",non-match,0.7771525064424715,2,-0.19300589634596957,-0.6198937374437623,1.2804781275633077,2nd,2nd,4th,-0.3572715434865365,-0.3556843322527513,1.1275643108651774
mem,resp,577,1,mem3.1.2.bmp,mem1.1.1.bmp,mem1.2.3.bmp,ACC019,"[3, -3, 0]","[-3, -3, -3]","[-3, 0, 3]",non-match,0.6473959944455496,1,0.7527060608546393,1.1359907185275941,1.1920553865515355,4th,4th,4th,1.2989455670144114,1.2541321839403718,1.1275643108651774
mem,resp,980,1,mem1.1.2.bmp,mem3.2.1.bmp,mem2.2.1.bmp,ACC019,"[-3, -3, 0]","[3, 0, -3]","[0, 0, -3]",non-match,1.2113248654051871,4,-0.012648829453783915,1.268261767221739,1.3333299101992704,2nd,4th,4th,-0.3572715434865365,1.2541321839403718,1.1275643108651774
mem,resp,732,1,mem2.2.2.bmp,mem1.3.3.bmp,mem1.3.3.bmp,ACC019,"[0, 0, 0]","[-3, 3, 3]","[-3, 3, 3]",match,1.5,,0.9679999407234962,0.06545092608777466,1.4114635403431923,4th,3rd,4th,1.2989455670144114,0.2720075584819585,1.1275643108651774
mem,resp,623,1,mem1.3.1.bmp,mem1.1.3.bmp,mem2.1.1.bmp,ACC019,"[-3, 3, -3]","[-3, -3, 3]","[0, -3, -3]",non-match,0.7090055512641944,2,0.20647068656992607,0.24953957634292517,1.3656066909657052,3rd,3rd,4th,0.3052441011882362,0.2720075584819585,1.1275643108651774
mem,resp,742,1,mem2.2.3.bmp,mem3.3.1.bmp,mem2.3.2.bmp,ACC019,"[0, 0, 3]","[3, 3, -3]","[0, 3, 0]",non-match,1.1835034190722742,4,-0.14422972630372094,0.3634342749366567,1.2258698030748414,2nd,3rd,4th,-0.3572715434865365,0.2720075584819585,1.1275643108651774
mem,resp,806,1,mem1.2.2.bmp,mem1.2.1.bmp,mem1.2.1.bmp,ACC019,"[-3, 0, 0]","[-3, 0, -3]","[-3, 0, -3]",match,1.7113248654051871,,-0.9360136773495986,0.7631995491035201,1.1750592190545242,1st,4th,4th,-1.2475766999350768,1.2541321839403718,1.1275643108651774
mem,resp,632,0,mem3.2.2.bmp,mem1.1.2.bmp,mem3.2.3.bmp,ACC019,"[3, 0, 0]","[-3, -3, 0]","[3, 0, 3]",non-match,1.0042180842186395,3,0.20900745874927357,0.37386155408949373,1.13967312069372,3rd,3rd,4th,0.3052441011882362,0.2720075584819585,1.1275643108651774
mem,resp,552,1,mem1.3.2.bmp,mem2.3.3.bmp,mem3.3.2.bmp,ACC019,"[-3, 3, 0]","[0, 3, 3]","[3, 3, 0]",non-match,1.0144014403465114,3,1.681210541056303,0.9211194667033548,0.8310042437880768,4th,4th,4th,1.2989455670144114,1.2541321839403718,1.1275643108651774
mem,resp,471,0,mem3.3.1.bmp,mem1.3.1.bmp,mem1.3.1.bmp,ACC019,"[3, 3, -3]","[-3, 3, -3]","[-3, 3, -3]",match,1.4226497308103743,,0.9806955833675318,1.394086922144959,0.7967699539013714,4th,4th,3rd,1.2989455670144114,1.2541321839403718,0.47112169255107017
mem,resp,562,1,mem3.3.3.bmp,mem3.1.2.bmp,mem3.1.2.bmp,ACC019,"[3, 3, 3]","[3, -3, 0]","[3, -3, 0]",match,1.3545027756320973,,-0.6678349040682178,-0.5825309526501875,0.6230769516444573,2nd,2nd,3rd,-0.3572715434865365,-0.3556843322527513,0.47112169255107017
mem,resp,641,0,mem3.1.1.bmp,mem2.1.2.bmp,mem1.1.3.bmp,ACC019,"[3, -3, -3]","[0, -3, 0]","[-3, -3, 3]",non-match,0.7752551286084112,2,-0.23385403831277607,-0.13428593557448157,0.5082982972857013,2nd,2nd,3rd,-0.3572715434865365,-0.3556843322527513,0.47112169255107017
mem,resp,914,0,mem2.2.1.bmp,mem2.2.2.bmp,mem2.2.1.bmp,ACC019,"[0, 0, -3]","[0, 0, 0]","[0, 0, -3]",match,1.7113248654051871,,0.43263365903531226,-0.4496660585941506,0.3422813668198374,3rd,2nd,3rd,0.3052441011882362,-0.3556843322527513,0.47112169255107017
mem,resp,586,1,mem3.2.1.bmp,mem3.3.2.bmp,mem3.2.1.bmp,ACC019,"[3, 0, -3]","[3, 3, 0]","[3, 0, -3]",match,1.591751709536137,,0.8945980803869866,-0.34729244967235423,0.33039213068337375,4th,2nd,3rd,1.2989455670144114,-0.3556843322527513,0.47112169255107017
mem,resp,504,0,mem2.3.1.bmp,mem3.2.3.bmp,mem2.1.3.bmp,ACC019,"[0, 3, -3]","[3, 0, 3]","[0, -3, 3]",non-match,0.7752551286084112,2,-0.2045717127483923,1.635890970901021,0.40039575962981827,2nd,4th,3rd,-0.3572715434865365,1.2541321839403718,0.47112169255107017
mem,resp,875,1,mem1.2.3.bmp,mem2.1.1.bmp,mem2.1.1.bmp,ACC019,"[-3, 0, 3]","[0, -3, -3]","[0, -3, -3]",match,1.2928932188134525,,-0.7520119249085595,0.8758916330291521,0.4862761949076883,1st,4th,3rd,-1.2475766999350768,1.2541321839403718,0.47112169255107017
mem,resp,1049,1,mem1.2.1.bmp,mem1.3.2.bmp,mem1.2.1.bmp,ACC019,"[-3, 0, -3]","[-3, 3, 0]","[-3, 0, -3]",match,1.591751709536137,,0.36638584156419346,-1.4966198853525956,0.3307090850525982,3rd,1st,3rd,0.3052441011882362,-1.1715146098375644,0.47112169255107017
mem,resp,825,0,mem2.3.3.bmp,mem1.3.1.bmp,mem2.2.3.bmp,ACC019,"[0, 3, 3]","[-3, 3, -3]","[0, 0, 3]",non-match,1.0042180842186395,3,-0.8333645662199082,-0.8203710142700662,0.19828811556973622,1st,1st,3rd,-1.2475766999350768,-1.1715146098375644,0.47112169255107017
mem,resp,1208,1,mem3.3.2.bmp,mem2.2.1.bmp,mem3.3.3.bmp,ACC019,"[3, 3, 0]","[0, 0, -3]","[3, 3, 3]",non-match,1.0042180842186395,3,-0.08151563618547565,0.08224549436241951,0.1885790881762651,2nd,3rd,3rd,-0.3572715434865365,0.2720075584819585,0.47112169255107017
mem,resp,830,0,mem2.1.1.bmp,mem1.1.3.bmp,mem1.2.3.bmp,ACC019,"[0, -3, -3]","[-3, -3, 3]","[-3, 0, 3]",non-match,1.0042180842186395,3,1.2682856415553976,-0.7108972802383233,0.23548200115702284,4th,1st,3rd,1.2989455670144114,-1.1715146098375644,0.47112169255107017
mem,resp,521,1,mem3.1.3.bmp,mem3.1.1.bmp,mem3.1.3.bmp,ACC019,"[3, -3, 3]","[3, -3, -3]","[3, -3, 3]",match,1.4226497308103743,,1.1586417984467898,-0.2088951348593599,0.1735380933896634,4th,2nd,2nd,1.2989455670144114,-0.3556843322527513,-0.08374174884616166
mem,resp,752,0,mem3.2.2.bmp,mem2.2.2.bmp,mem2.2.3.bmp,ACC019,"[3, 0, 0]","[0, 0, 0]","[0, 0, 3]",non-match,1.3030765749413242,4,0.7859903009851003,0.8989607171452352,0.12417427894786572,4th,4th,2nd,1.2989455670144114,1.2541321839403718,-0.08374174884616166
mem,resp,541,1,mem2.2.1.bmp,mem3.2.3.bmp,mem1.2.2.bmp,ACC019,"[0, 0, -3]","[3, 0, 3]","[-3, 0, 0]",non-match,0.9462544851682343,3,0.6869229983129699,0.7036519694737892,0.0027839547613951296,3rd,4th,2nd,0.3052441011882362,1.2541321839403718,-0.08374174884616166
mem,resp,620,1,mem2.1.3.bmp,mem2.3.1.bmp,mem2.3.1.bmp,ACC019,"[0, -3, 3]","[0, 3, -3]","[0, 3, -3]",match,1.1835034190722742,,1.2592623403256746,0.17827552838806102,-0.04817488831162207,4th,3rd,2nd,1.2989455670144114,0.2720075584819585,-0.08374174884616166
mem,resp,724,1,mem2.1.1.bmp,mem2.3.2.bmp,mem3.1.3.bmp,ACC019,"[0, -3, -3]","[0, 3, 0]","[3, -3, 3]",non-match,0.6473959944455496,1,-0.377756263215846,-0.35618667771463036,-0.012273755843572478,2nd,2nd,2nd,-0.3572715434865365,-0.3556843322527513,-0.08374174884616166
mem,resp,773,1,mem3.2.1.bmp,mem2.1.2.bmp,mem2.1.2.bmp,ACC019,"[3, 0, -3]","[0, -3, 0]","[0, -3, 0]",match,1.5,,0.10249747195625325,-0.7657343759954025,0.18638158133350458,3rd,1st,3rd,0.3052441011882362,-1.1715146098375644,0.47112169255107017
mem,resp,391,0,mem3.1.1.bmp,mem2.2.3.bmp,mem2.2.3.bmp,ACC019,"[3, -3, -3]","[0, 0, 3]","[0, 0, 3]",match,1.2928932188134525,,0.7697438146675237,0.49371176595926114,0.24435776948390214,4th,3rd,3rd,1.2989455670144114,0.2720075584819585,0.47112169255107017
mem,resp,643,1,mem3.1.2.bmp,mem1.2.2.bmp,mem3.1.2.bmp,ACC019,"[3, -3, 0]","[-3, 0, 0]","[3, -3, 0]",match,1.3545027756320973,,0.34172424074929647,-0.19328562673541827,0.18418289252098363,3rd,2nd,3rd,0.3052441011882362,-0.3556843322527513,0.47112169255107017
mem,resp,604,1,mem2.3.2.bmp,mem3.2.2.bmp,mem2.3.2.bmp,ACC019,"[0, 3, 0]","[3, 0, 0]","[0, 3, 0]",match,1.591751709536137,,0.09539567325036892,-0.46784411297022577,0.17832727485791963,3rd,2nd,3rd,0.3052441011882362,-0.3556843322527513,0.47112169255107017
mem,resp,703,1,mem1.3.3.bmp,mem3.2.1.bmp,mem2.2.1.bmp,ACC019,"[-3, 3, 3]","[3, 0, -3]","[0, 0, -3]",non-match,1.0042180842186395,3,-1.82725354786835,-1.9147340481298416,0.27636961099648055,1st,1st,3rd,-1.2475766999350768,-1.1715146098375644,0.47112169255107017
mem,resp,725,1,mem2.2.3.bmp,mem1.1.2.bmp,mem1.1.2.bmp,ACC019,"[0, 0, 3]","[-3, -3, 0]","[-3, -3, 0]",match,1.5,,0.5561548167770896,1.7533613215353976,0.24122354089571552,3rd,4th,3rd,0.3052441011882362,1.2541321839403718,0.47112169255107017
mem,resp,846,1,mem1.1.3.bmp,mem2.3.3.bmp,mem1.2.3.bmp,ACC019,"[-3, -3, 3]","[0, 3, 3]","[-3, 0, 3]",non-match,1.3030765749413242,4,-1.5576358807455317,0.39632607521177193,0.1650300128003685,1st,3rd,2nd,-1.2475766999350768,0.2720075584819585,-0.08374174884616166
mem,resp,727,1,mem1.2.2.bmp,mem3.3.1.bmp,mem1.2.2.bmp,ACC019,"[-3, 0, 0]","[3, 3, -3]","[-3, 0, 0]",match,1.2928932188134525,,-0.9733449777779529,-0.7263490451358318,0.260690286384876,1st,1st,3rd,-1.2475766999350768,-1.1715146098375644,0.47112169255107017
mem,resp,556,1,mem1.2.1.bmp,mem1.3.3.bmp,mem2.2.1.bmp,ACC019,"[-3, 0, -3]","[-3, 3, 3]","[0, 0, -3]",non-match,1.0042180842186395,3,1.8483318266866837,0.35827309055020584,0.2237872684857066,4th,3rd,3rd,1.2989455670144114,0.2720075584819585,0.47112169255107017
mem,resp,592,0,mem1.1.1.bmp,mem1.2.3.bmp,mem2.1.3.bmp,ACC019,"[-3, -3, -3]","[-3, 0, 3]","[0, -3, 3]",non-match,0.9462544851682343,3,0.20496476479627768,1.2446275526628001,0.16990569579620135,3rd,4th,2nd,0.3052441011882362,1.2541321839403718,-0.08374174884616166
mem,resp,723,0,mem2.3.2.bmp,mem1.3.3.bmp,mem2.2.3.bmp,ACC019,"[0, 3, 0]","[-3, 3, 3]","[0, 0, 3]",non-match,1.1835034190722742,4,-1.4260131191033907,-1.2727588909401968,0.21641337884999076,1st,1st,3rd,-1.2475766999350768,-1.1715146098375644,0.47112169255107017
mem,resp,713,1,mem1.1.3.bmp,mem2.2.2.bmp,mem2.2.2.bmp,ACC019,"[-3, -3, 3]","[0, 0, 0]","[0, 0, 0]",match,1.5,,-1.6298207978537,-0.5998890626057277,0.10976323752566072,1st,2nd,2nd,-1.2475766999350768,-0.3556843322527513,-0.08374174884616166
mem,resp,582,1,mem2.1.2.bmp,mem1.2.1.bmp,mem3.3.1.bmp,ACC019,"[0, -3, 0]","[-3, 0, -3]","[3, 3, -3]",non-match,0.6473959944455496,1,2.0433144143548447,0.7523179882111549,-0.08077066047167526,4th,4th,2nd,1.2989455670144114,1.2541321839403718,-0.08374174884616166
mem,resp,863,1,mem3.2.2.bmp,mem1.1.1.bmp,mem1.1.1.bmp,ACC019,"[3, 0, 0]","[-3, -3, -3]","[-3, -3, -3]",match,1.2928932188134525,,-0.5774266837404587,-0.8793683092654233,-0.023764536265901758,2nd,1st,2nd,-0.3572715434865365,-1.1715146098375644,-0.08374174884616166
mem,resp,624,1,mem3.3.2.bmp,mem2.2.3.bmp,mem2.3.1.bmp,ACC019,"[3, 3, 0]","[0, 0, 3]","[0, 3, -3]",non-match,0.9462544851682343,3,2.3554659771468036,1.2892739515500955,-0.03606738186806437,4th,4th,2nd,1.2989455670144114,1.2541321839403718,-0.08374174884616166
mem,resp,635,1,mem1.2.2.bmp,mem2.3.2.bmp,mem1.3.1.bmp,ACC019,"[-3, 0, 0]","[0, 3, 0]","[-3, 3, -3]",non-match,1.1835034190722742,4,0.03059667236040154,1.7982777578653846,0.019823380909999484,3rd,4th,2nd,0.3052441011882362,1.2541321839403718,-0.08374174884616166
mem,resp,1026,1,mem3.2.3.bmp,mem2.1.1.bmp,mem2.2.2.bmp,ACC019,"[3, 0, 3]","[0, -3, -3]","[0, 0, 0]",non-match,1.1835034190722742,4,-1.0834425809819976,-1.218340570697362,-0.029447643264139095,1st,1st,2nd,-1.2475766999350768,-1.1715146098375644,-0.08374174884616166
mem,resp,638,1,mem3.3.3.bmp,mem3.2.1.bmp,mem3.1.2.bmp,ACC019,"[3, 3, 3]","[3, 0, -3]","[3, -3, 0]",non-match,0.9462544851682343,3,0.387557960146948,0.734507654093051,-0.03061971063698143,3rd,4th,2nd,0.3052441011882362,1.2541321839403718,-0.08374174884616166
mem,resp,819,1,mem1.3.2.bmp,mem2.3.1.bmp,mem2.3.3.bmp,ACC019,"[-3, 3, 0]","[0, 3, -3]","[0, 3, 3]",non-match,1.0144014403465114,3,-0.7158195198172851,0.2283518989311531,-0.16862074446810096,1st,3rd,2nd,-1.2475766999350768,0.2720075584819585,-0.08374174884616166
mem,resp,761,1,mem1.1.2.bmp,mem3.1.3.bmp,mem1.1.2.bmp,ACC019,"[-3, -3, 0]","[3, -3, 3]","[-3, -3, 0]",match,1.3545027756320973,,0.2740325280476265,-0.2503620824755153,0.05106179212022703,3rd,2nd,2nd,0.3052441011882362,-0.3556843322527513,-0.08374174884616166
mem,resp,839,1,mem1.2.3.bmp,mem3.2.2.bmp,mem3.2.2.bmp,ACC019,"[-3, 0, 3]","[3, 0, 0]","[3, 0, 0]",match,1.3545027756320973,,-0.1610031370960789,-0.714937567016517,0.06191644503258304,2nd,1st,2nd,-0.3572715434865365,-1.1715146098375644,-0.08374174884616166
mem,resp,548,1,mem3.1.2.bmp,mem3.1.1.bmp,mem3.3.1.bmp,ACC019,"[3, -3, 0]","[3, -3, -3]","[3, 3, -3]",non-match,0.7771525064424715,2,2.273153246696534,1.9245754783133155,0.13746120070325168,4th,4th,2nd,1.2989455670144114,1.2541321839403718,-0.08374174884616166
mem,resp,780,1,mem2.2.3.bmp,mem2.3.3.bmp,mem2.3.3.bmp,ACC019,"[0, 0, 3]","[0, 3, 3]","[0, 3, 3]",match,1.7113248654051871,,-0.3190331419989736,0.30818932314815123,0.16267024104719063,2nd,3rd,2nd,-0.3572715434865365,0.2720075584819585,-0.08374174884616166
mem,resp,751,1,mem2.2.1.bmp,mem2.1.3.bmp,mem2.2.1.bmp,ACC019,"[0, 0, -3]","[0, -3, 3]","[0, 0, -3]",match,1.3545027756320973,,0.8649129011184575,-0.5112536476488019,0.24981165327329055,4th,2nd,3rd,1.2989455670144114,-0.3556843322527513,0.47112169255107017
mem,resp,591,1,mem1.3.1.bmp,mem1.2.2.bmp,mem2.2.2.bmp,ACC019,"[-3, 3, -3]","[-3, 0, 0]","[0, 0, 0]",non-match,1.2113248654051871,4,0.3515303042637062,-1.1446084070824765,0.27151104934797565,3rd,1st,3rd,0.3052441011882362,-1.1715146098375644,0.47112169255107017
mem,resp,702,0,mem1.3.3.bmp,mem2.1.2.bmp,mem3.1.3.bmp,ACC019,"[-3, 3, 3]","[0, -3, 0]","[3, -3, 3]",non-match,0.7752551286084112,2,0.48971414147230585,0.18558294786590712,0.4182314497694366,3rd,3rd,3rd,0.3052441011882362,0.2720075584819585,0.47112169255107017
mem,resp,762,1,mem2.3.1.bmp,mem3.2.3.bmp,mem2.1.1.bmp,ACC019,"[0, 3, -3]","[3, 0, 3]","[0, -3, -3]",non-match,0.7155429496238267,2,1.2123625491882988,-0.6081758887188934,0.4151902148359412,4th,2nd,3rd,1.2989455670144114,-0.3556843322527513,0.47112169255107017
mem,resp,634,1,mem3.3.1.bmp,mem3.3.3.bmp,mem1.2.3.bmp,ACC019,"[3, 3, -3]","[3, 3, 3]","[-3, 0, 3]",non-match,0.4884773718476586,1,1.1710050018722802,-0.9285148112920236,0.4384455225279457,4th,1st,3rd,1.2989455670144114,-1.1715146098375644,0.47112169255107017
mem,resp,1045,0,mem3.1.1.bmp,mem2.2.1.bmp,mem3.2.1.bmp,ACC019,"[3, -3, -3]","[0, 0, -3]","[3, 0, -3]",non-match,1.4226497308103743,4,-0.39109550805388477,-0.3949817965285953,0.42217468570872135,2nd,2nd,3rd,-0.3572715434865365,-0.3556843322527513,0.47112169255107017
mem,resp,507,1,mem1.2.1.bmp,mem3.1.2.bmp,mem3.3.2.bmp,ACC019,"[-3, 0, -3]","[3, -3, 0]","[3, 3, 0]",non-match,0.7155429496238267,2,1.2573889638111395,0.34013776345275115,0.3595031936077689,4th,3rd,3rd,1.2989455670144114,0.2720075584819585,0.47112169255107017
mem,resp,808,1,mem2.1.3.bmp,mem1.3.1.bmp,mem2.1.3.bmp,ACC019,"[0, -3, 3]","[-3, 3, -3]","[0, -3, 3]",match,1.1339745962155614,,-2.1809047906629018,-2.0145963111135643,0.5079832937691031,1st,1st,3rd,-1.2475766999350768,-1.1715146098375644,0.47112169255107017
mem,resp,821,1,mem2.1.1.bmp,mem1.3.2.bmp,mem1.1.2.bmp,ACC019,"[0, -3, -3]","[-3, 3, 0]","[-3, -3, 0]",non-match,1.0144014403465114,3,0.4879170386360927,-0.47412844788148456,0.4159810552128142,3rd,2nd,3rd,0.3052441011882362,-0.3556843322527513,0.47112169255107017
mem,resp,480,1,mem3.2.1.bmp,mem3.3.3.bmp,mem1.1.1.bmp,ACC019,"[3, 0, -3]","[3, 3, 3]","[-3, -3, -3]",non-match,0.3545027756320972,1,1.6642027671512158,0.5402183706945453,0.4538951200031669,4th,3rd,3rd,1.2989455670144114,0.2720075584819585,0.47112169255107017
mem,resp,829,0,mem3.1.3.bmp,mem3.3.2.bmp,mem3.3.2.bmp,ACC019,"[3, -3, 3]","[3, 3, 0]","[3, 3, 0]",match,1.3545027756320973,,0.4649233745883115,1.2963447236316934,0.5256105451514343,3rd,4th,3rd,0.3052441011882362,1.2541321839403718,0.47112169255107017
mem,resp,701,0,mem2.3.3.bmp,mem3.2.2.bmp,mem3.2.3.bmp,ACC019,"[0, 3, 3]","[3, 0, 0]","[3, 0, 3]",non-match,1.3030765749413242,4,-1.2641113933892183,-1.55531543277925,0.6157873561800582,1st,1st,3rd,-1.2475766999350768,-1.1715146098375644,0.47112169255107017
mem,resp,590,1,mem2.2.2.bmp,mem1.1.2.bmp,mem1.1.2.bmp,ACC019,"[0, 0, 0]","[-3, -3, 0]","[-3, -3, 0]",match,1.591751709536137,,1.246698313157808,4.70437060500132,0.7940989626685667,4th,4th,3rd,1.2989455670144114,1.2541321839403718,0.47112169255107017
mem,resp,843,1,mem1.2.2.bmp,mem2.2.3.bmp,mem2.2.3.bmp,ACC019,"[-3, 0, 0]","[0, 0, 3]","[0, 0, 3]",match,1.591751709536137,,-0.506271113983816,0.07548877624339613,0.8236757395741532,2nd,3rd,4th,-0.3572715434865365,0.2720075584819585,1.1275643108651774
mem,resp,590,1,mem1.3.3.bmp,mem1.3.1.bmp,mem3.2.1.bmp,ACC019,"[-3, 3, 3]","[-3, 3, -3]","[3, 0, -3]",non-match,0.4884773718476586,1,0.7196185045043192,0.6101832280903473,0.9181580953050914,4th,4th,4th,1.2989455670144114,1.2541321839403718,1.1275643108651774
mem,resp,482,1,mem2.3.3.bmp,mem2.3.2.bmp,mem1.3.2.bmp,ACC019,"[0, 3, 3]","[0, 3, 0]","[-3, 3, 0]",non-match,1.3030765749413242,4,1.0844308339542719,0.5676040429208822,1.0757379073985336,4th,4th,4th,1.2989455670144114,1.2541321839403718,1.1275643108651774
mem,resp,700,0,mem2.2.2.bmp,mem2.1.3.bmp,mem2.2.2.bmp,ACC019,"[0, 0, 0]","[0, -3, 3]","[0, 0, 0]",match,1.591751709536137,,-0.47880941901156115,-0.5962488703661061,1.0839030614587257,2nd,2nd,4th,-0.3572715434865365,-0.3556843322527513,1.1275643108651774
mem,resp,519,1,mem1.1.1.bmp,mem3.2.3.bmp,mem2.1.2.bmp,ACC019,"[-3, -3, -3]","[3, 0, 3]","[0, -3, 0]",non-match,1.091751709536137,4,0.23283565999990605,-0.8780547156676061,0.9400487446336602,3rd,1st,4th,0.3052441011882362,-1.1715146098375644,1.1275643108651774
mem,resp,578,1,mem2.2.3.bmp,mem3.1.3.bmp,mem3.1.3.bmp,ACC019,"[0, 0, 3]","[3, -3, 3]","[3, -3, 3]",match,1.591751709536137,,-0.02564769143941801,-0.6422040184295035,0.9289841566343153,2nd,2nd,4th,-0.3572715434865365,-0.3556843322527513,1.1275643108651774
mem,resp,832,0,mem3.2.2.bmp,mem1.3.2.bmp,mem1.3.3.bmp,ACC019,"[3, 0, 0]","[-3, 3, 0]","[-3, 3, 3]",non-match,1.0042180842186395,3,-0.6841262927428748,-0.5273821600281957,1.0362963800424987,2nd,2nd,4th,-0.3572715434865365,-0.3556843322527513,1.1275643108651774
mem,resp,733,1,mem3.1.2.bmp,mem2.3.1.bmp,mem3.1.2.bmp,ACC019,"[3, -3, 0]","[0, 3, -3]","[3, -3, 0]",match,1.2928932188134525,,0.816239592349889,0.14417897773204671,1.1947713711459569,4th,3rd,4th,1.2989455670144114,0.2720075584819585,1.1275643108651774
mem,resp,660,1,mem1.2.3.bmp,mem3.1.1.bmp,mem1.3.1.bmp,ACC019,"[-3, 0, 3]","[3, -3, -3]","[-3, 3, -3]",non-match,0.5380061947043713,1,-0.9913056432851485,1.007681729619058,1.3234961693627414,1st,4th,4th,-1.2475766999350768,1.2541321839403718,1.1275643108651774
mem,resp,753,1,mem3.3.2.bmp,mem1.1.3.bmp,mem2.1.1.bmp,ACC019,"[3, 3, 0]","[-3, -3, 3]","[0, -3, -3]",non-match,0.6473959944455496,1,0.8397407201459771,0.18168662636206562,1.1063839269186593,4th,3rd,4th,1.2989455670144114,0.2720075584819585,1.1275643108651774
mem,resp,864,1,mem1.2.1.bmp,mem2.1.2.bmp,mem2.2.3.bmp,ACC019,"[-3, 0, -3]","[0, -3, 0]","[0, 0, 3]",non-match,0.9462544851682343,3,0.2377177112637415,0.10096314178623485,1.1171843564506478,3rd,3rd,4th,0.3052441011882362,0.2720075584819585,1.1275643108651774
mem,resp,716,1,mem2.2.1.bmp,mem1.2.2.bmp,mem3.2.2.bmp,ACC019,"[0, 0, -3]","[-3, 0, 0]","[3, 0, 0]",non-match,1.0144014403465114,3,0.8622907946086037,-0.15123229572952807,1.1273035849175321,4th,2nd,4th,1.2989455670144114,-0.3556843322527513,1.1275643108651774
mem,resp,575,0,mem3.1.1.bmp,mem3.3.1.bmp,mem3.1.1.bmp,ACC019,"[3, -3, -3]","[3, 3, -3]","[3, -3, -3]",match,1.4226497308103743,,0.03131927260558816,0.3706266263761342,1.3051922818187618,3rd,3rd,4th,0.3052441011882362,0.2720075584819585,1.1275643108651774
mem,resp,480,1,mem3.2.1.bmp,mem3.1.2.bmp,mem1.2.2.bmp,ACC019,"[3, 0, -3]","[3, -3, 0]","[-3, 0, 0]",non-match,0.7090055512641944,2,2.0527030327680227,1.063963804379014,1.3616561637302902,4th,4th,4th,1.2989455670144114,1.2541321839403718,1.1275643108651774
mem,resp,1102,0,mem2.3.2.bmp,mem3.3.3.bmp,mem3.3.3.bmp,ACC019,"[0, 3, 0]","[3, 3, 3]","[3, 3, 3]",match,1.591751709536137,,-1.705680247585425,0.2770921988014817,1.4429539333802817,1st,3rd,4th,-1.2475766999350768,0.2720075584819585,1.1275643108651774
mem,resp,572,1,mem2.2.3.bmp,mem1.2.1.bmp,mem2.2.3.bmp,ACC019,"[0, 0, 3]","[-3, 0, -3]","[0, 0, 3]",match,1.3545027756320973,,0.39069079567933535,-0.27569715787141,1.228330510173664,3rd,2nd,4th,0.3052441011882362,-0.3556843322527513,1.1275643108651774
mem,resp,763,1,mem3.2.2.bmp,mem1.3.2.bmp,mem2.2.1.bmp,ACC019,"[3, 0, 0]","[-3, 3, 0]","[0, 0, -3]",non-match,1.091751709536137,4,2.017908974204572,0.7902208999806695,1.2280829250552212,4th,4th,4th,1.2989455670144114,1.2541321839403718,1.1275643108651774
mem,resp,665,1,mem1.1.2.bmp,mem2.3.3.bmp,mem2.3.3.bmp,ACC019,"[-3, -3, 0]","[0, 3, 3]","[0, 3, 3]",match,1.2928932188134525,,-0.18529938877783184,-1.08856534983907,1.2537136852080943,2nd,1st,4th,-0.3572715434865365,-1.1715146098375644,1.1275643108651774
mem,resp,524,1,mem1.1.3.bmp,mem1.2.2.bmp,mem1.1.3.bmp,ACC019,"[-3, -3, 3]","[-3, 0, 0]","[-3, -3, 3]",match,1.591751709536137,,-0.5043261387540631,-1.2260443732616597,1.1062344030269948,2nd,1st,4th,-0.3572715434865365,-1.1715146098375644,1.1275643108651774
mem,resp,673,1,mem1.2.1.bmp,mem1.2.3.bmp,mem1.2.3.bmp,ACC019,"[-3, 0, -3]","[-3, 0, 3]","[-3, 0, 3]",match,1.4226497308103743,,-0.6214099377764848,0.8343623330173753,0.9846563695695403,2nd,4th,4th,-0.3572715434865365,1.2541321839403718,1.1275643108651774
mem,resp,664,0,mem3.3.2.bmp,mem3.1.3.bmp,mem3.1.3.bmp,ACC019,"[3, 3, 0]","[3, -3, 3]","[3, -3, 3]",match,1.3545027756320973,,0.6435117402066544,0.8267292433829493,1.0975830895573961,3rd,4th,4th,0.3052441011882362,1.2541321839403718,1.1275643108651774
mem,resp,513,1,mem2.1.2.bmp,mem2.2.2.bmp,mem2.1.2.bmp,ACC019,"[0, -3, 0]","[0, 0, 0]","[0, -3, 0]",match,1.7113248654051871,,0.005642225541393733,-0.6799022664042003,1.142127402813164,3rd,1st,4th,0.3052441011882362,-1.1715146098375644,1.1275643108651774
mem,resp,684,0,mem2.3.1.bmp,mem3.1.1.bmp,mem2.3.1.bmp,ACC019,"[0, 3, -3]","[3, -3, -3]","[0, 3, -3]",match,1.3545027756320973,,-0.20002919633784888,-0.11588671771995188,1.1796901992619084,2nd,2nd,4th,-0.3572715434865365,-0.3556843322527513,1.1275643108651774
mem,resp,521,1,mem1.3.1.bmp,mem3.2.2.bmp,mem1.3.1.bmp,ACC019,"[-3, 3, -3]","[3, 0, 0]","[-3, 3, -3]",match,1.2928932188134525,,0.3065997299055888,0.4276008804452127,1.276313010115344,3rd,3rd,4th,0.3052441011882362,0.2720075584819585,1.1275643108651774
mem,resp,603,1,mem2.1.3.bmp,mem3.2.3.bmp,mem1.3.3.bmp,ACC019,"[0, -3, 3]","[3, 0, 3]","[-3, 3, 3]",non-match,0.7090055512641944,2,2.1347609884480887,0.9233049259834744,1.1775582943579264,4th,4th,4th,1.2989455670144114,1.2541321839403718,1.1275643108651774
mem,resp,750,0,mem3.1.3.bmp,mem1.1.1.bmp,mem1.2.1.bmp,ACC019,"[3, -3, 3]","[-3, -3, -3]","[-3, 0, -3]",non-match,0.8452994616207485,2,0.33707966362250724,0.19214260741129954,1.0638479686650133,3rd,3rd,4th,0.3052441011882362,0.2720075584819585,1.1275643108651774
mem,resp,853,1,mem3.1.1.bmp,mem2.1.1.bmp,mem2.1.1.bmp,ACC019,"[3, -3, -3]","[0, -3, -3]","[0, -3, -3]",match,1.7113248654051871,,-0.7503768341320503,-0.4451827155912623,1.1824328949868566,1st,2nd,4th,-1.2475766999350768,-0.3556843322527513,1.1275643108651774
mem,resp,702,1,mem3.3.3.bmp,mem2.2.1.bmp,mem2.2.1.bmp,ACC019,"[3, 3, 3]","[0, 0, -3]","[0, 0, -3]",match,1.2928932188134525,,0.07949101713764413,-0.1360327923724515,1.295246163774541,3rd,2nd,4th,0.3052441011882362,-0.3556843322527513,1.1275643108651774
mem,resp,673,1,mem3.1.2.bmp,mem1.3.3.bmp,mem2.1.2.bmp,ACC019,"[3, -3, 0]","[-3, 3, 3]","[0, -3, 0]",non-match,1.0042180842186395,3,1.1860700258311647,0.15074124180524254,1.3091677989654629,4th,3rd,4th,1.2989455670144114,0.2720075584819585,1.1275643108651774
mem,resp,643,1,mem1.3.2.bmp,mem3.2.2.bmp,mem1.1.1.bmp,ACC019,"[-3, 3, 0]","[3, 0, 0]","[-3, -3, -3]",non-match,0.6473959944455496,1,1.9203783494305287,0.010819444778162183,1.2414846373950597,4th,3rd,4th,1.2989455670144114,0.2720075584819585,1.1275643108651774
mem,resp,826,0,mem3.3.1.bmp,mem2.3.1.bmp,mem3.3.1.bmp,ACC019,"[3, 3, -3]","[0, 3, -3]","[3, 3, -3]",match,1.7113248654051871,,1.8364398819012038,0.4136575929384364,1.2021732193596437,4th,3rd,4th,1.2989455670144114,0.2720075584819585,1.1275643108651774
mem,resp,523,0,mem2.3.3.bmp,mem3.1.3.bmp,mem3.1.3.bmp,ACC019,"[0, 3, 3]","[3, -3, 3]","[3, -3, 3]",match,1.3545027756320973,,0.06393970563820661,1.130042706291633,1.220039456692783,3rd,4th,4th,0.3052441011882362,1.2541321839403718,1.1275643108651774
mem,resp,654,1,mem3.2.3.bmp,mem3.1.1.bmp,mem3.2.3.bmp,ACC019,"[3, 0, 3]","[3, -3, -3]","[3, 0, 3]",match,1.3545027756320973,,-0.8795504660950783,-1.3789939337159038,1.2012447851982382,1st,1st,4th,-1.2475766999350768,-1.1715146098375644,1.1275643108651774
mem,resp,423,1,mem2.1.1.bmp,mem3.2.1.bmp,mem1.2.1.bmp,ACC019,"[0, -3, -3]","[3, 0, -3]","[-3, 0, -3]",non-match,1.0144014403465114,3,0.49058611956144654,-1.2512974190543757,1.293902098446687,3rd,1st,4th,0.3052441011882362,-1.1715146098375644,1.1275643108651774
mem,resp,492,1,mem1.3.3.bmp,mem1.1.2.bmp,mem1.3.2.bmp,ACC019,"[-3, 3, 3]","[-3, -3, 0]","[-3, 3, 0]",non-match,1.1339745962155614,4,2.177516659625846,-0.29210128138299574,1.0791910908566968,4th,2nd,4th,1.2989455670144114,-0.3556843322527513,1.1275643108651774
mem,resp,709,0,mem1.2.3.bmp,mem3.3.1.bmp,mem1.1.3.bmp,ACC019,"[-3, 0, 3]","[3, 3, -3]","[-3, -3, 3]",non-match,0.7113248654051871,2,0.658916774287411,-0.4454608010248681,1.0942151347307825,3rd,2nd,4th,0.3052441011882362,-0.3556843322527513,1.1275643108651774
mem,resp,720,1,mem2.2.1.bmp,mem1.3.1.bmp,mem2.2.3.bmp,ACC019,"[0, 0, -3]","[-3, 3, -3]","[0, 0, 3]",non-match,0.7155429496238267,2,-0.007712628341667958,-0.17646574245052116,1.1245071365033605,2nd,2nd,4th,-0.3572715434865365,-0.3556843322527513,1.1275643108651774
mem,resp,676,1,mem2.2.2.bmp,mem2.1.3.bmp,mem2.1.3.bmp,ACC019,"[0, 0, 0]","[0, -3, 3]","[0, -3, 3]",match,1.591751709536137,,0.31335960631620696,0.41572959898742506,1.0984128026345195,3rd,3rd,4th,0.3052441011882362,0.2720075584819585,1.1275643108651774
mem,resp,937,1,mem1.2.2.bmp,mem2.3.2.bmp,mem1.2.2.bmp,ACC019,"[-3, 0, 0]","[0, 3, 0]","[-3, 0, 0]",match,1.591751709536137,,-0.012517580268464607,0.24719294888231017,0.9491085872997533,2nd,3rd,4th,-0.3572715434865365,0.2720075584819585,1.1275643108651774
mem,resp,1009,1,mem3.3.3.bmp,mem1.1.3.bmp,mem3.3.3.bmp,ACC019,"[3, 3, 3]","[-3, -3, 3]","[3, 3, 3]",match,1.1835034190722742,,-0.8052214941258732,-0.6225911687542637,0.9449649755802153,1st,2nd,4th,-1.2475766999350768,-0.3556843322527513,1.1275643108651774
mem,resp,767,1,mem1.1.2.bmp,mem2.2.1.bmp,mem3.1.3.bmp,ACC019,"[-3, -3, 0]","[0, 0, -3]","[3, -3, 3]",non-match,0.6473959944455496,1,-0.22041046553900656,-1.4054992364766588,0.7495174474426268,2nd,1st,3rd,-0.3572715434865365,-1.1715146098375644,0.47112169255107017
mem,resp,1061,1,mem1.3.2.bmp,mem2.2.3.bmp,mem2.2.3.bmp,ACC019,"[-3, 3, 0]","[0, 0, 3]","[0, 0, 3]",match,1.5,,-0.8125286880157349,-1.5814866140976593,0.8277339158107535,1st,1st,4th,-1.2475766999350768,-1.1715146098375644,1.1275643108651774
mem,resp,740,1,mem1.1.3.bmp,mem2.1.2.bmp,mem1.1.3.bmp,ACC019,"[-3, -3, 3]","[0, -3, 0]","[-3, -3, 3]",match,1.591751709536137,,-0.8447316251019911,-1.3071926628336006,0.8330744400027001,1st,1st,4th,-1.2475766999350768,-1.1715146098375644,1.1275643108651774
mem,resp,961,1,mem1.2.1.bmp,mem1.2.3.bmp,mem1.2.3.bmp,ACC019,"[-3, 0, -3]","[-3, 0, 3]","[-3, 0, 3]",match,1.4226497308103743,,-0.5381198657666075,-0.7538014453645004,0.7909674660410649,2nd,1st,3rd,-0.3572715434865365,-1.1715146098375644,0.47112169255107017
mem,resp,540,1,mem1.3.1.bmp,mem1.3.2.bmp,mem1.3.2.bmp,ACC019,"[-3, 3, -3]","[-3, 3, 0]","[-3, 3, 0]",match,1.7113248654051871,,-0.7014039620570709,-0.12679583451648052,0.89920130892854,2nd,2nd,4th,-0.3572715434865365,-0.3556843322527513,1.1275643108651774
mem,resp,448,1,mem3.1.2.bmp,mem3.3.3.bmp,mem1.1.2.bmp,ACC019,"[3, -3, 0]","[3, 3, 3]","[-3, -3, 0]",non-match,0.5566243270259357,1,1.8580467130579443,2.0519573074142756,0.7963663842219413,4th,4th,3rd,1.2989455670144114,1.2541321839403718,0.47112169255107017
mem,resp,719,1,mem3.2.1.bmp,mem3.2.2.bmp,mem3.2.2.bmp,ACC019,"[3, 0, -3]","[3, 0, 0]","[3, 0, 0]",match,1.7113248654051871,,0.08041113472009581,-0.2528306018373458,0.9730201280566302,3rd,2nd,4th,0.3052441011882362,-0.3556843322527513,1.1275643108651774
mem,resp,548,1,mem2.1.1.bmp,mem2.1.3.bmp,mem2.3.1.bmp,ACC019,"[0, -3, -3]","[0, -3, 3]","[0, 3, -3]",non-match,0.6061531498826483,1,-1.505882773742385,0.7635026119587636,0.9820365287984892,1st,4th,4th,-1.2475766999350768,1.2541321839403718,1.1275643108651774
mem,resp,507,0,mem3.1.1.bmp,mem2.3.2.bmp,mem3.1.1.bmp,ACC019,"[3, -3, -3]","[0, 3, 0]","[3, -3, -3]",match,1.2928932188134525,,1.259020643915859,0.9307768474374056,0.7815609177050409,4th,4th,3rd,1.2989455670144114,1.2541321839403718,0.47112169255107017
mem,resp,597,1,mem3.1.3.bmp,mem3.1.2.bmp,mem3.3.1.bmp,ACC019,"[3, -3, 3]","[3, -3, 0]","[3, 3, -3]",non-match,0.5380061947043713,1,1.2689374809611333,0.4571772210072765,0.82838822667052,4th,3rd,4th,1.2989455670144114,0.2720075584819585,1.1275643108651774
