mode,type,rt,acc,item_1,item_2,item_cue,subj_idx,item_1_number,item_2_number,item_cue_number,trial_type,summed_similarity,similarity_bin,ams,pams,slps,ams_quantile,pams_quantile,slps_quantile,ams_bin,pam_bin,slp_bin
mem,resp,1213,1,mem2.3.3.bmp,mem1.3.1.bmp,mem3.1.3.bmp,ACC030,"[0, 3, 3]","[-3, 3, -3]","[3, -3, 3]",non-match,0.3545027756320972,1,-1.9253408346222436,-2.315174503536994,-0.1600192973360054,1st,1st,2nd,-1.2178657209035737,-1.1902959649489466,-0.22958241231144136
mem,resp,898,1,mem2.3.2.bmp,mem2.2.1.bmp,mem1.2.3.bmp,ACC030,"[0, 3, 0]","[0, 0, -3]","[-3, 0, 3]",non-match,0.8545027756320972,2,-1.1706628588180532,0.7586802907951239,-0.34108481376561917,1st,4th,2nd,-1.2178657209035737,1.2706896537859529,-0.22958241231144136
mem,resp,1282,0,mem3.3.2.bmp,mem1.3.3.bmp,mem3.2.1.bmp,ACC030,"[3, 3, 0]","[-3, 3, 3]","[3, 0, -3]",non-match,0.7257263057516985,2,-1.4020042921403921,-0.7557249031109037,-1.1905663482760225,1st,1st,1st,-1.2178657209035737,-1.1902959649489466,-1.330546569524086
mem,resp,977,1,mem1.2.2.bmp,mem3.3.1.bmp,mem2.1.3.bmp,ACC030,"[-3, 0, 0]","[3, 3, -3]","[0, -3, 3]",non-match,0.6339745962155614,1,-2.15531355742887,0.8930345723562123,-1.4123510444138048,1st,4th,1st,-1.2178657209035737,1.2706896537859529,-1.330546569524086
mem,resp,1208,1,mem1.1.1.bmp,mem3.1.2.bmp,mem3.1.2.bmp,ACC030,"[-3, -3, -3]","[3, -3, 0]","[3, -3, 0]",match,1.3545027756320973,,-1.8957533721243365,1.416513964678546,-1.5559025944501157,1st,4th,1st,-1.2178657209035737,1.2706896537859529,-1.330546569524086
mem,resp,946,0,mem1.3.1.bmp,mem2.2.3.bmp,mem2.2.2.bmp,ACC030,"[-3, 3, -3]","[0, 0, 3]","[0, 0, 0]",non-match,1.2113248654051871,4,-1.3524588601752314,0.36324328626223945,-1.8405671777945802,1st,3rd,1st,-1.2178657209035737,0.30533018621900176,-1.330546569524086
mem,resp,886,0,mem3.2.3.bmp,mem1.2.3.bmp,mem1.2.3.bmp,ACC030,"[3, 0, 3]","[-3, 0, 3]","[-3, 0, 3]",match,1.4226497308103743,,-1.5346486607479501,1.6088171278441628,-0.7475239645988315,1st,4th,1st,-1.2178657209035737,1.2706896537859529,-1.330546569524086
mem,resp,1227,1,mem2.1.3.bmp,mem3.2.2.bmp,mem2.1.3.bmp,ACC030,"[0, -3, 3]","[3, 0, 0]","[0, -3, 3]",match,1.5,,-0.4800411380033476,0.5775605312181409,-0.5619068354754057,2nd,3rd,2nd,-0.3720543185380123,0.30533018621900176,-0.22958241231144136
mem,resp,745,1,mem1.3.3.bmp,mem2.3.1.bmp,mem3.1.2.bmp,ACC030,"[-3, 3, 3]","[0, 3, -3]","[3, -3, 0]",non-match,0.42686781502901383,1,-0.4748964959471836,1.2161889281516687,-0.27741370943723553,2nd,4th,2nd,-0.3720543185380123,1.2706896537859529,-0.22958241231144136
mem,resp,944,1,mem2.1.1.bmp,mem1.2.1.bmp,mem2.1.1.bmp,ACC030,"[0, -3, -3]","[-3, 0, -3]","[0, -3, -3]",match,1.591751709536137,,-0.08324005328595657,1.8632248921359427,0.39040882325342885,3rd,4th,3rd,0.25556048246868823,1.2706896537859529,0.3956570519266262
mem,resp,913,1,mem2.2.2.bmp,mem3.2.1.bmp,mem2.2.2.bmp,ACC030,"[0, 0, 0]","[3, 0, -3]","[0, 0, 0]",match,1.591751709536137,,0.20392338041442712,0.9014418439920604,0.12173560754781318,3rd,4th,3rd,0.25556048246868823,1.2706896537859529,0.3956570519266262
mem,resp,1163,1,mem1.2.3.bmp,mem1.1.2.bmp,mem1.3.2.bmp,ACC030,"[-3, 0, 3]","[-3, -3, 0]","[-3, 3, 0]",non-match,1.0144014403465114,3,-0.04569974840890179,0.8195993328567663,0.3413886269164142,3rd,4th,3rd,0.25556048246868823,1.2706896537859529,0.3956570519266262
mem,resp,1173,1,mem2.2.1.bmp,mem1.2.2.bmp,mem1.2.2.bmp,ACC030,"[0, 0, -3]","[-3, 0, 0]","[-3, 0, 0]",match,1.591751709536137,,-1.0048372590064791,1.2865754268314054,0.4542324458298004,1st,4th,3rd,-1.2178657209035737,1.2706896537859529,0.3956570519266262
mem,resp,732,1,mem3.3.3.bmp,mem3.1.3.bmp,mem3.1.3.bmp,ACC030,"[3, 3, 3]","[3, -3, 3]","[3, -3, 3]",match,1.4226497308103743,,0.8824440680737358,4.095311671882857,0.3040225343815511,4th,4th,3rd,1.337594499788957,1.2706896537859529,0.3956570519266262
mem,resp,620,1,mem2.2.3.bmp,mem3.1.1.bmp,mem3.1.1.bmp,ACC030,"[0, 0, 3]","[3, -3, -3]","[3, -3, -3]",match,1.2928932188134525,,-0.0826594115384509,1.669187879857029,0.6729091546312812,3rd,4th,3rd,0.25556048246868823,1.2706896537859529,0.3956570519266262
mem,resp,645,1,mem3.2.1.bmp,mem3.3.2.bmp,mem1.2.3.bmp,ACC030,"[3, 0, -3]","[3, 3, 0]","[-3, 0, 3]",non-match,0.4763966378857265,1,0.8054855726403841,1.5971029818516325,0.3764238184484135,4th,4th,3rd,1.337594499788957,1.2706896537859529,0.3956570519266262
mem,resp,1063,1,mem1.2.1.bmp,mem2.1.2.bmp,mem2.3.2.bmp,ACC030,"[-3, 0, -3]","[0, -3, 0]","[0, 3, 0]",non-match,0.9226497308103743,2,-0.16165219515135482,0.7587601709832646,0.28788256302579585,2nd,4th,3rd,-0.3720543185380123,1.2706896537859529,0.3956570519266262
mem,resp,539,1,mem1.3.2.bmp,mem2.1.1.bmp,mem2.1.1.bmp,ACC030,"[-3, 3, 0]","[0, -3, -3]","[0, -3, -3]",match,1.2928932188134525,,0.5774965863326318,1.1791837810827248,0.4390693329963989,3rd,4th,3rd,0.25556048246868823,1.2706896537859529,0.3956570519266262
mem,resp,512,1,mem3.1.2.bmp,mem3.2.3.bmp,mem3.1.2.bmp,ACC030,"[3, -3, 0]","[3, 0, 3]","[3, -3, 0]",match,1.591751709536137,,-0.9438403825568259,0.8258573429511994,0.540522683400475,1st,4th,3rd,-1.2178657209035737,1.2706896537859529,0.3956570519266262
mem,resp,680,1,mem1.1.2.bmp,mem2.1.3.bmp,mem2.1.3.bmp,ACC030,"[-3, -3, 0]","[0, -3, 3]","[0, -3, 3]",match,1.591751709536137,,-0.6180312572973649,0.046182926210417835,0.5032426242644271,2nd,3rd,3rd,-0.3720543185380123,0.30533018621900176,0.3956570519266262
mem,resp,543,1,mem3.2.2.bmp,mem3.3.3.bmp,mem3.2.2.bmp,ACC030,"[3, 0, 0]","[3, 3, 3]","[3, 0, 0]",match,1.591751709536137,,-0.5060261100294491,-1.2462839830814008,0.49968325543722825,2nd,1st,3rd,-0.3720543185380123,-1.1902959649489466,0.3956570519266262
mem,resp,842,0,mem3.1.3.bmp,mem1.2.1.bmp,mem3.2.1.bmp,ACC030,"[3, -3, 3]","[-3, 0, -3]","[3, 0, -3]",non-match,0.7771525064424715,2,-2.3643116005121723,0.41502095066906364,0.6082074554842696,1st,3rd,3rd,-1.2178657209035737,0.30533018621900176,0.3956570519266262
mem,resp,727,0,mem3.1.1.bmp,mem1.2.2.bmp,mem3.3.2.bmp,ACC030,"[3, -3, -3]","[-3, 0, 0]","[3, 3, 0]",non-match,0.7090055512641944,2,-0.34168920185737084,-0.2781056455404652,0.6826584872057264,2nd,2nd,3rd,-0.3720543185380123,-0.3818589359899456,0.3956570519266262
mem,resp,945,0,mem3.3.1.bmp,mem1.1.2.bmp,mem2.3.2.bmp,ACC030,"[3, 3, -3]","[-3, -3, 0]","[0, 3, 0]",non-match,0.9462544851682343,3,-0.9060742478812318,0.3191388465552714,0.8442193740433591,1st,3rd,4th,-1.2178657209035737,0.30533018621900176,1.1694802470218961
mem,resp,1323,1,mem2.3.1.bmp,mem1.3.3.bmp,mem2.1.3.bmp,ACC030,"[0, 3, -3]","[-3, 3, 3]","[0, -3, 3]",non-match,0.5380061947043713,1,-2.477913421046169,-0.9976898953375216,0.5999323417692074,1st,1st,3rd,-1.2178657209035737,-1.1902959649489466,0.3956570519266262
mem,resp,1001,0,mem2.3.3.bmp,mem3.1.2.bmp,mem1.3.1.bmp,ACC030,"[0, 3, 3]","[3, -3, 0]","[-3, 3, -3]",non-match,0.4884773718476586,1,-0.633431172413135,1.3369497523116645,0.7058084751329525,2nd,4th,3rd,-0.3720543185380123,1.2706896537859529,0.3956570519266262
mem,resp,1263,1,mem1.3.2.bmp,mem2.2.2.bmp,mem2.2.3.bmp,ACC030,"[-3, 3, 0]","[0, 0, 0]","[0, 0, 3]",non-match,1.2113248654051871,4,0.2693899466970807,0.9775677814560884,1.0307476473061283,3rd,4th,4th,0.25556048246868823,1.2706896537859529,1.1694802470218961
mem,resp,1213,1,mem3.1.3.bmp,mem3.2.3.bmp,mem3.2.3.bmp,ACC030,"[3, -3, 3]","[3, 0, 3]","[3, 0, 3]",match,1.7113248654051871,,-0.3081291544818108,0.17204267057509426,0.9140284346554388,2nd,3rd,4th,-0.3720543185380123,0.30533018621900176,1.1694802470218961
mem,resp,1042,1,mem3.2.2.bmp,mem2.1.3.bmp,mem3.2.2.bmp,ACC030,"[3, 0, 0]","[0, -3, 3]","[3, 0, 0]",match,1.5,,-0.6102632634170414,-1.3792226659976994,0.7399315173057077,2nd,1st,3rd,-0.3720543185380123,-1.1902959649489466,0.3956570519266262
mem,resp,666,1,mem3.3.3.bmp,mem1.3.1.bmp,mem3.3.3.bmp,ACC030,"[3, 3, 3]","[-3, 3, -3]","[3, 3, 3]",match,1.1835034190722742,,-0.0382622808820394,0.49354849307949916,0.3155490107127855,3rd,3rd,3rd,0.25556048246868823,0.30533018621900176,0.3956570519266262
mem,resp,779,1,mem1.2.3.bmp,mem3.3.1.bmp,mem3.3.1.bmp,ACC030,"[-3, 0, 3]","[3, 3, -3]","[3, 3, -3]",match,1.1339745962155614,,0.179976103446657,0.6598983349696944,-0.10472078458703274,3rd,3rd,2nd,0.25556048246868823,0.30533018621900176,-0.22958241231144136
mem,resp,542,1,mem2.2.1.bmp,mem3.2.1.bmp,mem2.2.1.bmp,ACC030,"[0, 0, -3]","[3, 0, -3]","[0, 0, -3]",match,1.7113248654051871,,1.4742944720246407,2.5449280896945394,0.1222754535695959,4th,4th,3rd,1.337594499788957,1.2706896537859529,0.3956570519266262
mem,resp,585,1,mem1.3.3.bmp,mem2.3.3.bmp,mem2.1.1.bmp,ACC030,"[-3, 3, 3]","[0, 3, 3]","[0, -3, -3]",non-match,0.3174780152878355,1,1.0409946080317067,3.029497972356101,0.0003182281278758431,4th,4th,2nd,1.337594499788957,1.2706896537859529,-0.22958241231144136
mem,resp,760,0,mem2.3.2.bmp,mem3.1.1.bmp,mem3.2.2.bmp,ACC030,"[0, 3, 0]","[3, -3, -3]","[3, 0, 0]",non-match,1.1835034190722742,4,1.1142375529640167,3.041366679422725,0.3023271531722547,4th,4th,3rd,1.337594499788957,1.2706896537859529,0.3956570519266262
mem,resp,503,1,mem1.2.2.bmp,mem2.2.3.bmp,mem1.2.2.bmp,ACC030,"[-3, 0, 0]","[0, 0, 3]","[-3, 0, 0]",match,1.591751709536137,,-0.47896804466087345,3.2687658413441274,0.010175347903245754,2nd,4th,2nd,-0.3720543185380123,1.2706896537859529,-0.22958241231144136
mem,resp,578,1,mem3.1.2.bmp,mem1.1.1.bmp,mem1.1.1.bmp,ACC030,"[3, -3, 0]","[-3, -3, -3]","[-3, -3, -3]",match,1.3545027756320973,,-0.15277188782546303,1.1349446912657182,0.14635338684159133,2nd,4th,3rd,-0.3720543185380123,1.2706896537859529,0.3956570519266262
mem,resp,595,1,mem2.1.2.bmp,mem2.1.1.bmp,mem2.1.1.bmp,ACC030,"[0, -3, 0]","[0, -3, -3]","[0, -3, -3]",match,1.7113248654051871,,-1.312893841046565,1.017248442163911,0.11717535117167245,1st,4th,3rd,-1.2178657209035737,1.2706896537859529,0.3956570519266262
mem,resp,677,1,mem1.2.2.bmp,mem1.1.3.bmp,mem1.1.3.bmp,ACC030,"[-3, 0, 0]","[-3, -3, 3]","[-3, -3, 3]",match,1.591751709536137,,-0.9293966286810369,0.7268392324571323,-0.08874951456680487,1st,4th,2nd,-1.2178657209035737,1.2706896537859529,-0.22958241231144136
mem,resp,742,1,mem1.2.3.bmp,mem3.1.2.bmp,mem1.2.3.bmp,ACC030,"[-3, 0, 3]","[3, -3, 0]","[-3, 0, 3]",match,1.2928932188134525,,-0.4644229653379099,-0.44941485363801303,-0.562018286627135,2nd,2nd,2nd,-0.3720543185380123,-0.3818589359899456,-0.22958241231144136
mem,resp,1102,1,mem3.2.2.bmp,mem1.2.1.bmp,mem2.3.3.bmp,ACC030,"[3, 0, 0]","[-3, 0, -3]","[0, 3, 3]",non-match,0.7928932188134524,2,0.5691521442595594,0.3138220874055648,-0.4551101862177411,3rd,3rd,2nd,0.25556048246868823,0.30533018621900176,-0.22958241231144136
mem,resp,615,0,mem3.2.1.bmp,mem1.1.2.bmp,mem2.1.3.bmp,ACC030,"[3, 0, -3]","[-3, -3, 0]","[0, -3, 3]",non-match,0.8846449283495895,2,0.33039712456154074,-1.1059921870476017,-0.10115684296934181,3rd,1st,2nd,0.25556048246868823,-1.1902959649489466,-0.22958241231144136
mem,resp,1045,1,mem1.3.1.bmp,mem1.3.2.bmp,mem3.2.3.bmp,ACC030,"[-3, 3, -3]","[-3, 3, 0]","[3, 0, 3]",non-match,0.42686781502901383,1,-0.036647018837411616,0.6035620051217678,-0.3083703405560636,3rd,3rd,2nd,0.25556048246868823,0.30533018621900176,-0.22958241231144136
mem,resp,520,1,mem3.3.2.bmp,mem3.3.1.bmp,mem3.3.2.bmp,ACC030,"[3, 3, 0]","[3, 3, -3]","[3, 3, 0]",match,1.7113248654051871,,1.5753750067738244,-0.10226335493189187,-0.5245104881253126,4th,2nd,2nd,1.337594499788957,-0.3818589359899456,-0.22958241231144136
mem,resp,895,1,mem3.1.3.bmp,mem3.3.3.bmp,mem2.2.3.bmp,ACC030,"[3, -3, 3]","[3, 3, 3]","[0, 0, 3]",non-match,1.1835034190722742,4,-0.006429753547408662,1.0267216298310056,-0.2646910134106818,3rd,4th,2nd,0.25556048246868823,1.2706896537859529,-0.22958241231144136
mem,resp,539,1,mem2.2.2.bmp,mem1.2.2.bmp,mem2.2.2.bmp,ACC030,"[0, 0, 0]","[-3, 0, 0]","[0, 0, 0]",match,1.7113248654051871,,-0.16846795409494578,1.3408172059768362,-0.17153753858304122,2nd,4th,2nd,-0.3720543185380123,1.2706896537859529,-0.22958241231144136
mem,resp,561,1,mem2.1.3.bmp,mem1.3.3.bmp,mem2.1.3.bmp,ACC030,"[0, -3, 3]","[-3, 3, 3]","[0, -3, 3]",match,1.3545027756320973,,-0.3525496891249639,1.2956518132088903,-0.1902189673539626,2nd,4th,2nd,-0.3720543185380123,1.2706896537859529,-0.22958241231144136
mem,resp,404,1,mem2.3.1.bmp,mem2.3.2.bmp,mem2.3.1.bmp,ACC030,"[0, 3, -3]","[0, 3, 0]","[0, 3, -3]",match,1.7113248654051871,,1.406561874512456,1.6976923450997035,-0.2843622150390894,4th,4th,2nd,1.337594499788957,1.2706896537859529,-0.22958241231144136
mem,resp,629,1,mem1.3.2.bmp,mem2.3.3.bmp,mem1.3.2.bmp,ACC030,"[-3, 3, 0]","[0, 3, 3]","[-3, 3, 0]",match,1.591751709536137,,-1.3328511079735244,-0.9127694268492076,-0.7187882574034586,1st,1st,1st,-1.2178657209035737,-1.1902959649489466,-1.330546569524086
mem,resp,625,1,mem3.3.1.bmp,mem2.2.3.bmp,mem2.2.3.bmp,ACC030,"[3, 3, -3]","[0, 0, 3]","[0, 0, 3]",match,1.2928932188134525,,0.07680395277674254,0.6034088620391782,-0.3431781999613462,3rd,3rd,2nd,0.25556048246868823,0.30533018621900176,-0.22958241231144136
mem,resp,952,0,mem1.2.1.bmp,mem2.2.2.bmp,mem1.1.1.bmp,ACC030,"[-3, 0, -3]","[0, 0, 0]","[-3, -3, -3]",non-match,1.2113248654051871,4,0.6027550629300232,-0.24373861258444204,0.0025820720136801884,3rd,2nd,2nd,0.25556048246868823,-0.3818589359899456,-0.22958241231144136
mem,resp,597,1,mem1.1.3.bmp,mem3.3.2.bmp,mem3.3.2.bmp,ACC030,"[-3, -3, 3]","[3, 3, 0]","[3, 3, 0]",match,1.1339745962155614,,0.35812417744245845,2.780305226323513,-0.3013117984525467,3rd,4th,2nd,0.25556048246868823,1.2706896537859529,-0.22958241231144136
mem,resp,823,1,mem2.1.1.bmp,mem3.2.1.bmp,mem3.2.1.bmp,ACC030,"[0, -3, -3]","[3, 0, -3]","[3, 0, -3]",match,1.591751709536137,,-1.4416507896457604,-0.6213922902325073,-0.5297864035091171,1st,2nd,2nd,-1.2178657209035737,-0.3818589359899456,-0.22958241231144136
mem,resp,797,0,mem3.1.2.bmp,mem1.2.3.bmp,mem1.3.3.bmp,ACC030,"[3, -3, 0]","[-3, 0, 3]","[-3, 3, 3]",non-match,0.8452994616207485,2,0.76703010769278,0.3589216026514862,-0.4486789229978768,4th,3rd,2nd,1.337594499788957,0.30533018621900176,-0.22958241231144136
mem,resp,763,1,mem3.3.3.bmp,mem2.3.1.bmp,mem3.3.3.bmp,ACC030,"[3, 3, 3]","[0, 3, -3]","[3, 3, 3]",match,1.3545027756320973,,-1.9075850672756243,-0.22436329481985173,-0.2864987160801518,1st,2nd,2nd,-1.2178657209035737,-0.3818589359899456,-0.22958241231144136
mem,resp,456,1,mem3.2.3.bmp,mem3.1.3.bmp,mem3.2.3.bmp,ACC030,"[3, 0, 3]","[3, -3, 3]","[3, 0, 3]",match,1.7113248654051871,,0.6712437445520159,0.025625535277091622,-0.4328826194060618,4th,3rd,2nd,1.337594499788957,0.30533018621900176,-0.22958241231144136
mem,resp,943,1,mem2.2.1.bmp,mem3.1.1.bmp,mem1.2.1.bmp,ACC030,"[0, 0, -3]","[3, -3, -3]","[-3, 0, -3]",non-match,1.0658276410372842,4,-1.1116249078611051,0.709505822460399,-0.12381619834316568,1st,4th,2nd,-1.2178657209035737,1.2706896537859529,-0.22958241231144136
mem,resp,413,1,mem1.1.1.bmp,mem2.2.2.bmp,mem1.1.1.bmp,ACC030,"[-3, -3, -3]","[0, 0, 0]","[-3, -3, -3]",match,1.5,,0.04621072633456323,0.7427746209954457,0.02823102702171223,3rd,4th,2nd,0.25556048246868823,1.2706896537859529,-0.22958241231144136
mem,resp,428,1,mem1.1.2.bmp,mem1.2.3.bmp,mem1.1.2.bmp,ACC030,"[-3, -3, 0]","[-3, 0, 3]","[-3, -3, 0]",match,1.591751709536137,,1.6046797887804498,0.1837748368763393,-0.6648277583109491,4th,3rd,1st,1.337594499788957,0.30533018621900176,-1.330546569524086
mem,resp,579,1,mem2.3.2.bmp,mem2.2.3.bmp,mem2.3.2.bmp,ACC030,"[0, 3, 0]","[0, 0, 3]","[0, 3, 0]",match,1.591751709536137,,-0.412490993743691,0.949917242514596,-0.6641825436165868,2nd,4th,1st,-0.3720543185380123,1.2706896537859529,-1.330546569524086
mem,resp,602,0,mem1.3.3.bmp,mem2.1.2.bmp,mem1.2.2.bmp,ACC030,"[-3, 3, 3]","[0, -3, 0]","[-3, 0, 0]",non-match,1.1835034190722742,4,-0.550272843123027,-0.8001766768829837,-0.7996359487473841,2nd,1st,1st,-0.3720543185380123,-1.1902959649489466,-1.330546569524086
mem,resp,506,1,mem3.1.1.bmp,mem3.2.2.bmp,mem3.1.1.bmp,ACC030,"[3, -3, -3]","[3, 0, 0]","[3, -3, -3]",match,1.591751709536137,,-0.22603084402189869,1.0449251548652747,-1.3407340973661683,2nd,4th,1st,-0.3720543185380123,1.2706896537859529,-1.330546569524086
mem,resp,854,1,mem2.3.3.bmp,mem2.3.1.bmp,mem1.1.1.bmp,ACC030,"[0, 3, 3]","[0, 3, -3]","[-3, -3, -3]",non-match,0.4884773718476586,1,-0.7932739251255712,-1.3012877406413308,-0.8731063220713174,1st,1st,1st,-1.2178657209035737,-1.1902959649489466,-1.330546569524086
mem,resp,607,1,mem2.2.3.bmp,mem2.1.3.bmp,mem2.1.1.bmp,ACC030,"[0, 0, 3]","[0, -3, 3]","[0, -3, -3]",non-match,0.7771525064424715,2,-0.2514133209620106,0.6634003013243356,-0.8096903633041597,2nd,3rd,1st,-0.3720543185380123,0.30533018621900176,-1.330546569524086
mem,resp,752,0,mem1.3.2.bmp,mem3.3.3.bmp,mem3.2.3.bmp,ACC030,"[-3, 3, 0]","[3, 3, 3]","[3, 0, 3]",non-match,1.0042180842186395,3,0.6775087198027293,-1.1409022073550001,-0.9039266885420468,4th,1st,1st,1.337594499788957,-1.1902959649489466,-1.330546569524086
mem,resp,920,1,mem2.2.2.bmp,mem3.2.1.bmp,mem1.2.1.bmp,ACC030,"[0, 0, 0]","[3, 0, -3]","[-3, 0, -3]",non-match,1.0144014403465114,3,0.06674303111987728,-1.5666359962373377,-0.6722469078195543,3rd,1st,1st,0.25556048246868823,-1.1902959649489466,-1.330546569524086
mem,resp,565,1,mem3.1.2.bmp,mem3.1.3.bmp,mem3.1.3.bmp,ACC030,"[3, -3, 0]","[3, -3, 3]","[3, -3, 3]",match,1.7113248654051871,,0.33609555992486995,0.6066344972991932,-0.8729462414319336,3rd,3rd,1st,0.25556048246868823,0.30533018621900176,-1.330546569524086
mem,resp,651,1,mem2.1.2.bmp,mem3.3.2.bmp,mem2.1.2.bmp,ACC030,"[0, -3, 0]","[3, 3, 0]","[0, -3, 0]",match,1.3545027756320973,,-1.4723365332852447,0.17965368089764877,-0.504611031616584,1st,3rd,2nd,-1.2178657209035737,0.30533018621900176,-0.22958241231144136
mem,resp,656,0,mem3.1.1.bmp,mem1.3.3.bmp,mem1.3.2.bmp,ACC030,"[3, -3, -3]","[-3, 3, 3]","[-3, 3, 0]",non-match,0.8452994616207485,2,-1.058555281050258,0.8748274432602003,-0.8841331385902466,1st,4th,1st,-1.2178657209035737,1.2706896537859529,-1.330546569524086
mem,resp,568,0,mem3.2.1.bmp,mem2.1.1.bmp,mem3.2.2.bmp,ACC030,"[3, 0, -3]","[0, -3, -3]","[3, 0, 0]",non-match,1.2113248654051871,4,-0.5111686773851599,0.12811985194678377,-1.0387343763214403,2nd,3rd,1st,-0.3720543185380123,0.30533018621900176,-1.330546569524086
mem,resp,955,1,mem1.3.1.bmp,mem1.2.2.bmp,mem1.2.3.bmp,ACC030,"[-3, 3, -3]","[-3, 0, 0]","[-3, 0, 3]",non-match,1.0658276410372842,4,-0.8969540247020736,0.9853354798399971,-1.0850962414058476,1st,4th,1st,-1.2178657209035737,1.2706896537859529,-1.330546569524086
mem,resp,913,1,mem3.1.3.bmp,mem1.2.1.bmp,mem2.3.3.bmp,ACC030,"[3, -3, 3]","[-3, 0, -3]","[0, 3, 3]",non-match,0.6473959944455496,1,-1.363416330332447,0.01822834625696378,-1.0984714152334965,1st,3rd,1st,-1.2178657209035737,0.30533018621900176,-1.330546569524086
mem,resp,828,0,mem3.3.3.bmp,mem1.1.2.bmp,mem3.3.2.bmp,ACC030,"[3, 3, 3]","[-3, -3, 0]","[3, 3, 0]",non-match,0.8948282844774612,2,-1.374999011985678,-1.389059273071047,-0.8945639943150093,1st,1st,1st,-1.2178657209035737,-1.1902959649489466,-1.330546569524086
mem,resp,1218,1,mem2.3.2.bmp,mem1.1.3.bmp,mem3.1.1.bmp,ACC030,"[0, 3, 0]","[-3, -3, 3]","[3, -3, -3]",non-match,0.4763966378857265,1,-0.41110064723504613,0.976062406224109,-0.7796977681802886,2nd,4th,1st,-0.3720543185380123,1.2706896537859529,-1.330546569524086
mem,resp,1086,0,mem1.2.3.bmp,mem2.2.1.bmp,mem1.3.3.bmp,ACC030,"[-3, 0, 3]","[0, 0, -3]","[-3, 3, 3]",non-match,1.0042180842186395,3,-1.8318336868149263,-0.5390588881629181,-0.46008739873254884,1st,2nd,2nd,-1.2178657209035737,-0.3818589359899456,-0.22958241231144136
mem,resp,591,1,mem3.2.3.bmp,mem3.3.1.bmp,mem3.2.3.bmp,ACC030,"[3, 0, 3]","[3, 3, -3]","[3, 0, 3]",match,1.3545027756320973,,-1.107673652890279,0.7844840730496982,-0.8079094675575968,1st,4th,1st,-1.2178657209035737,1.2706896537859529,-1.330546569524086
mem,resp,714,1,mem1.1.1.bmp,mem1.3.2.bmp,mem3.2.2.bmp,ACC030,"[-3, -3, -3]","[-3, 3, 0]","[3, 0, 0]",non-match,0.6473959944455496,1,-1.206857412291199,-1.5876940784941656,-0.7992533111821334,1st,1st,1st,-1.2178657209035737,-1.1902959649489466,-1.330546569524086
mem,resp,778,1,mem2.1.3.bmp,mem3.1.1.bmp,mem3.1.1.bmp,ACC030,"[0, -3, 3]","[3, -3, -3]","[3, -3, -3]",match,1.3545027756320973,,0.16740224523298605,0.12806053263547196,-0.9126135091159785,3rd,3rd,1st,0.25556048246868823,0.30533018621900176,-1.330546569524086
mem,resp,1033,1,mem3.1.2.bmp,mem2.1.1.bmp,mem2.1.1.bmp,ACC030,"[3, -3, 0]","[0, -3, -3]","[0, -3, -3]",match,1.591751709536137,,-0.15625936743230742,0.252141702071451,-0.8223029348798988,2nd,3rd,1st,-0.3720543185380123,0.30533018621900176,-1.330546569524086
mem,resp,557,0,mem3.2.1.bmp,mem1.2.2.bmp,mem1.1.2.bmp,ACC030,"[3, 0, -3]","[-3, 0, 0]","[-3, -3, 0]",non-match,1.0042180842186395,3,2.1196419175662493,-0.058474182002970714,-0.5598980923797372,4th,2nd,2nd,1.337594499788957,-0.3818589359899456,-0.22958241231144136
mem,resp,950,0,mem2.1.2.bmp,mem1.3.3.bmp,mem2.1.2.bmp,ACC030,"[0, -3, 0]","[-3, 3, 3]","[0, -3, 0]",match,1.2928932188134525,,-0.862905221395093,-0.5406231100423742,-0.2851106544619019,1st,2nd,2nd,-1.2178657209035737,-0.3818589359899456,-0.22958241231144136
mem,resp,856,0,mem3.2.2.bmp,mem3.1.3.bmp,mem3.1.1.bmp,ACC030,"[3, 0, 0]","[3, -3, 3]","[3, -3, -3]",non-match,1.0144014403465114,3,-0.3166111697519518,0.07799674729490834,-0.5355983169939756,2nd,3rd,2nd,-0.3720543185380123,0.30533018621900176,-0.22958241231144136
mem,resp,863,1,mem1.3.2.bmp,mem1.2.3.bmp,mem1.2.3.bmp,ACC030,"[-3, 3, 0]","[-3, 0, 3]","[-3, 0, 3]",match,1.591751709536137,,0.086562060447696,1.1453434138050205,-0.8091824437470173,3rd,4th,1st,0.25556048246868823,1.2706896537859529,-1.330546569524086
mem,resp,575,1,mem2.1.1.bmp,mem3.3.2.bmp,mem3.3.2.bmp,ACC030,"[0, -3, -3]","[3, 3, 0]","[3, 3, 0]",match,1.2928932188134525,,0.38764043462724374,0.536902401699225,-1.210198256306929,3rd,3rd,1st,0.25556048246868823,0.30533018621900176,-1.330546569524086
mem,resp,802,1,mem2.3.2.bmp,mem3.2.3.bmp,mem3.1.2.bmp,ACC030,"[0, 3, 0]","[3, 0, 3]","[3, -3, 0]",non-match,0.9462544851682343,3,0.00584647820715737,0.8132668191253175,-1.1948001652582214,3rd,4th,1st,0.25556048246868823,1.2706896537859529,-1.330546569524086
mem,resp,472,1,mem1.1.2.bmp,mem1.1.3.bmp,mem1.1.3.bmp,ACC030,"[-3, -3, 0]","[-3, -3, 3]","[-3, -3, 3]",match,1.7113248654051871,,0.5366475243149228,0.43425653718738727,-0.9156732864030208,3rd,3rd,1st,0.25556048246868823,0.30533018621900176,-1.330546569524086
mem,resp,638,1,mem2.3.3.bmp,mem2.1.3.bmp,mem2.3.3.bmp,ACC030,"[0, 3, 3]","[0, -3, 3]","[0, 3, 3]",match,1.4226497308103743,,0.8984743860472403,1.0537861837828681,-0.8638199771846741,4th,4th,1st,1.337594499788957,1.2706896537859529,-1.330546569524086
mem,resp,671,0,mem3.3.2.bmp,mem1.3.2.bmp,mem1.2.1.bmp,ACC030,"[3, 3, 0]","[-3, 3, 0]","[-3, 0, -3]",non-match,0.8846449283495895,2,0.6209737219146859,-0.6853152291324995,-1.179670620476,3rd,2nd,1st,0.25556048246868823,-0.3818589359899456,-1.330546569524086
mem,resp,764,1,mem2.2.2.bmp,mem2.2.3.bmp,mem2.2.3.bmp,ACC030,"[0, 0, 0]","[0, 0, 3]","[0, 0, 3]",match,1.7113248654051871,,0.6130972720125611,-1.082979750613007,-1.260135673338317,3rd,1st,1st,0.25556048246868823,-1.1902959649489466,-1.330546569524086
mem,resp,660,1,mem1.2.2.bmp,mem3.2.1.bmp,mem1.2.2.bmp,ACC030,"[-3, 0, 0]","[3, 0, -3]","[-3, 0, 0]",match,1.3545027756320973,,-0.8456699331963748,-0.18958480799532929,-0.7892850999670677,1st,2nd,1st,-1.2178657209035737,-0.3818589359899456,-1.330546569524086
mem,resp,683,1,mem3.3.1.bmp,mem1.3.1.bmp,mem1.3.1.bmp,ACC030,"[3, 3, -3]","[-3, 3, -3]","[-3, 3, -3]",match,1.4226497308103743,,-0.16527353478642276,1.785693370592131,-0.7238620631948719,2nd,4th,1st,-0.3720543185380123,1.2706896537859529,-1.330546569524086
mem,resp,608,1,mem3.2.3.bmp,mem3.1.2.bmp,mem3.2.3.bmp,ACC030,"[3, 0, 3]","[3, -3, 0]","[3, 0, 3]",match,1.591751709536137,,-0.6407220394365235,-0.22640809765369882,-0.4830739318121452,2nd,2nd,2nd,-0.3720543185380123,-0.3818589359899456,-0.22958241231144136
mem,resp,671,1,mem3.1.1.bmp,mem3.3.3.bmp,mem3.1.1.bmp,ACC030,"[3, -3, -3]","[3, 3, 3]","[3, -3, -3]",match,1.1835034190722742,,-0.47830668994809833,1.1302278606887783,-0.6298517077784699,2nd,4th,1st,-0.3720543185380123,1.2706896537859529,-1.330546569524086
mem,resp,796,1,mem1.2.1.bmp,mem1.1.1.bmp,mem1.2.3.bmp,ACC030,"[-3, 0, -3]","[-3, -3, -3]","[-3, 0, 3]",non-match,0.7771525064424715,2,-0.7171535033900591,0.4162611614895233,-0.5893357619667874,1st,3rd,1st,-1.2178657209035737,0.30533018621900176,-1.330546569524086
mem,resp,577,1,mem2.3.1.bmp,mem1.1.2.bmp,mem1.1.2.bmp,ACC030,"[0, 3, -3]","[-3, -3, 0]","[-3, -3, 0]",match,1.2928932188134525,,1.0492211781508025,0.45830543678800123,-0.3135723366446475,4th,3rd,2nd,1.337594499788957,0.30533018621900176,-0.22958241231144136
mem,resp,800,1,mem3.1.3.bmp,mem3.3.1.bmp,mem3.1.3.bmp,ACC030,"[3, -3, 3]","[3, 3, -3]","[3, -3, 3]",match,1.1835034190722742,,-0.083338549829733,-0.3676700657506364,-0.7193027241435829,3rd,2nd,1st,0.25556048246868823,-0.3818589359899456,-1.330546569524086
mem,resp,1006,1,mem2.2.1.bmp,mem2.3.3.bmp,mem1.3.1.bmp,ACC030,"[0, 0, -3]","[0, 3, 3]","[-3, 3, -3]",non-match,0.9462544851682343,3,-1.600785989526131,-1.1158201384644681,-0.8688371477154968,1st,1st,1st,-1.2178657209035737,-1.1902959649489466,-1.330546569524086
mem,resp,694,1,mem3.3.3.bmp,mem2.2.2.bmp,mem3.3.3.bmp,ACC030,"[3, 3, 3]","[0, 0, 0]","[3, 3, 3]",match,1.5,,-0.5880207366777975,-0.823318002837127,-0.6547912061812756,2nd,1st,1st,-0.3720543185380123,-1.1902959649489466,-1.330546569524086
mem,resp,637,1,mem1.1.1.bmp,mem1.2.1.bmp,mem3.2.3.bmp,ACC030,"[-3, -3, -3]","[-3, 0, -3]","[3, 0, 3]",non-match,0.3174780152878355,1,2.38155150716053,0.7064096380082355,-0.7404914007677298,4th,4th,1st,1.337594499788957,1.2706896537859529,-1.330546569524086
mem,resp,712,1,mem1.2.3.bmp,mem3.3.1.bmp,mem3.3.1.bmp,ACC030,"[-3, 0, 3]","[3, 3, -3]","[3, 3, -3]",match,1.1339745962155614,,-0.35839856840352724,1.1789508168949743,-0.3082251328281881,2nd,4th,2nd,-0.3720543185380123,1.2706896537859529,-0.22958241231144136
mem,resp,522,1,mem1.1.3.bmp,mem3.3.2.bmp,mem1.1.3.bmp,ACC030,"[-3, -3, 3]","[3, 3, 0]","[-3, -3, 3]",match,1.1339745962155614,,0.929932113835431,0.3695961836215785,-0.33332627939123854,4th,3rd,2nd,1.337594499788957,0.30533018621900176,-0.22958241231144136
mem,resp,734,1,mem1.3.1.bmp,mem1.2.2.bmp,mem1.2.2.bmp,ACC030,"[-3, 3, -3]","[-3, 0, 0]","[-3, 0, 0]",match,1.591751709536137,,-0.10635580230426993,-0.3616629810696904,-0.17935849948984378,3rd,2nd,2nd,0.25556048246868823,-0.3818589359899456,-0.22958241231144136
mem,resp,599,1,mem2.2.3.bmp,mem2.1.1.bmp,mem2.2.3.bmp,ACC030,"[0, 0, 3]","[0, -3, -3]","[0, 0, 3]",match,1.3545027756320973,,-0.19307981662893528,-1.0231870960120208,0.04454129430332623,2nd,1st,2nd,-0.3720543185380123,-1.1902959649489466,-0.22958241231144136
mem,resp,688,0,mem1.3.3.bmp,mem2.3.1.bmp,mem1.3.2.bmp,ACC030,"[-3, 3, 3]","[0, 3, -3]","[-3, 3, 0]",non-match,1.3030765749413242,4,0.7491029210822034,0.2858574633456135,0.14826886611439266,4th,3rd,3rd,1.337594499788957,0.30533018621900176,0.3956570519266262
mem,resp,813,1,mem1.3.3.bmp,mem1.1.1.bmp,mem1.1.1.bmp,ACC030,"[-3, 3, 3]","[-3, -3, -3]","[-3, -3, -3]",match,1.1835034190722742,,0.007023884794227372,-0.46789866832652766,-0.23467746391723948,3rd,2nd,2nd,0.25556048246868823,-0.3818589359899456,-0.22958241231144136
mem,resp,799,0,mem2.3.2.bmp,mem3.2.1.bmp,mem2.3.3.bmp,ACC030,"[0, 3, 0]","[3, 0, -3]","[0, 3, 3]",non-match,1.0042180842186395,3,-0.33623997648102477,0.1863417559990908,0.6125654069255159,2nd,3rd,3rd,-0.3720543185380123,0.30533018621900176,0.3956570519266262
mem,resp,744,1,mem1.3.1.bmp,mem3.1.1.bmp,mem1.1.3.bmp,ACC030,"[-3, 3, -3]","[3, -3, -3]","[-3, -3, 3]",non-match,0.36700683814454815,1,0.45365244670050625,-0.5750904954388977,0.9080125923893158,3rd,2nd,4th,0.25556048246868823,-0.3818589359899456,1.1694802470218961
mem,resp,800,1,mem2.2.1.bmp,mem2.1.2.bmp,mem3.3.1.bmp,ACC030,"[0, 0, -3]","[0, -3, 0]","[3, 3, -3]",non-match,0.8846449283495895,2,-0.18161319709345983,-1.2910598417662018,1.2337322732757354,2nd,1st,4th,-0.3720543185380123,-1.1902959649489466,1.1694802470218961
mem,resp,905,1,mem3.2.2.bmp,mem1.1.2.bmp,mem2.3.1.bmp,ACC030,"[3, 0, 0]","[-3, -3, 0]","[0, 3, -3]",non-match,0.7928932188134524,2,0.11768342998861382,-0.06458610943085134,1.2826754606288202,3rd,2nd,4th,0.25556048246868823,-0.3818589359899456,1.1694802470218961
mem,resp,837,1,mem3.3.2.bmp,mem1.2.3.bmp,mem1.2.3.bmp,ACC030,"[3, 3, 0]","[-3, 0, 3]","[-3, 0, 3]",match,1.2928932188134525,,-1.3382104892930315,-0.7867412664517689,1.3118585278878112,1st,1st,4th,-1.2178657209035737,-1.1902959649489466,1.1694802470218961
mem,resp,1207,1,mem2.2.2.bmp,mem3.3.3.bmp,mem2.2.2.bmp,ACC030,"[0, 0, 0]","[3, 3, 3]","[0, 0, 0]",match,1.5,,-0.18299942285126686,-0.5651749239635899,1.221518201982678,2nd,2nd,4th,-0.3720543185380123,-0.3818589359899456,1.1694802470218961
mem,resp,773,0,mem1.2.1.bmp,mem2.1.3.bmp,mem1.1.1.bmp,ACC030,"[-3, 0, -3]","[0, -3, 3]","[-3, -3, -3]",non-match,1.0658276410372842,4,-1.172362990030547,-0.7139849494685391,1.3918482291766479,1st,2nd,4th,-1.2178657209035737,-0.3818589359899456,1.1694802470218961
mem,resp,586,1,mem3.2.3.bmp,mem3.1.2.bmp,mem1.3.1.bmp,ACC030,"[3, 0, 3]","[3, -3, 0]","[-3, 3, -3]",non-match,0.2679491924311228,1,1.7020172752100124,1.0142957111857163,1.1284161906744634,4th,4th,4th,1.337594499788957,1.2706896537859529,1.1694802470218961
mem,resp,741,1,mem3.2.1.bmp,mem3.1.3.bmp,mem3.1.3.bmp,ACC030,"[3, 0, -3]","[3, -3, 3]","[3, -3, 3]",match,1.3545027756320973,,-0.9330757778549907,0.8404269102548614,1.0761184767751373,1st,4th,4th,-1.2178657209035737,1.2706896537859529,1.1694802470218961
mem,resp,595,1,mem1.2.2.bmp,mem2.2.3.bmp,mem2.2.1.bmp,ACC030,"[-3, 0, 0]","[0, 0, 3]","[0, 0, -3]",non-match,1.0144014403465114,3,1.7576229683747733,0.8573729722386877,1.028052190137515,4th,4th,4th,1.337594499788957,1.2706896537859529,1.1694802470218961
mem,resp,969,0,mem2.1.2.bmp,mem1.3.2.bmp,mem1.1.2.bmp,ACC030,"[0, -3, 0]","[-3, 3, 0]","[-3, -3, 0]",non-match,1.1339745962155614,4,-1.0662285889027212,-1.1767270094323556,1.058625860021423,1st,1st,4th,-1.2178657209035737,-1.1902959649489466,1.1694802470218961
mem,resp,620,1,mem1.2.3.bmp,mem2.3.3.bmp,mem1.2.3.bmp,ACC030,"[-3, 0, 3]","[0, 3, 3]","[-3, 0, 3]",match,1.591751709536137,,-0.32755808484103843,0.2398842880833931,1.0894940596477543,2nd,3rd,4th,-0.3720543185380123,0.30533018621900176,1.1694802470218961
mem,resp,899,1,mem1.1.1.bmp,mem1.2.3.bmp,mem2.1.3.bmp,ACC030,"[-3, -3, -3]","[-3, 0, 3]","[0, -3, 3]",non-match,0.9462544851682343,3,0.36080948244149086,-0.11823933347704856,1.2041723032479623,3rd,2nd,4th,0.25556048246868823,-0.3818589359899456,1.1694802470218961
mem,resp,794,0,mem2.3.2.bmp,mem1.3.3.bmp,mem2.2.3.bmp,ACC030,"[0, 3, 0]","[-3, 3, 3]","[0, 0, 3]",non-match,1.1835034190722742,4,-1.020489026389305,-0.4621451382516505,1.1111588185302208,1st,2nd,4th,-1.2178657209035737,-0.3818589359899456,1.1694802470218961
mem,resp,770,1,mem1.1.3.bmp,mem2.2.2.bmp,mem2.2.2.bmp,ACC030,"[-3, -3, 3]","[0, 0, 0]","[0, 0, 0]",match,1.5,,-0.11338978180342539,0.47524476331217747,1.2793321228800227,2nd,3rd,4th,-0.3720543185380123,0.30533018621900176,1.1694802470218961
mem,resp,1306,1,mem2.1.2.bmp,mem1.2.1.bmp,mem3.3.1.bmp,ACC030,"[0, -3, 0]","[-3, 0, -3]","[3, 3, -3]",non-match,0.6473959944455496,1,-0.8355841337350075,-1.4245503449392956,1.2836400581573622,1st,1st,4th,-1.2178657209035737,-1.1902959649489466,1.1694802470218961
mem,resp,670,1,mem3.2.2.bmp,mem1.1.1.bmp,mem1.1.1.bmp,ACC030,"[3, 0, 0]","[-3, -3, -3]","[-3, -3, -3]",match,1.2928932188134525,,0.8083235425385398,0.34004795846493013,1.5174757975026896,4th,3rd,4th,1.337594499788957,0.30533018621900176,1.1694802470218961
mem,resp,645,0,mem3.3.2.bmp,mem2.2.3.bmp,mem2.3.1.bmp,ACC030,"[3, 3, 0]","[0, 0, 3]","[0, 3, -3]",non-match,0.9462544851682343,3,0.6032728636677239,-0.8752698143257154,1.4209165018466952,3rd,1st,4th,0.25556048246868823,-1.1902959649489466,1.1694802470218961
mem,resp,748,0,mem1.2.2.bmp,mem2.3.2.bmp,mem1.3.1.bmp,ACC030,"[-3, 0, 0]","[0, 3, 0]","[-3, 3, -3]",non-match,1.1835034190722742,4,0.430956800243993,0.6820285738974682,1.377882626091953,3rd,4th,4th,0.25556048246868823,1.2706896537859529,1.1694802470218961
mem,resp,774,0,mem3.2.3.bmp,mem2.1.1.bmp,mem2.2.2.bmp,ACC030,"[3, 0, 3]","[0, -3, -3]","[0, 0, 0]",non-match,1.1835034190722742,4,-0.5059693127969124,0.3454876102117761,1.2720305189396843,2nd,3rd,4th,-0.3720543185380123,0.30533018621900176,1.1694802470218961
mem,resp,819,0,mem3.3.3.bmp,mem3.2.1.bmp,mem3.1.2.bmp,ACC030,"[3, 3, 3]","[3, 0, -3]","[3, -3, 0]",non-match,0.9462544851682343,3,-1.1892477809689967,0.11104664339130117,0.9842017951619647,1st,3rd,4th,-1.2178657209035737,0.30533018621900176,1.1694802470218961
mem,resp,834,0,mem1.3.2.bmp,mem2.3.1.bmp,mem2.3.3.bmp,ACC030,"[-3, 3, 0]","[0, 3, -3]","[0, 3, 3]",non-match,1.0144014403465114,3,-0.4889437093662626,-0.9588688624383928,1.3436637387950927,2nd,1st,4th,-0.3720543185380123,-1.1902959649489466,1.1694802470218961
mem,resp,678,1,mem1.1.2.bmp,mem3.1.3.bmp,mem1.1.2.bmp,ACC030,"[-3, -3, 0]","[3, -3, 3]","[-3, -3, 0]",match,1.3545027756320973,,0.6220911215536234,0.4531793384127993,1.8325030741729342,3rd,3rd,4th,0.25556048246868823,0.30533018621900176,1.1694802470218961
mem,resp,722,1,mem1.2.3.bmp,mem3.2.2.bmp,mem3.2.2.bmp,ACC030,"[-3, 0, 3]","[3, 0, 0]","[3, 0, 0]",match,1.3545027756320973,,-0.3064812143280722,0.8527632000204102,1.5744133877558744,2nd,4th,4th,-0.3720543185380123,1.2706896537859529,1.1694802470218961
mem,resp,686,1,mem3.1.2.bmp,mem3.1.1.bmp,mem3.3.1.bmp,ACC030,"[3, -3, 0]","[3, -3, -3]","[3, 3, -3]",non-match,0.7771525064424715,2,1.8831902131614568,0.5367597753869677,1.536279313989615,4th,3rd,4th,1.337594499788957,0.30533018621900176,1.1694802470218961
mem,resp,699,1,mem2.2.3.bmp,mem2.3.3.bmp,mem2.3.3.bmp,ACC030,"[0, 0, 3]","[0, 3, 3]","[0, 3, 3]",match,1.7113248654051871,,-0.5367148472783678,0.6750698396674228,1.1822424701298382,2nd,3rd,4th,-0.3720543185380123,0.30533018621900176,1.1694802470218961
mem,resp,644,1,mem2.2.1.bmp,mem2.1.3.bmp,mem2.2.1.bmp,ACC030,"[0, 0, -3]","[0, -3, 3]","[0, 0, -3]",match,1.3545027756320973,,-0.3695279306200886,-0.13349538591828994,0.9321082660138159,2nd,2nd,4th,-0.3720543185380123,-0.3818589359899456,1.1694802470218961
mem,resp,1121,1,mem1.3.1.bmp,mem1.2.2.bmp,mem2.2.2.bmp,ACC030,"[-3, 3, -3]","[-3, 0, 0]","[0, 0, 0]",non-match,1.2113248654051871,4,-1.287401026903749,-0.5500627385771734,0.9492857573445755,1st,2nd,4th,-1.2178657209035737,-0.3818589359899456,1.1694802470218961
mem,resp,1087,1,mem1.3.3.bmp,mem2.1.2.bmp,mem3.1.3.bmp,ACC030,"[-3, 3, 3]","[0, -3, 0]","[3, -3, 3]",non-match,0.7752551286084112,2,-1.4960947855762596,-0.7604932688166205,1.0127654533264154,1st,1st,4th,-1.2178657209035737,-1.1902959649489466,1.1694802470218961
mem,resp,977,1,mem2.3.1.bmp,mem3.2.3.bmp,mem2.1.1.bmp,ACC030,"[0, 3, -3]","[3, 0, 3]","[0, -3, -3]",non-match,0.7155429496238267,2,-0.4039971808589823,-0.901134333883107,0.9396347655310815,2nd,1st,4th,-0.3720543185380123,-1.1902959649489466,1.1694802470218961
mem,resp,630,1,mem3.3.1.bmp,mem3.3.3.bmp,mem1.2.3.bmp,ACC030,"[3, 3, -3]","[3, 3, 3]","[-3, 0, 3]",non-match,0.4884773718476586,1,0.6488526421416545,-0.8828957431005672,1.0233865051461986,3rd,1st,4th,0.25556048246868823,-1.1902959649489466,1.1694802470218961
mem,resp,625,0,mem3.1.1.bmp,mem2.2.1.bmp,mem3.2.1.bmp,ACC030,"[3, -3, -3]","[0, 0, -3]","[3, 0, -3]",non-match,1.4226497308103743,4,0.12621949107771363,0.10157292397739123,0.9696876337866184,3rd,3rd,4th,0.25556048246868823,0.30533018621900176,1.1694802470218961
mem,resp,1030,1,mem1.2.1.bmp,mem3.1.2.bmp,mem3.3.2.bmp,ACC030,"[-3, 0, -3]","[3, -3, 0]","[3, 3, 0]",non-match,0.7155429496238267,2,0.8317314046244012,-0.5382376052078519,1.036974186556649,4th,2nd,4th,1.337594499788957,-0.3818589359899456,1.1694802470218961
mem,resp,978,1,mem2.1.3.bmp,mem1.3.1.bmp,mem2.1.3.bmp,ACC030,"[0, -3, 3]","[-3, 3, -3]","[0, -3, 3]",match,1.1339745962155614,,-1.561970202682826,-1.0255370033514581,1.480522290716898,1st,1st,4th,-1.2178657209035737,-1.1902959649489466,1.1694802470218961
mem,resp,661,0,mem2.1.1.bmp,mem1.3.2.bmp,mem1.1.2.bmp,ACC030,"[0, -3, -3]","[-3, 3, 0]","[-3, -3, 0]",non-match,1.0144014403465114,3,-0.7807776089985519,-0.18567475550201437,1.299582374162718,1st,2nd,4th,-1.2178657209035737,-0.3818589359899456,1.1694802470218961
mem,resp,697,1,mem3.2.1.bmp,mem3.3.3.bmp,mem1.1.1.bmp,ACC030,"[3, 0, -3]","[3, 3, 3]","[-3, -3, -3]",non-match,0.3545027756320972,1,1.790232586662719,0.04574458958629407,0.9461562990468249,4th,3rd,4th,1.337594499788957,0.30533018621900176,1.1694802470218961
mem,resp,700,1,mem3.1.3.bmp,mem3.3.2.bmp,mem3.3.2.bmp,ACC030,"[3, -3, 3]","[3, 3, 0]","[3, 3, 0]",match,1.3545027756320973,,-1.1256274166170543,-0.19323406821759942,1.116627750932218,1st,2nd,4th,-1.2178657209035737,-0.3818589359899456,1.1694802470218961
mem,resp,836,0,mem2.3.3.bmp,mem3.2.2.bmp,mem3.2.3.bmp,ACC030,"[0, 3, 3]","[3, 0, 0]","[3, 0, 3]",non-match,1.3030765749413242,4,-1.0453223986290432,-0.8400998141382385,1.25366693280723,1st,1st,4th,-1.2178657209035737,-1.1902959649489466,1.1694802470218961
mem,resp,548,1,mem2.2.2.bmp,mem1.1.2.bmp,mem1.1.2.bmp,ACC030,"[0, 0, 0]","[-3, -3, 0]","[-3, -3, 0]",match,1.591751709536137,,-0.4196310635826065,0.6731040898600055,1.3686225733775694,2nd,3rd,4th,-0.3720543185380123,0.30533018621900176,1.1694802470218961
mem,resp,963,1,mem1.2.2.bmp,mem2.2.3.bmp,mem2.2.3.bmp,ACC030,"[-3, 0, 0]","[0, 0, 3]","[0, 0, 3]",match,1.591751709536137,,-1.6412816138978308,-0.6098025729945815,1.4716655107024113,1st,2nd,4th,-1.2178657209035737,-0.3818589359899456,1.1694802470218961
mem,resp,614,1,mem1.3.3.bmp,mem1.3.1.bmp,mem3.2.1.bmp,ACC030,"[-3, 3, 3]","[-3, 3, -3]","[3, 0, -3]",non-match,0.4884773718476586,1,0.7913461448491583,-0.7927487942550604,1.043609905818085,4th,1st,4th,1.337594499788957,-1.1902959649489466,1.1694802470218961
mem,resp,648,1,mem2.3.3.bmp,mem2.3.2.bmp,mem1.3.2.bmp,ACC030,"[0, 3, 3]","[0, 3, 0]","[-3, 3, 0]",non-match,1.3030765749413242,4,0.2891475907402619,1.4490502524350668,1.0641241317815058,3rd,4th,4th,0.25556048246868823,1.2706896537859529,1.1694802470218961
mem,resp,531,1,mem2.2.2.bmp,mem2.1.3.bmp,mem2.2.2.bmp,ACC030,"[0, 0, 0]","[0, -3, 3]","[0, 0, 0]",match,1.591751709536137,,0.1759130511321592,1.9847451098300883,1.0271082986432598,3rd,4th,4th,0.25556048246868823,1.2706896537859529,1.1694802470218961
mem,resp,634,0,mem1.1.1.bmp,mem3.2.3.bmp,mem2.1.2.bmp,ACC030,"[-3, -3, -3]","[3, 0, 3]","[0, -3, 0]",non-match,1.091751709536137,4,2.0964316191924275,0.008063887730958754,1.124032024444813,4th,3rd,4th,1.337594499788957,0.30533018621900176,1.1694802470218961
mem,resp,569,1,mem2.2.3.bmp,mem3.1.3.bmp,mem3.1.3.bmp,ACC030,"[0, 0, 3]","[3, -3, 3]","[3, -3, 3]",match,1.591751709536137,,1.230798598879756,0.21828792295742389,1.05384247183836,4th,3rd,4th,1.337594499788957,0.30533018621900176,1.1694802470218961
mem,resp,590,0,mem3.2.2.bmp,mem1.3.2.bmp,mem1.3.3.bmp,ACC030,"[3, 0, 0]","[-3, 3, 0]","[-3, 3, 3]",non-match,1.0042180842186395,3,-0.1072464343999275,0.9348313490540098,1.2935656974983165,3rd,4th,4th,0.25556048246868823,1.2706896537859529,1.1694802470218961
mem,resp,907,1,mem3.1.2.bmp,mem2.3.1.bmp,mem3.1.2.bmp,ACC030,"[3, -3, 0]","[0, 3, -3]","[3, -3, 0]",match,1.2928932188134525,,-1.0614750042377878,-0.5839478021287896,0.828499353731152,1st,2nd,4th,-1.2178657209035737,-0.3818589359899456,1.1694802470218961
mem,resp,840,0,mem1.2.3.bmp,mem3.1.1.bmp,mem1.3.1.bmp,ACC030,"[-3, 0, 3]","[3, -3, -3]","[-3, 3, -3]",non-match,0.5380061947043713,1,-0.8041745277194836,-0.9329178453991683,0.8575605343494515,1st,1st,4th,-1.2178657209035737,-1.1902959649489466,1.1694802470218961
mem,resp,826,1,mem3.3.2.bmp,mem1.1.3.bmp,mem2.1.1.bmp,ACC030,"[3, 3, 0]","[-3, -3, 3]","[0, -3, -3]",non-match,0.6473959944455496,1,0.4653175917434566,1.0319214637644913,0.8303982571813081,3rd,4th,4th,0.25556048246868823,1.2706896537859529,1.1694802470218961
mem,resp,821,1,mem1.2.1.bmp,mem2.1.2.bmp,mem2.2.3.bmp,ACC030,"[-3, 0, -3]","[0, -3, 0]","[0, 0, 3]",non-match,0.9462544851682343,3,1.1424184010425606,-0.14292656558703576,0.7714672899884891,4th,2nd,4th,1.337594499788957,-0.3818589359899456,1.1694802470218961
mem,resp,635,1,mem2.2.1.bmp,mem1.2.2.bmp,mem3.2.2.bmp,ACC030,"[0, 0, -3]","[-3, 0, 0]","[3, 0, 0]",non-match,1.0144014403465114,3,2.6507986229469593,-0.4043417484838808,1.1211410710699692,4th,2nd,4th,1.337594499788957,-0.3818589359899456,1.1694802470218961
mem,resp,711,1,mem3.2.1.bmp,mem3.1.2.bmp,mem1.2.2.bmp,ACC030,"[3, 0, -3]","[3, -3, 0]","[-3, 0, 0]",non-match,0.7090055512641944,2,0.8409377795931937,0.8217517257960898,0.029037643821701025,4th,4th,2nd,1.337594499788957,1.2706896537859529,-0.22958241231144136
mem,resp,674,1,mem2.3.2.bmp,mem3.3.3.bmp,mem3.3.3.bmp,ACC030,"[0, 3, 0]","[3, 3, 3]","[3, 3, 3]",match,1.591751709536137,,-0.194640417476506,-0.5781867094325505,0.12549127479481698,2nd,2nd,3rd,-0.3720543185380123,-0.3818589359899456,0.3956570519266262
mem,resp,678,1,mem2.2.3.bmp,mem1.2.1.bmp,mem2.2.3.bmp,ACC030,"[0, 0, 3]","[-3, 0, -3]","[0, 0, 3]",match,1.3545027756320973,,-0.943585730485916,-0.7051427680213718,-0.20156751324963879,1st,2nd,2nd,-1.2178657209035737,-0.3818589359899456,-0.22958241231144136
mem,resp,1025,1,mem3.2.2.bmp,mem1.3.2.bmp,mem2.2.1.bmp,ACC030,"[3, 0, 0]","[-3, 3, 0]","[0, 0, -3]",non-match,1.091751709536137,4,-0.6384664832505095,-0.01066027651773047,-0.14976996648065352,2nd,3rd,2nd,-0.3720543185380123,0.30533018621900176,-0.22958241231144136
mem,resp,698,1,mem1.1.2.bmp,mem2.3.3.bmp,mem2.3.3.bmp,ACC030,"[-3, -3, 0]","[0, 3, 3]","[0, 3, 3]",match,1.2928932188134525,,0.9495331108765469,0.40134861749047884,-0.20818548894692168,4th,3rd,2nd,1.337594499788957,0.30533018621900176,-0.22958241231144136
mem,resp,549,1,mem1.1.3.bmp,mem1.2.2.bmp,mem1.1.3.bmp,ACC030,"[-3, -3, 3]","[-3, 0, 0]","[-3, -3, 3]",match,1.591751709536137,,1.5456530624727107,0.6819825482565203,0.01588508647081206,4th,3rd,2nd,1.337594499788957,0.30533018621900176,-0.22958241231144136
mem,resp,564,1,mem1.2.1.bmp,mem1.2.3.bmp,mem1.2.3.bmp,ACC030,"[-3, 0, -3]","[-3, 0, 3]","[-3, 0, 3]",match,1.4226497308103743,,1.0629750790702035,-0.6216357121076107,0.234556256194007,4th,2nd,3rd,1.337594499788957,-0.3818589359899456,0.3956570519266262
mem,resp,665,1,mem3.3.2.bmp,mem3.1.3.bmp,mem3.1.3.bmp,ACC030,"[3, 3, 0]","[3, -3, 3]","[3, -3, 3]",match,1.3545027756320973,,-0.6631970560805662,1.34274142044974,0.12040920988689983,2nd,4th,3rd,-0.3720543185380123,1.2706896537859529,0.3956570519266262
mem,resp,578,1,mem2.1.2.bmp,mem2.2.2.bmp,mem2.1.2.bmp,ACC030,"[0, -3, 0]","[0, 0, 0]","[0, -3, 0]",match,1.7113248654051871,,0.3524913139689704,3.156279056701447,0.5201618866417803,3rd,4th,3rd,0.25556048246868823,1.2706896537859529,0.3956570519266262
mem,resp,682,1,mem2.3.1.bmp,mem3.1.1.bmp,mem2.3.1.bmp,ACC030,"[0, 3, -3]","[3, -3, -3]","[0, 3, -3]",match,1.3545027756320973,,2.018186028465904,-0.7296432683749838,0.46212346878801114,4th,1st,3rd,1.337594499788957,-1.1902959649489466,0.3956570519266262
mem,resp,615,1,mem1.3.1.bmp,mem3.2.2.bmp,mem1.3.1.bmp,ACC030,"[-3, 3, -3]","[3, 0, 0]","[-3, 3, -3]",match,1.2928932188134525,,1.2644889211853771,0.43471171246063833,0.518355199594184,4th,3rd,3rd,1.337594499788957,0.30533018621900176,0.3956570519266262
mem,resp,798,1,mem2.1.3.bmp,mem3.2.3.bmp,mem1.3.3.bmp,ACC030,"[0, -3, 3]","[3, 0, 3]","[-3, 3, 3]",non-match,0.7090055512641944,2,1.053502519571736,0.0967323145586207,0.3244962323392523,4th,3rd,3rd,1.337594499788957,0.30533018621900176,0.3956570519266262
mem,resp,682,0,mem3.1.3.bmp,mem1.1.1.bmp,mem1.2.1.bmp,ACC030,"[3, -3, 3]","[-3, -3, -3]","[-3, 0, -3]",non-match,0.8452994616207485,2,-0.37035989149668186,-0.6572658800800973,0.31528942653098685,2nd,2nd,3rd,-0.3720543185380123,-0.3818589359899456,0.3956570519266262
mem,resp,876,1,mem3.1.1.bmp,mem2.1.1.bmp,mem2.1.1.bmp,ACC030,"[3, -3, -3]","[0, -3, -3]","[0, -3, -3]",match,1.7113248654051871,,-0.9399728538905224,-0.2846846534619451,0.5280290722700335,1st,2nd,3rd,-1.2178657209035737,-0.3818589359899456,0.3956570519266262
mem,resp,681,1,mem3.3.3.bmp,mem2.2.1.bmp,mem2.2.1.bmp,ACC030,"[3, 3, 3]","[0, 0, -3]","[0, 0, -3]",match,1.2928932188134525,,-1.1240417138672585,-0.1072816268697001,0.6288243861203028,1st,2nd,3rd,-1.2178657209035737,-0.3818589359899456,0.3956570519266262
mem,resp,633,0,mem3.1.2.bmp,mem1.3.3.bmp,mem2.1.2.bmp,ACC030,"[3, -3, 0]","[-3, 3, 3]","[0, -3, 0]",non-match,1.0042180842186395,3,0.47138656488401204,0.22523094111495004,0.7007977407780005,3rd,3rd,3rd,0.25556048246868823,0.30533018621900176,0.3956570519266262
mem,resp,898,1,mem1.3.2.bmp,mem3.2.2.bmp,mem1.1.1.bmp,ACC030,"[-3, 3, 0]","[3, 0, 0]","[-3, -3, -3]",non-match,0.6473959944455496,1,-0.7625796326284862,-0.8530816445366457,0.5973517655749648,1st,1st,3rd,-1.2178657209035737,-1.1902959649489466,0.3956570519266262
mem,resp,783,1,mem3.3.1.bmp,mem2.3.1.bmp,mem3.3.1.bmp,ACC030,"[3, 3, -3]","[0, 3, -3]","[3, 3, -3]",match,1.7113248654051871,,0.47754638934518256,-0.0573061115003511,0.6561698403765205,3rd,2nd,3rd,0.25556048246868823,-0.3818589359899456,0.3956570519266262
mem,resp,899,1,mem2.3.3.bmp,mem3.1.3.bmp,mem3.1.3.bmp,ACC030,"[0, 3, 3]","[3, -3, 3]","[3, -3, 3]",match,1.3545027756320973,,-1.8234569425762448,-0.15049704498572647,0.4677009712105264,1st,2nd,3rd,-1.2178657209035737,-0.3818589359899456,0.3956570519266262
mem,resp,592,1,mem3.2.3.bmp,mem3.1.1.bmp,mem3.2.3.bmp,ACC030,"[3, 0, 3]","[3, -3, -3]","[3, 0, 3]",match,1.3545027756320973,,0.7591799786616041,0.39088821232068943,0.2911620683563353,4th,3rd,3rd,1.337594499788957,0.30533018621900176,0.3956570519266262
mem,resp,805,1,mem2.1.1.bmp,mem3.2.1.bmp,mem1.2.1.bmp,ACC030,"[0, -3, -3]","[3, 0, -3]","[-3, 0, -3]",non-match,1.0144014403465114,3,-0.49968868642883846,-1.3609137073867015,-0.04660072157331688,2nd,1st,2nd,-0.3720543185380123,-1.1902959649489466,-0.22958241231144136
mem,resp,630,0,mem1.3.3.bmp,mem1.1.2.bmp,mem1.3.2.bmp,ACC030,"[-3, 3, 3]","[-3, -3, 0]","[-3, 3, 0]",non-match,1.1339745962155614,4,1.0323101181418746,-0.45582541598524096,-0.3229426550979904,4th,2nd,2nd,1.337594499788957,-0.3818589359899456,-0.22958241231144136
mem,resp,691,0,mem1.2.3.bmp,mem3.3.1.bmp,mem1.1.3.bmp,ACC030,"[-3, 0, 3]","[3, 3, -3]","[-3, -3, 3]",non-match,0.7113248654051871,2,0.0917142536777762,-1.200517066500245,-0.4398703438901663,3rd,1st,2nd,0.25556048246868823,-1.1902959649489466,-0.22958241231144136
mem,resp,787,1,mem2.2.1.bmp,mem1.3.1.bmp,mem2.2.3.bmp,ACC030,"[0, 0, -3]","[-3, 3, -3]","[0, 0, 3]",non-match,0.7155429496238267,2,0.4667826327028311,-0.46100616611638295,-0.3688842428574106,3rd,2nd,2nd,0.25556048246868823,-0.3818589359899456,-0.22958241231144136
mem,resp,788,0,mem1.1.1.bmp,mem3.3.2.bmp,mem3.2.3.bmp,ACC030,"[-3, -3, -3]","[3, 3, 0]","[3, 0, 3]",non-match,0.7257263057516985,2,-0.16210975607250153,-1.4013646033553933,-0.7238026206354008,2nd,1st,1st,-0.3720543185380123,-1.1902959649489466,-1.330546569524086
mem,resp,551,1,mem2.2.2.bmp,mem2.1.3.bmp,mem2.1.3.bmp,ACC030,"[0, 0, 0]","[0, -3, 3]","[0, -3, 3]",match,1.591751709536137,,-0.07327435688465236,0.9689296726197488,-0.41024051017672314,3rd,4th,2nd,0.25556048246868823,1.2706896537859529,-0.22958241231144136
mem,resp,606,1,mem1.2.2.bmp,mem2.3.2.bmp,mem1.2.2.bmp,ACC030,"[-3, 0, 0]","[0, 3, 0]","[-3, 0, 0]",match,1.591751709536137,,0.47239447812917307,-0.26865343233105476,-0.4716139359222223,3rd,2nd,2nd,0.25556048246868823,-0.3818589359899456,-0.22958241231144136
mem,resp,608,1,mem3.3.3.bmp,mem1.1.3.bmp,mem3.3.3.bmp,ACC030,"[3, 3, 3]","[-3, -3, 3]","[3, 3, 3]",match,1.1835034190722742,,1.0084353762117904,-0.24530129830643405,0.03442692087152402,4th,2nd,2nd,1.337594499788957,-0.3818589359899456,-0.22958241231144136
mem,resp,1076,1,mem3.3.1.bmp,mem3.2.3.bmp,mem3.2.3.bmp,ACC030,"[3, 3, -3]","[3, 0, 3]","[3, 0, 3]",match,1.3545027756320973,,-0.668839208930189,-0.6294984159223842,0.5070722573870051,1st,2nd,3rd,-1.2178657209035737,-0.3818589359899456,0.3956570519266262
mem,resp,962,1,mem1.1.2.bmp,mem2.2.1.bmp,mem3.1.3.bmp,ACC030,"[-3, -3, 0]","[0, 0, -3]","[3, -3, 3]",non-match,0.6473959944455496,1,-0.7967628999421533,-0.543961209753666,0.38644375700552386,1st,2nd,3rd,-1.2178657209035737,-0.3818589359899456,0.3956570519266262
mem,resp,655,1,mem1.3.2.bmp,mem2.2.3.bmp,mem2.2.3.bmp,ACC030,"[-3, 3, 0]","[0, 0, 3]","[0, 0, 3]",match,1.5,,0.7972648878159176,0.519495078895269,0.2779114449467573,4th,3rd,3rd,1.337594499788957,0.30533018621900176,0.3956570519266262
mem,resp,657,1,mem1.1.3.bmp,mem2.1.2.bmp,mem1.1.3.bmp,ACC030,"[-3, -3, 3]","[0, -3, 0]","[-3, -3, 3]",match,1.591751709536137,,2.1045809735321717,-0.5325949443438079,0.14635168722526143,4th,2nd,3rd,1.337594499788957,-0.3818589359899456,0.3956570519266262
mem,resp,894,1,mem3.2.3.bmp,mem1.3.3.bmp,mem2.2.2.bmp,ACC030,"[3, 0, 3]","[-3, 3, 3]","[0, 0, 0]",non-match,1.091751709536137,4,-0.9800293240987445,0.278600891816443,0.2790492190657544,1st,3rd,3rd,-1.2178657209035737,0.30533018621900176,0.3956570519266262
mem,resp,749,0,mem1.2.1.bmp,mem1.2.3.bmp,mem1.2.3.bmp,ACC030,"[-3, 0, -3]","[-3, 0, 3]","[-3, 0, 3]",match,1.4226497308103743,,0.036271642388328175,-1.214758398311884,0.15527047988256548,3rd,1st,3rd,0.25556048246868823,-1.1902959649489466,0.3956570519266262
mem,resp,521,1,mem1.3.1.bmp,mem1.3.2.bmp,mem1.3.2.bmp,ACC030,"[-3, 3, -3]","[-3, 3, 0]","[-3, 3, 0]",match,1.7113248654051871,,1.4070774096092686,0.7561594563962994,0.2754707284883736,4th,4th,3rd,1.337594499788957,1.2706896537859529,0.3956570519266262
mem,resp,695,1,mem3.1.2.bmp,mem3.3.3.bmp,mem1.1.2.bmp,ACC030,"[3, -3, 0]","[3, 3, 3]","[-3, -3, 0]",non-match,0.5566243270259357,1,1.6666557313605526,-1.7566459347968728,0.1650191218332166,4th,1st,3rd,1.337594499788957,-1.1902959649489466,0.3956570519266262
mem,resp,668,1,mem3.2.1.bmp,mem3.2.2.bmp,mem3.2.2.bmp,ACC030,"[3, 0, -3]","[3, 0, 0]","[3, 0, 0]",match,1.7113248654051871,,-0.4846966064472741,0.7881279567208435,-0.02254271534607393,2nd,4th,2nd,-0.3720543185380123,1.2706896537859529,-0.22958241231144136
mem,resp,690,1,mem2.1.1.bmp,mem2.1.3.bmp,mem2.3.1.bmp,ACC030,"[0, -3, -3]","[0, -3, 3]","[0, 3, -3]",non-match,0.6061531498826483,1,1.3586721205299606,0.8638212295267697,-0.155167629838635,4th,4th,2nd,1.337594499788957,1.2706896537859529,-0.22958241231144136
mem,resp,563,1,mem3.1.1.bmp,mem2.3.2.bmp,mem3.1.1.bmp,ACC030,"[3, -3, -3]","[0, 3, 0]","[3, -3, -3]",match,1.2928932188134525,,1.5014949672007656,0.340245472865044,-0.4224495703135382,4th,3rd,2nd,1.337594499788957,0.30533018621900176,-0.22958241231144136
mem,resp,778,1,mem3.1.3.bmp,mem3.1.2.bmp,mem3.3.1.bmp,ACC030,"[3, -3, 3]","[3, -3, 0]","[3, 3, -3]",non-match,0.5380061947043713,1,-0.7386968198650632,-0.342731435563328,-0.1668393904238927,1st,2nd,2nd,-1.2178657209035737,-0.3818589359899456,-0.22958241231144136
mem,resp,853,1,mem2.3.2.bmp,mem2.2.1.bmp,mem2.3.2.bmp,ACC030,"[0, 3, 0]","[0, 0, -3]","[0, 3, 0]",match,1.591751709536137,,-0.35053479545952415,-1.2254379127107558,-0.28318662393299604,2nd,1st,2nd,-0.3720543185380123,-1.1902959649489466,-0.22958241231144136
mem,resp,655,1,mem3.2.3.bmp,mem1.2.3.bmp,mem3.2.3.bmp,ACC030,"[3, 0, 3]","[-3, 0, 3]","[3, 0, 3]",match,1.4226497308103743,,-1.2638538330116256,-0.6581870428118294,-0.24187018227014684,1st,2nd,2nd,-1.2178657209035737,-0.3818589359899456,-0.22958241231144136
mem,resp,526,1,mem1.1.1.bmp,mem2.2.3.bmp,mem1.1.1.bmp,ACC030,"[-3, -3, -3]","[0, 0, 3]","[-3, -3, -3]",match,1.2928932188134525,,1.1013973761745295,-0.012841088370141798,0.13174747623499378,4th,2nd,3rd,1.337594499788957,-0.3818589359899456,0.3956570519266262
mem,resp,1265,1,mem1.3.3.bmp,mem3.2.2.bmp,mem2.2.2.bmp,ACC030,"[-3, 3, 3]","[3, 0, 0]","[0, 0, 0]",non-match,1.2113248654051871,4,0.043770121879073275,-0.6556784385897397,0.24290138378317755,3rd,2nd,3rd,0.25556048246868823,-0.3818589359899456,0.3956570519266262
mem,resp,951,0,mem1.1.3.bmp,mem2.3.2.bmp,mem2.1.1.bmp,ACC030,"[-3, -3, 3]","[0, 3, 0]","[0, -3, -3]",non-match,0.7090055512641944,2,-0.9550105563972117,-0.9948542668244863,0.6138797310676808,1st,1st,3rd,-1.2178657209035737,-1.1902959649489466,0.3956570519266262
mem,resp,967,1,mem2.1.2.bmp,mem2.3.1.bmp,mem2.3.1.bmp,ACC030,"[0, -3, 0]","[0, 3, -3]","[0, 3, -3]",match,1.3545027756320973,,-0.8158175256014566,-0.018754290196831124,0.7816691740929128,1st,2nd,4th,-1.2178657209035737,-0.3818589359899456,1.1694802470218961
mem,resp,570,1,mem2.1.3.bmp,mem3.1.3.bmp,mem3.3.3.bmp,ACC030,"[0, -3, 3]","[3, -3, 3]","[3, 3, 3]",non-match,0.7771525064424715,2,1.9291577479019688,0.0016267971259829289,1.5670108050104632,4th,3rd,4th,1.337594499788957,0.30533018621900176,1.1694802470218961
mem,resp,714,0,mem3.1.2.bmp,mem1.1.1.bmp,mem1.2.3.bmp,ACC030,"[3, -3, 0]","[-3, -3, -3]","[-3, 0, 3]",non-match,0.6473959944455496,1,0.16100703328877827,0.1012000512944362,1.6015111179840773,3rd,3rd,4th,0.25556048246868823,0.30533018621900176,1.1694802470218961
mem,resp,929,1,mem1.1.2.bmp,mem3.2.1.bmp,mem2.2.1.bmp,ACC030,"[-3, -3, 0]","[3, 0, -3]","[0, 0, -3]",non-match,1.2113248654051871,4,0.9400614267703715,-0.14942752489273614,1.3774657688867715,4th,2nd,4th,1.337594499788957,-0.3818589359899456,1.1694802470218961
mem,resp,551,1,mem2.2.2.bmp,mem1.3.3.bmp,mem1.3.3.bmp,ACC030,"[0, 0, 0]","[-3, 3, 3]","[-3, 3, 3]",match,1.5,,0.36116461087924956,-0.5757209403705211,1.7351180460366638,3rd,2nd,4th,0.25556048246868823,-0.3818589359899456,1.1694802470218961
mem,resp,633,1,mem1.3.1.bmp,mem1.1.3.bmp,mem2.1.1.bmp,ACC030,"[-3, 3, -3]","[-3, -3, 3]","[0, -3, -3]",non-match,0.7090055512641944,2,1.1019153873393939,0.46003213686079125,1.4721546480712204,4th,3rd,4th,1.337594499788957,0.30533018621900176,1.1694802470218961
mem,resp,838,0,mem2.2.3.bmp,mem3.3.1.bmp,mem2.3.2.bmp,ACC030,"[0, 0, 3]","[3, 3, -3]","[0, 3, 0]",non-match,1.1835034190722742,4,-0.30416202688817584,-1.6173007071759453,1.8866130900720013,2nd,1st,4th,-0.3720543185380123,-1.1902959649489466,1.1694802470218961
mem,resp,923,1,mem1.2.2.bmp,mem1.2.1.bmp,mem1.2.1.bmp,ACC030,"[-3, 0, 0]","[-3, 0, -3]","[-3, 0, -3]",match,1.7113248654051871,,-0.07462388591590538,0.40388853569164757,1.9601740826329288,3rd,3rd,4th,0.25556048246868823,0.30533018621900176,1.1694802470218961
mem,resp,929,0,mem3.2.2.bmp,mem1.1.2.bmp,mem3.2.3.bmp,ACC030,"[3, 0, 0]","[-3, -3, 0]","[3, 0, 3]",non-match,1.0042180842186395,3,-0.1501898123521235,-0.6866069603109904,1.3796019162488133,2nd,2nd,4th,-0.3720543185380123,-0.3818589359899456,1.1694802470218961
mem,resp,620,1,mem1.3.2.bmp,mem2.3.3.bmp,mem3.3.2.bmp,ACC030,"[-3, 3, 0]","[0, 3, 3]","[3, 3, 0]",non-match,1.0144014403465114,3,1.3298779589071918,0.12967379338782536,1.0835595436888752,4th,3rd,4th,1.337594499788957,0.30533018621900176,1.1694802470218961
mem,resp,734,1,mem3.3.1.bmp,mem1.3.1.bmp,mem1.3.1.bmp,ACC030,"[3, 3, -3]","[-3, 3, -3]","[-3, 3, -3]",match,1.4226497308103743,,-0.3422469560465642,-0.6338088442255625,0.8882138753475449,2nd,2nd,4th,-0.3720543185380123,-0.3818589359899456,1.1694802470218961
mem,resp,877,1,mem3.3.3.bmp,mem3.1.2.bmp,mem3.1.2.bmp,ACC030,"[3, 3, 3]","[3, -3, 0]","[3, -3, 0]",match,1.3545027756320973,,-0.6183463410553801,-1.0974345492291961,0.5713139833612557,2nd,1st,3rd,-0.3720543185380123,-1.1902959649489466,0.3956570519266262
mem,resp,629,1,mem3.1.1.bmp,mem2.1.2.bmp,mem1.1.3.bmp,ACC030,"[3, -3, -3]","[0, -3, 0]","[-3, -3, 3]",non-match,0.7752551286084112,2,1.835086246206187,0.7437916163197542,0.26971845420966306,4th,4th,3rd,1.337594499788957,1.2706896537859529,0.3956570519266262
mem,resp,593,1,mem2.2.1.bmp,mem2.2.2.bmp,mem2.2.1.bmp,ACC030,"[0, 0, -3]","[0, 0, 0]","[0, 0, -3]",match,1.7113248654051871,,-0.5741940549193559,0.7086109516544974,0.7133414719343372,2nd,4th,3rd,-0.3720543185380123,1.2706896537859529,0.3956570519266262
mem,resp,880,1,mem3.2.1.bmp,mem3.3.2.bmp,mem3.2.1.bmp,ACC030,"[3, 0, -3]","[3, 3, 0]","[3, 0, -3]",match,1.591751709536137,,0.8487197114410208,-0.9877645160876346,0.2756349514686376,4th,1st,3rd,1.337594499788957,-1.1902959649489466,0.3956570519266262
mem,resp,644,1,mem2.3.1.bmp,mem3.2.3.bmp,mem2.1.3.bmp,ACC030,"[0, 3, -3]","[3, 0, 3]","[0, -3, 3]",non-match,0.7752551286084112,2,-0.2594092834216843,-0.04663501642604299,0.1265105093935445,2nd,2nd,3rd,-0.3720543185380123,-0.3818589359899456,0.3956570519266262
mem,resp,907,1,mem1.2.3.bmp,mem2.1.1.bmp,mem2.1.1.bmp,ACC030,"[-3, 0, 3]","[0, -3, -3]","[0, -3, -3]",match,1.2928932188134525,,-0.14898464215454896,-1.436598162057953,0.10983591910455011,2nd,1st,2nd,-0.3720543185380123,-1.1902959649489466,-0.22958241231144136
mem,resp,588,1,mem1.2.1.bmp,mem1.3.2.bmp,mem1.2.1.bmp,ACC030,"[-3, 0, -3]","[-3, 3, 0]","[-3, 0, -3]",match,1.591751709536137,,-0.07969096083392178,0.013736385499597303,0.08310853456577592,3rd,3rd,2nd,0.25556048246868823,0.30533018621900176,-0.22958241231144136
mem,resp,826,0,mem2.3.3.bmp,mem1.3.1.bmp,mem2.2.3.bmp,ACC030,"[0, 3, 3]","[-3, 3, -3]","[0, 0, 3]",non-match,1.0042180842186395,3,0.04159364218175641,-0.07248399715985385,-0.4705697289631685,3rd,2nd,2nd,0.25556048246868823,-0.3818589359899456,-0.22958241231144136
mem,resp,656,0,mem3.3.2.bmp,mem2.2.1.bmp,mem3.3.3.bmp,ACC030,"[3, 3, 0]","[0, 0, -3]","[3, 3, 3]",non-match,1.0042180842186395,3,-0.4455999584247692,0.6913190179092976,-0.49925914546555494,2nd,4th,2nd,-0.3720543185380123,1.2706896537859529,-0.22958241231144136
mem,resp,1051,0,mem2.1.1.bmp,mem1.1.3.bmp,mem1.2.3.bmp,ACC030,"[0, -3, -3]","[-3, -3, 3]","[-3, 0, 3]",non-match,1.0042180842186395,3,-0.09793723017878593,1.1064687040191117,-0.21389830547622835,3rd,4th,2nd,0.25556048246868823,1.2706896537859529,-0.22958241231144136
mem,resp,715,1,mem3.1.3.bmp,mem3.1.1.bmp,mem3.1.3.bmp,ACC030,"[3, -3, 3]","[3, -3, -3]","[3, -3, 3]",match,1.4226497308103743,,-0.4595443514300265,0.4089621092981686,-0.32561961917577203,2nd,3rd,2nd,-0.3720543185380123,0.30533018621900176,-0.22958241231144136
mem,resp,631,1,mem3.2.2.bmp,mem2.2.2.bmp,mem2.2.3.bmp,ACC030,"[3, 0, 0]","[0, 0, 0]","[0, 0, 3]",non-match,1.3030765749413242,4,0.22404541128610053,0.3814514197689012,-0.6617941962822314,3rd,3rd,1st,0.25556048246868823,0.30533018621900176,-1.330546569524086
mem,resp,604,1,mem2.2.1.bmp,mem3.2.3.bmp,mem1.2.2.bmp,ACC030,"[0, 0, -3]","[3, 0, 3]","[-3, 0, 0]",non-match,0.9462544851682343,3,1.8531328073112885,0.5094146954489417,-0.7524659636769463,4th,3rd,1st,1.337594499788957,0.30533018621900176,-1.330546569524086
mem,resp,743,1,mem2.1.3.bmp,mem2.3.1.bmp,mem2.3.1.bmp,ACC030,"[0, -3, 3]","[0, 3, -3]","[0, 3, -3]",match,1.1835034190722742,,-0.8980646424788429,0.14614784144927337,-0.8111695782457289,1st,3rd,1st,-1.2178657209035737,0.30533018621900176,-1.330546569524086
mem,resp,686,0,mem2.1.1.bmp,mem2.3.2.bmp,mem3.1.3.bmp,ACC030,"[0, -3, -3]","[0, 3, 0]","[3, -3, 3]",non-match,0.6473959944455496,1,1.0278496806659734,-0.7177875300223364,-0.7187413824755499,4th,2nd,1st,1.337594499788957,-0.3818589359899456,-1.330546569524086
mem,resp,672,1,mem3.2.1.bmp,mem2.1.2.bmp,mem2.1.2.bmp,ACC030,"[3, 0, -3]","[0, -3, 0]","[0, -3, 0]",match,1.5,,-0.3562007512206337,-0.23429396199639438,-0.6811376589648674,2nd,2nd,1st,-0.3720543185380123,-0.3818589359899456,-1.330546569524086
mem,resp,702,1,mem3.1.1.bmp,mem2.2.3.bmp,mem2.2.3.bmp,ACC030,"[3, -3, -3]","[0, 0, 3]","[0, 0, 3]",match,1.2928932188134525,,-0.2907222078955011,1.1517734144524687,-0.544842493783308,2nd,4th,2nd,-0.3720543185380123,1.2706896537859529,-0.22958241231144136
mem,resp,597,1,mem3.1.2.bmp,mem1.2.2.bmp,mem3.1.2.bmp,ACC030,"[3, -3, 0]","[-3, 0, 0]","[3, -3, 0]",match,1.3545027756320973,,0.15729797546271254,0.8242219851645528,-0.7844922349198891,3rd,4th,1st,0.25556048246868823,1.2706896537859529,-1.330546569524086
mem,resp,691,1,mem2.3.2.bmp,mem3.2.2.bmp,mem2.3.2.bmp,ACC030,"[0, 3, 0]","[3, 0, 0]","[0, 3, 0]",match,1.591751709536137,,-0.3625195353662614,1.2420711135198996,-0.6126417024097519,2nd,4th,1st,-0.3720543185380123,1.2706896537859529,-1.330546569524086
mem,resp,804,0,mem1.3.3.bmp,mem3.2.1.bmp,mem2.2.1.bmp,ACC030,"[-3, 3, 3]","[3, 0, -3]","[0, 0, -3]",non-match,1.0042180842186395,3,-0.29738442534330495,-0.1816722972289267,-0.1396794399407357,2nd,2nd,2nd,-0.3720543185380123,-0.3818589359899456,-0.22958241231144136
mem,resp,717,1,mem2.2.3.bmp,mem1.1.2.bmp,mem1.1.2.bmp,ACC030,"[0, 0, 3]","[-3, -3, 0]","[-3, -3, 0]",match,1.5,,1.3969923771439243,-0.47003395674331616,-0.31015555444505066,4th,2nd,2nd,1.337594499788957,-0.3818589359899456,-0.22958241231144136
mem,resp,641,0,mem1.1.3.bmp,mem2.3.3.bmp,mem1.2.3.bmp,ACC030,"[-3, -3, 3]","[0, 3, 3]","[-3, 0, 3]",non-match,1.3030765749413242,4,0.5465991790116923,-0.4441493194314406,0.18139023704906795,3rd,2nd,3rd,0.25556048246868823,-0.3818589359899456,0.3956570519266262
mem,resp,714,1,mem1.2.2.bmp,mem3.3.1.bmp,mem1.2.2.bmp,ACC030,"[-3, 0, 0]","[3, 3, -3]","[-3, 0, 0]",match,1.2928932188134525,,-0.02263425411387296,-0.584616119250205,0.4986325493520717,3rd,2nd,3rd,0.25556048246868823,-0.3818589359899456,0.3956570519266262
mem,resp,657,1,mem1.2.1.bmp,mem1.3.3.bmp,mem2.2.1.bmp,ACC030,"[-3, 0, -3]","[-3, 3, 3]","[0, 0, -3]",non-match,1.0042180842186395,3,0.7385127571184592,0.12378971946997709,0.21446457792371687,4th,3rd,3rd,1.337594499788957,0.30533018621900176,0.3956570519266262
mem,resp,628,1,mem2.1.3.bmp,mem1.1.1.bmp,mem2.1.3.bmp,ACC030,"[0, -3, 3]","[-3, -3, -3]","[0, -3, 3]",match,1.3545027756320973,,-0.231022430399982,-0.6590270846128532,0.2976306511944194,2nd,2nd,3rd,-0.3720543185380123,-0.3818589359899456,0.3956570519266262
mem,resp,794,1,mem3.1.2.bmp,mem3.1.1.bmp,mem1.1.2.bmp,ACC030,"[3, -3, 0]","[3, -3, -3]","[-3, -3, 0]",non-match,0.7771525064424715,2,0.20782273198792484,0.6230537163557645,0.5085926067171689,3rd,3rd,3rd,0.25556048246868823,0.30533018621900176,0.3956570519266262
mem,resp,624,1,mem2.2.2.bmp,mem3.3.2.bmp,mem1.2.1.bmp,ACC030,"[0, 0, 0]","[3, 3, 0]","[-3, 0, -3]",non-match,0.8846449283495895,2,0.9584666625314343,0.7659016488685753,0.7899970929249401,4th,4th,4th,1.337594499788957,1.2706896537859529,1.1694802470218961
mem,resp,1021,1,mem3.3.3.bmp,mem1.1.3.bmp,mem3.3.1.bmp,ACC030,"[3, 3, 3]","[-3, -3, 3]","[3, 3, -3]",non-match,0.42264973081037427,1,-0.8264771861989785,-0.8071911854455771,0.4773920949380224,1st,1st,3rd,-1.2178657209035737,-1.1902959649489466,0.3956570519266262
mem,resp,653,1,mem2.1.2.bmp,mem2.3.3.bmp,mem2.3.3.bmp,ACC030,"[0, -3, 0]","[0, 3, 3]","[0, 3, 3]",match,1.3545027756320973,,0.3133046129211799,-1.1454485096826645,0.5388308095668367,3rd,1st,3rd,0.25556048246868823,-1.1902959649489466,0.3956570519266262
mem,resp,778,1,mem2.2.3.bmp,mem2.2.1.bmp,mem3.1.2.bmp,ACC030,"[0, 0, 3]","[0, 0, -3]","[3, -3, 0]",non-match,1.0,3,-1.1854861982507623,-1.3947750638928358,0.8587759946569569,1st,1st,4th,-1.2178657209035737,-1.1902959649489466,1.1694802470218961
mem,resp,559,1,mem2.3.2.bmp,mem2.3.1.bmp,mem1.3.1.bmp,ACC030,"[0, 3, 0]","[0, 3, -3]","[-3, 3, -3]",non-match,1.3030765749413242,4,2.3095720613399777,1.8423462670436503,1.0091901920247683,4th,4th,4th,1.337594499788957,1.2706896537859529,1.1694802470218961
mem,resp,893,1,mem1.3.2.bmp,mem3.2.1.bmp,mem1.3.2.bmp,ACC030,"[-3, 3, 0]","[3, 0, -3]","[-3, 3, 0]",match,1.2928932188134525,,-1.5805695468993384,-1.5191655031844529,1.2743592381033588,1st,1st,4th,-1.2178657209035737,-1.1902959649489466,1.1694802470218961
mem,resp,676,0,mem3.3.1.bmp,mem2.1.3.bmp,mem1.1.1.bmp,ACC030,"[3, 3, -3]","[0, -3, 3]","[-3, -3, -3]",non-match,0.5380061947043713,1,-0.07984449006644351,-0.7733759284341147,0.9742727656870772,3rd,1st,4th,0.25556048246868823,-1.1902959649489466,1.1694802470218961
mem,resp,1022,1,mem1.3.3.bmp,mem1.2.2.bmp,mem1.2.2.bmp,ACC030,"[-3, 3, 3]","[-3, 0, 0]","[-3, 0, 0]",match,1.591751709536137,,-0.7689273688007952,-0.8430693246825808,1.4182102556498928,1st,1st,4th,-1.2178657209035737,-1.1902959649489466,1.1694802470218961
mem,resp,968,0,mem1.2.1.bmp,mem2.3.2.bmp,mem2.3.1.bmp,ACC030,"[-3, 0, -3]","[0, 3, 0]","[0, 3, -3]",non-match,1.3030765749413242,4,-1.2235407613144522,-0.8572311012624654,1.2702898684762727,1st,1st,4th,-1.2178657209035737,-1.1902959649489466,1.1694802470218961
mem,resp,570,1,mem1.1.3.bmp,mem1.1.2.bmp,mem1.1.3.bmp,ACC030,"[-3, -3, 3]","[-3, -3, 0]","[-3, -3, 3]",match,1.7113248654051871,,0.5265155618542842,-0.012664548427712974,1.2136594372075025,3rd,3rd,4th,0.25556048246868823,0.30533018621900176,1.1694802470218961
mem,resp,573,1,mem3.3.2.bmp,mem3.2.2.bmp,mem3.2.2.bmp,ACC030,"[3, 3, 0]","[3, 0, 0]","[3, 0, 0]",match,1.7113248654051871,,0.4756712248033048,-0.25070544118266425,1.111417863058397,3rd,2nd,4th,0.25556048246868823,-0.3818589359899456,1.1694802470218961
mem,resp,646,1,mem2.1.1.bmp,mem3.1.3.bmp,mem3.1.3.bmp,ACC030,"[0, -3, -3]","[3, -3, 3]","[3, -3, 3]",match,1.3545027756320973,,-0.5229917920237347,2.89340351980292,1.007827737211049,2nd,4th,4th,-0.3720543185380123,1.2706896537859529,1.1694802470218961
mem,resp,497,1,mem1.3.1.bmp,mem1.3.2.bmp,mem1.3.1.bmp,ACC030,"[-3, 3, -3]","[-3, 3, 0]","[-3, 3, -3]",match,1.7113248654051871,,-0.3784180711567644,-1.176738973735683,1.0526478967274326,2nd,1st,4th,-0.3720543185380123,-1.1902959649489466,1.1694802470218961
mem,resp,1015,1,mem1.1.1.bmp,mem3.2.3.bmp,mem2.1.3.bmp,ACC030,"[-3, -3, -3]","[3, 0, 3]","[0, -3, 3]",non-match,0.9462544851682343,3,-0.8155277725646118,-1.4950891595399098,1.008937977139208,1st,1st,4th,-1.2178657209035737,-1.1902959649489466,1.1694802470218961
mem,resp,800,1,mem2.3.1.bmp,mem1.3.3.bmp,mem2.3.1.bmp,ACC030,"[0, 3, -3]","[-3, 3, 3]","[0, 3, -3]",match,1.3545027756320973,,0.04432313590028587,-0.5168202024264668,0.27428487285753556,3rd,2nd,3rd,0.25556048246868823,-0.3818589359899456,0.3956570519266262
mem,resp,623,1,mem3.2.1.bmp,mem2.1.1.bmp,mem3.2.1.bmp,ACC030,"[3, 0, -3]","[0, -3, -3]","[3, 0, -3]",match,1.591751709536137,,0.25488310796039776,0.9677957520792191,-0.04446348155312502,3rd,4th,2nd,0.25556048246868823,1.2706896537859529,-0.22958241231144136
mem,resp,666,0,mem3.1.1.bmp,mem2.2.2.bmp,mem3.3.2.bmp,ACC030,"[3, -3, -3]","[0, 0, 0]","[3, 3, 0]",non-match,0.9462544851682343,3,1.5874932051803385,0.23415040309916482,0.05269097491427039,4th,3rd,2nd,1.337594499788957,0.30533018621900176,-0.22958241231144136
mem,resp,617,1,mem3.1.3.bmp,mem2.1.2.bmp,mem3.3.1.bmp,ACC030,"[3, -3, 3]","[0, -3, 0]","[3, 3, -3]",non-match,0.4763966378857265,1,0.8503475214620173,-0.5138734979121706,0.23966285716248464,4th,2nd,3rd,1.337594499788957,-0.3818589359899456,0.3956570519266262
mem,resp,601,1,mem2.3.3.bmp,mem3.3.3.bmp,mem2.3.3.bmp,ACC030,"[0, 3, 3]","[3, 3, 3]","[0, 3, 3]",match,1.7113248654051871,,0.08378828949696951,-0.29841087031773716,-0.06026691579755357,3rd,2nd,2nd,0.25556048246868823,-0.3818589359899456,-0.22958241231144136
mem,resp,846,1,mem1.2.3.bmp,mem2.2.3.bmp,mem3.1.2.bmp,ACC030,"[-3, 0, 3]","[0, 0, 3]","[3, -3, 0]",non-match,0.7928932188134524,2,-0.47118425422364535,-0.8297244884587768,0.2924031717535907,2nd,1st,3rd,-0.3720543185380123,-1.1902959649489466,0.3956570519266262
mem,resp,1039,1,mem1.2.2.bmp,mem3.3.2.bmp,mem3.3.2.bmp,ACC030,"[-3, 0, 0]","[3, 3, 0]","[3, 3, 0]",match,1.3545027756320973,,-1.1171208332592932,-1.1504018789676085,0.39476156744793994,1st,1st,3rd,-1.2178657209035737,-1.1902959649489466,0.3956570519266262
mem,resp,723,1,mem2.2.1.bmp,mem1.3.3.bmp,mem2.2.1.bmp,ACC030,"[0, 0, -3]","[-3, 3, 3]","[0, 0, -3]",match,1.2928932188134525,,0.62911911812362,-0.17108515906833754,0.07932567413516059,3rd,2nd,2nd,0.25556048246868823,-0.3818589359899456,-0.22958241231144136
mem,resp,1189,1,mem3.2.2.bmp,mem2.3.3.bmp,mem1.1.1.bmp,ACC030,"[3, 0, 0]","[0, 3, 3]","[-3, -3, -3]",non-match,0.42686781502901383,1,-0.3037580059835979,0.12812286517873267,0.597141626503692,2nd,3rd,3rd,-0.3720543185380123,0.30533018621900176,0.3956570519266262
mem,resp,1115,0,mem3.2.3.bmp,mem1.3.1.bmp,mem2.1.1.bmp,ACC030,"[3, 0, 3]","[-3, 3, -3]","[0, -3, -3]",non-match,0.6473959944455496,1,-2.0774705937850344,-2.1148659096186475,0.550751778540211,1st,1st,3rd,-1.2178657209035737,-1.1902959649489466,0.3956570519266262
mem,resp,588,1,mem1.1.2.bmp,mem1.2.2.bmp,mem2.3.2.bmp,ACC030,"[-3, -3, 0]","[-3, 0, 0]","[0, 3, 0]",non-match,0.9462544851682343,3,1.7799066135099337,0.532779709563071,0.9049483489833828,4th,3rd,4th,1.337594499788957,0.30533018621900176,1.1694802470218961
mem,resp,770,1,mem1.3.2.bmp,mem2.1.3.bmp,mem3.1.1.bmp,ACC030,"[-3, 3, 0]","[0, -3, 3]","[3, -3, -3]",non-match,0.4884773718476586,1,1.3229665912993698,-1.028377269878376,0.7541051778472361,4th,1st,4th,1.337594499788957,-1.1902959649489466,1.1694802470218961
mem,resp,803,0,mem3.2.2.bmp,mem1.2.1.bmp,mem2.1.2.bmp,ACC030,"[3, 0, 0]","[-3, 0, -3]","[0, -3, 0]",non-match,1.091751709536137,4,-0.3004491549462359,-0.7407112829048611,0.5302037132609,2nd,1st,3rd,-0.3720543185380123,-1.1902959649489466,0.3956570519266262
mem,resp,706,1,mem1.1.1.bmp,mem2.1.1.bmp,mem2.2.3.bmp,ACC030,"[-3, -3, -3]","[0, -3, -3]","[0, 0, 3]",non-match,0.6473959944455496,1,0.6266700675014397,-2.0749143368332166,0.7037713750135092,3rd,1st,3rd,0.25556048246868823,-1.1902959649489466,0.3956570519266262
mem,resp,588,1,mem2.2.1.bmp,mem2.3.2.bmp,mem2.2.1.bmp,ACC030,"[0, 0, -3]","[0, 3, 0]","[0, 0, -3]",match,1.591751709536137,,-0.19049900254259947,-1.1810398896791792,0.426127051673984,2nd,1st,3rd,-0.3720543185380123,-1.1902959649489466,0.3956570519266262
mem,resp,557,1,mem2.3.3.bmp,mem1.1.2.bmp,mem1.1.2.bmp,ACC030,"[0, 3, 3]","[-3, -3, 0]","[-3, -3, 0]",match,1.2928932188134525,,-1.32979485861707,0.0019612658723328026,0.2035001145233236,1st,3rd,3rd,-1.2178657209035737,0.30533018621900176,0.3956570519266262
mem,resp,1163,1,mem2.2.2.bmp,mem1.3.2.bmp,mem1.3.2.bmp,ACC030,"[0, 0, 0]","[-3, 3, 0]","[-3, 3, 0]",match,1.591751709536137,,-0.4915706094094476,-1.3468064643967974,0.2621625855420919,2nd,1st,3rd,-0.3720543185380123,-1.1902959649489466,0.3956570519266262
mem,resp,623,1,mem1.1.3.bmp,mem3.2.1.bmp,mem3.2.1.bmp,ACC030,"[-3, -3, 3]","[3, 0, -3]","[3, 0, -3]",match,1.1339745962155614,,0.9308507550780414,-0.6069836649647145,0.5796127166430858,4th,2nd,3rd,1.337594499788957,-0.3818589359899456,0.3956570519266262
mem,resp,1140,1,mem2.2.3.bmp,mem2.3.1.bmp,mem1.3.1.bmp,ACC030,"[0, 0, 3]","[0, 3, -3]","[-3, 3, -3]",non-match,1.0042180842186395,3,-0.6060332551851826,-1.8555820159594234,0.7519122193599748,2nd,1st,4th,-0.3720543185380123,-1.1902959649489466,1.1694802470218961
mem,resp,653,1,mem2.3.2.bmp,mem3.3.3.bmp,mem2.1.1.bmp,ACC030,"[0, 3, 0]","[3, 3, 3]","[0, -3, -3]",non-match,0.4884773718476586,1,1.1567903289286543,0.435016639717291,0.41187149576796706,4th,3rd,3rd,1.337594499788957,0.30533018621900176,0.3956570519266262
mem,resp,687,0,mem3.3.1.bmp,mem3.2.3.bmp,mem3.2.2.bmp,ACC030,"[3, 3, -3]","[3, 0, 3]","[3, 0, 0]",non-match,1.3030765749413242,4,-1.0096061606291602,0.07741383462020703,-0.00442744600308878,1st,3rd,2nd,-1.2178657209035737,0.30533018621900176,-0.22958241231144136
mem,resp,646,1,mem2.1.2.bmp,mem3.1.2.bmp,mem2.1.2.bmp,ACC030,"[0, -3, 0]","[3, -3, 0]","[0, -3, 0]",match,1.7113248654051871,,-0.17784407870630237,0.73393817059728,-0.007695750536110918,2nd,4th,2nd,-0.3720543185380123,1.2706896537859529,-0.22958241231144136
mem,resp,671,1,mem1.2.1.bmp,mem1.1.3.bmp,mem1.1.3.bmp,ACC030,"[-3, 0, -3]","[-3, -3, 3]","[-3, -3, 3]",match,1.3545027756320973,,0.5503298206008289,-0.9705752094776426,-0.0701293035673405,3rd,1st,2nd,0.25556048246868823,-1.1902959649489466,-0.22958241231144136
mem,resp,795,1,mem1.2.2.bmp,mem1.3.2.bmp,mem1.3.2.bmp,ACC030,"[-3, 0, 0]","[-3, 3, 0]","[-3, 3, 0]",match,1.7113248654051871,,-0.29741027495151345,-0.1630470378877429,-0.3071407691030324,2nd,2nd,2nd,-0.3720543185380123,-0.3818589359899456,-0.22958241231144136
mem,resp,830,0,mem2.3.1.bmp,mem3.1.1.bmp,mem2.2.1.bmp,ACC030,"[0, 3, -3]","[3, -3, -3]","[0, 0, -3]",non-match,1.3030765749413242,4,-0.11262414981377536,-0.43324898239708365,0.006300090536156585,2nd,2nd,2nd,-0.3720543185380123,-0.3818589359899456,-0.22958241231144136
mem,resp,746,1,mem1.2.1.bmp,mem3.1.2.bmp,mem3.1.2.bmp,ACC030,"[-3, 0, -3]","[3, -3, 0]","[3, -3, 0]",match,1.2928932188134525,,-1.830265726790557,-2.020754052502973,0.05465431981452139,1st,1st,2nd,-1.2178657209035737,-1.1902959649489466,-0.22958241231144136
mem,resp,699,0,mem1.2.3.bmp,mem3.3.3.bmp,mem3.2.1.bmp,ACC030,"[-3, 0, 3]","[3, 3, 3]","[3, 0, -3]",non-match,0.5380061947043713,1,-0.38532474846135545,-0.32926441573813736,0.31058467011203456,2nd,2nd,3rd,-0.3720543185380123,-0.3818589359899456,0.3956570519266262
mem,resp,501,1,mem1.1.2.bmp,mem1.2.2.bmp,mem1.1.2.bmp,ACC030,"[-3, -3, 0]","[-3, 0, 0]","[-3, -3, 0]",match,1.7113248654051871,,0.4363383509503044,0.2308646213661265,5.553529032711684e-05,3rd,3rd,2nd,0.25556048246868823,0.30533018621900176,-0.22958241231144136
mem,resp,612,1,mem3.2.2.bmp,mem1.3.2.bmp,mem1.3.2.bmp,ACC030,"[3, 0, 0]","[-3, 3, 0]","[-3, 3, 0]",match,1.3545027756320973,,1.338881189292917,0.8360718447607501,0.4742411297912771,4th,4th,3rd,1.337594499788957,1.2706896537859529,0.3956570519266262
mem,resp,1147,1,mem2.1.2.bmp,mem1.1.3.bmp,mem3.1.1.bmp,ACC030,"[0, -3, 0]","[-3, -3, 3]","[3, -3, -3]",non-match,0.7752551286084112,2,-0.26336213698987976,-1.2172772238894085,0.2321059646588436,2nd,1st,3rd,-0.3720543185380123,-1.1902959649489466,0.3956570519266262
mem,resp,742,0,mem2.2.3.bmp,mem2.3.3.bmp,mem3.1.3.bmp,ACC030,"[0, 0, 3]","[0, 3, 3]","[3, -3, 3]",non-match,0.9462544851682343,3,-0.8317147269170854,-0.35654852204142823,-0.058676556524966464,1st,2nd,2nd,-1.2178657209035737,-0.3818589359899456,-0.22958241231144136
mem,resp,675,1,mem3.2.1.bmp,mem3.3.1.bmp,mem3.3.3.bmp,ACC030,"[3, 0, -3]","[3, 3, -3]","[3, 3, 3]",non-match,0.7771525064424715,2,0.2703723034660384,0.9300950210938698,-0.2674019789672298,3rd,4th,2nd,0.25556048246868823,1.2706896537859529,-0.22958241231144136
mem,resp,1110,1,mem2.1.1.bmp,mem1.2.1.bmp,mem2.2.2.bmp,ACC030,"[0, -3, -3]","[-3, 0, -3]","[0, 0, 0]",non-match,1.1835034190722742,4,-0.19848578331044936,-0.04748717023784252,-0.3926584308071259,2nd,2nd,2nd,-0.3720543185380123,-0.3818589359899456,-0.22958241231144136
mem,resp,582,1,mem2.3.2.bmp,mem1.3.3.bmp,mem1.3.3.bmp,ACC030,"[0, 3, 0]","[-3, 3, 3]","[-3, 3, 3]",match,1.591751709536137,,0.11818400365398983,0.4329242750850318,-0.8643829575003373,3rd,3rd,1st,0.25556048246868823,0.30533018621900176,-1.330546569524086
mem,resp,495,1,mem1.3.2.bmp,mem3.1.3.bmp,mem3.1.3.bmp,ACC030,"[-3, 3, 0]","[3, -3, 3]","[3, -3, 3]",match,1.1339745962155614,,0.9590426619130462,-0.8961825598386065,-0.8211299979809231,4th,1st,1st,1.337594499788957,-1.1902959649489466,-1.330546569524086
mem,resp,841,0,mem3.1.2.bmp,mem2.1.3.bmp,mem3.2.2.bmp,ACC030,"[3, -3, 0]","[0, -3, 3]","[3, 0, 0]",non-match,1.2113248654051871,4,-0.7453602572006258,-1.0664064726876663,-0.7826116360983575,1st,1st,1st,-1.2178657209035737,-1.1902959649489466,-1.330546569524086
mem,resp,906,1,mem1.1.1.bmp,mem2.1.2.bmp,mem1.1.1.bmp,ACC030,"[-3, -3, -3]","[0, -3, 0]","[-3, -3, -3]",match,1.591751709536137,,-0.4205844483755207,-0.9090175985747093,-1.0331914689263608,2nd,1st,1st,-0.3720543185380123,-1.1902959649489466,-1.330546569524086
mem,resp,715,1,mem3.3.1.bmp,mem2.3.1.bmp,mem2.3.1.bmp,ACC030,"[3, 3, -3]","[0, 3, -3]","[0, 3, -3]",match,1.7113248654051871,,-0.4091124323356154,-0.8201048931687432,-1.4436823905341385,2nd,1st,1st,-0.3720543185380123,-1.1902959649489466,-1.330546569524086
mem,resp,528,1,mem3.1.3.bmp,mem1.2.3.bmp,mem3.1.3.bmp,ACC030,"[3, -3, 3]","[-3, 0, 3]","[3, -3, 3]",match,1.3545027756320973,,2.3743143055552434,0.025224539095944493,-1.3921693479894364,4th,3rd,1st,1.337594499788957,0.30533018621900176,-1.330546569524086
mem,resp,639,1,mem3.3.3.bmp,mem3.3.2.bmp,mem2.3.3.bmp,ACC030,"[3, 3, 3]","[3, 3, 0]","[0, 3, 3]",non-match,1.3030765749413242,4,1.843565361899344,0.27496019862618537,-1.4790964195754062,4th,3rd,1st,1.337594499788957,0.30533018621900176,-1.330546569524086
mem,resp,612,1,mem2.1.3.bmp,mem2.2.1.bmp,mem1.3.3.bmp,ACC030,"[0, -3, 3]","[0, 0, -3]","[-3, 3, 3]",non-match,0.6473959944455496,1,2.153793714747815,0.7102983615459896,-1.7733789295266482,4th,4th,1st,1.337594499788957,1.2706896537859529,-1.330546569524086
mem,resp,796,0,mem3.2.3.bmp,mem1.1.2.bmp,mem3.1.2.bmp,ACC030,"[3, 0, 3]","[-3, -3, 0]","[3, -3, 0]",non-match,1.0144014403465114,3,-1.6315737343154604,-1.6651724992102466,-1.7218559704676952,1st,1st,1st,-1.2178657209035737,-1.1902959649489466,-1.330546569524086
mem,resp,679,1,mem3.1.1.bmp,mem2.1.1.bmp,mem2.1.1.bmp,ACC030,"[3, -3, -3]","[0, -3, -3]","[0, -3, -3]",match,1.7113248654051871,,0.11895047727715032,0.5050624659378419,-1.8810706226404887,3rd,3rd,1st,0.25556048246868823,0.30533018621900176,-1.330546569524086
mem,resp,812,1,mem1.3.1.bmp,mem3.3.2.bmp,mem3.1.3.bmp,ACC030,"[-3, 3, -3]","[3, 3, 0]","[3, -3, 3]",non-match,0.3545027756320972,1,-1.2881537677490398,-0.9133466675578868,-1.6831454809806063,1st,1st,1st,-1.2178657209035737,-1.1902959649489466,-1.330546569524086
mem,resp,593,1,mem2.2.1.bmp,mem2.3.1.bmp,mem3.2.1.bmp,ACC030,"[0, 0, -3]","[0, 3, -3]","[3, 0, -3]",non-match,1.3030765749413242,4,2.4812924819869613,1.7657138702802577,-1.8441575597880977,4th,4th,1st,1.337594499788957,1.2706896537859529,-1.330546569524086
mem,resp,728,1,mem2.2.2.bmp,mem2.3.3.bmp,mem3.3.1.bmp,ACC030,"[0, 0, 0]","[0, 3, 3]","[3, 3, -3]",non-match,0.8545027756320972,2,0.6400152086437265,-1.450926744659412,-2.035088087242688,3rd,1st,1st,0.25556048246868823,-1.1902959649489466,-1.330546569524086
mem,resp,985,1,mem1.2.2.bmp,mem3.2.2.bmp,mem2.3.2.bmp,ACC030,"[-3, 0, 0]","[3, 0, 0]","[0, 3, 0]",non-match,1.1835034190722742,4,0.7534848179270824,0.1469517835498876,-1.6815049371543764,4th,3rd,1st,1.337594499788957,0.30533018621900176,-1.330546569524086
mem,resp,854,0,mem1.3.3.bmp,mem2.1.3.bmp,mem1.1.2.bmp,ACC030,"[-3, 3, 3]","[0, -3, 3]","[-3, -3, 0]",non-match,0.9462544851682343,3,-0.944622688908572,-1.6189452523658872,-1.5478834887467248,1st,1st,1st,-1.2178657209035737,-1.1902959649489466,-1.330546569524086
mem,resp,618,1,mem3.3.2.bmp,mem3.1.2.bmp,mem1.1.1.bmp,ACC030,"[3, 3, 0]","[3, -3, 0]","[-3, -3, -3]",non-match,0.4884773718476586,1,1.1475202661773605,-0.4877189990919131,-1.8908121504426505,4th,2nd,1st,1.337594499788957,-0.3818589359899456,-1.330546569524086
mem,resp,470,1,mem1.1.3.bmp,mem2.2.3.bmp,mem1.1.3.bmp,ACC030,"[-3, -3, 3]","[0, 0, 3]","[-3, -3, 3]",match,1.591751709536137,,0.6737838604277437,0.894473301987436,-2.082452676193641,4th,4th,1st,1.337594499788957,1.2706896537859529,-1.330546569524086
mem,resp,661,1,mem2.3.3.bmp,mem1.3.2.bmp,mem3.2.2.bmp,ACC030,"[0, 3, 3]","[-3, 3, 0]","[3, 0, 0]",non-match,0.8545027756320972,2,1.0850832892237365,-0.5673629439394879,-2.3114782174238186,4th,2nd,1st,1.337594499788957,-0.3818589359899456,-1.330546569524086
mem,resp,524,1,mem3.2.1.bmp,mem1.2.3.bmp,mem3.2.1.bmp,ACC030,"[3, 0, -3]","[-3, 0, 3]","[3, 0, -3]",match,1.1835034190722742,,0.4219530031232325,-0.3449199872860408,-1.9842879886169904,3rd,2nd,1st,0.25556048246868823,-0.3818589359899456,-1.330546569524086
mem,resp,644,0,mem2.1.1.bmp,mem2.3.2.bmp,mem2.1.2.bmp,ACC030,"[0, -3, -3]","[0, 3, 0]","[0, -3, 0]",non-match,1.1339745962155614,4,-0.7143867821111741,-1.4392937934513144,-2.1665823432239253,1st,1st,1st,-1.2178657209035737,-1.1902959649489466,-1.330546569524086
mem,resp,557,1,mem3.3.3.bmp,mem1.1.3.bmp,mem3.3.3.bmp,ACC030,"[3, 3, 3]","[-3, -3, 3]","[3, 3, 3]",match,1.1835034190722742,,1.4951991611100053,-0.8898507846444005,-2.7113863443311663,4th,1st,1st,1.337594499788957,-1.1902959649489466,-1.330546569524086
mem,resp,961,1,mem1.3.3.bmp,mem3.3.1.bmp,mem3.2.2.bmp,ACC030,"[-3, 3, 3]","[3, 3, -3]","[3, 0, 0]",non-match,0.8846449283495895,2,-1.2496795137002623,-1.5640278888925763,-2.8473904209641936,1st,1st,1st,-1.2178657209035737,-1.1902959649489466,-1.330546569524086
mem,resp,622,1,mem3.1.1.bmp,mem2.2.2.bmp,mem1.2.1.bmp,ACC030,"[3, -3, -3]","[0, 0, 0]","[-3, 0, -3]",non-match,0.9462544851682343,3,2.1524858086537058,1.0975666715138188,-2.6373045463529405,4th,4th,1st,1.337594499788957,1.2706896537859529,-1.330546569524086
mem,resp,715,1,mem1.3.1.bmp,mem1.2.2.bmp,mem1.2.2.bmp,ACC030,"[-3, 3, -3]","[-3, 0, 0]","[-3, 0, 0]",match,1.591751709536137,,1.5685945333542617,1.1430880983155924,-2.776793606471231,4th,4th,1st,1.337594499788957,1.2706896537859529,-1.330546569524086
mem,resp,539,1,mem2.3.2.bmp,mem3.3.3.bmp,mem2.3.2.bmp,ACC030,"[0, 3, 0]","[3, 3, 3]","[0, 3, 0]",match,1.591751709536137,,1.3657034942607742,-0.24393039593555516,-2.8015181916271255,4th,2nd,1st,1.337594499788957,-0.3818589359899456,-1.330546569524086
mem,resp,964,1,mem3.3.1.bmp,mem3.1.3.bmp,mem3.1.3.bmp,ACC030,"[3, 3, -3]","[3, -3, 3]","[3, -3, 3]",match,1.1835034190722742,,-1.6695022216302517,-1.497090270510495,-2.652000071810097,1st,1st,1st,-1.2178657209035737,-1.1902959649489466,-1.330546569524086
mem,resp,573,1,mem2.2.2.bmp,mem2.1.2.bmp,mem2.1.2.bmp,ACC030,"[0, 0, 0]","[0, -3, 0]","[0, -3, 0]",match,1.7113248654051871,,0.8586601637147545,-0.19523314082539522,-2.9662210258321147,4th,2nd,1st,1.337594499788957,-0.3818589359899456,-1.330546569524086
mem,resp,658,1,mem1.1.3.bmp,mem1.1.1.bmp,mem1.1.3.bmp,ACC030,"[-3, -3, 3]","[-3, -3, -3]","[-3, -3, 3]",match,1.4226497308103743,,0.3873242783941343,-0.9522992191691465,-2.552905820137051,3rd,1st,1st,0.25556048246868823,-1.1902959649489466,-1.330546569524086
mem,resp,681,1,mem2.2.1.bmp,mem2.1.1.bmp,mem2.2.1.bmp,ACC030,"[0, 0, -3]","[0, -3, -3]","[0, 0, -3]",match,1.7113248654051871,,-0.4748629953765192,0.04043255707493845,-2.8012723988607484,2nd,3rd,1st,-0.3720543185380123,0.30533018621900176,-1.330546569524086
mem,resp,552,1,mem1.2.2.bmp,mem1.1.2.bmp,mem3.3.2.bmp,ACC030,"[-3, 0, 0]","[-3, -3, 0]","[3, 3, 0]",non-match,0.5380061947043713,1,1.2158241752992538,-1.0784130203452171,-2.4745081822180075,4th,1st,1st,1.337594499788957,-1.1902959649489466,-1.330546569524086
mem,resp,768,1,mem3.1.2.bmp,mem3.2.3.bmp,mem3.2.1.bmp,ACC030,"[3, -3, 0]","[3, 0, 3]","[3, 0, -3]",non-match,1.0144014403465114,3,0.6057933886178062,-1.6599115882468123,-2.386660425776116,3rd,1st,1st,0.25556048246868823,-1.1902959649489466,-1.330546569524086
