mode,type,rt,acc,item_1,item_2,item_cue,subj_idx,item_1_number,item_2_number,item_cue_number,trial_type,summed_similarity,similarity_bin,ams,pams,slps,ams_quantile,pams_quantile,slps_quantile,ams_bin,pam_bin,slp_bin
mem,resp,895,1,mem1.2.1.bmp,mem3.1.2.bmp,mem3.1.2.bmp,ACC017,"[-3, 0, -3]","[3, -3, 0]","[3, -3, 0]",match,1.2928932188134525,,1.2371517667863687,0.38680240019578954,-0.08724723867670016,4th,3rd,2nd,1.312262514754749,0.270803135382667,-0.0004714108884876929
mem,resp,865,0,mem1.2.3.bmp,mem3.3.3.bmp,mem3.2.1.bmp,ACC017,"[-3, 0, 3]","[3, 3, 3]","[3, 0, -3]",non-match,0.5380061947043713,1,0.9831918719762327,1.2401095783398035,0.013418633638194939,4th,4th,2nd,1.312262514754749,1.1995588321832926,-0.0004714108884876929
mem,resp,732,0,mem1.1.2.bmp,mem1.2.2.bmp,mem1.1.2.bmp,ACC017,"[-3, -3, 0]","[-3, 0, 0]","[-3, -3, 0]",match,1.7113248654051871,,0.9289105788926398,-0.2915224617037755,-0.04955195296202035,4th,2nd,2nd,1.312262514754749,-0.2728336858966131,-0.0004714108884876929
mem,resp,950,1,mem3.2.2.bmp,mem1.3.2.bmp,mem1.3.2.bmp,ACC017,"[3, 0, 0]","[-3, 3, 0]","[-3, 3, 0]",match,1.3545027756320973,,1.3084196533364578,0.9657314808712315,-0.08338373304405251,4th,4th,2nd,1.312262514754749,1.1995588321832926,-0.0004714108884876929
mem,resp,1292,0,mem2.1.2.bmp,mem1.1.3.bmp,mem3.1.1.bmp,ACC017,"[0, -3, 0]","[-3, -3, 3]","[3, -3, -3]",non-match,0.7752551286084112,2,-0.6606587445316938,-1.796585229787354,-0.0014495254302541755,2nd,1st,2nd,-0.36273779359311514,-1.182175354981278,-0.0004714108884876929
mem,resp,1143,0,mem2.2.3.bmp,mem2.3.3.bmp,mem3.1.3.bmp,ACC017,"[0, 0, 3]","[0, 3, 3]","[3, -3, 3]",non-match,0.9462544851682343,3,-1.0220903064271214,-0.2147973899553674,0.048282888229110046,1st,2nd,2nd,-1.233342664497673,-0.2728336858966131,-0.0004714108884876929
mem,resp,1325,1,mem3.2.1.bmp,mem3.3.1.bmp,mem3.3.3.bmp,ACC017,"[3, 0, -3]","[3, 3, -3]","[3, 3, 3]",non-match,0.7771525064424715,2,-1.652270602386032,0.41648690407518485,0.13200241254229386,1st,3rd,2nd,-1.233342664497673,0.270803135382667,-0.0004714108884876929
mem,resp,1035,0,mem2.1.1.bmp,mem1.2.1.bmp,mem2.2.2.bmp,ACC017,"[0, -3, -3]","[-3, 0, -3]","[0, 0, 0]",non-match,1.1835034190722742,4,-0.0330685657416742,-1.4568016343731904,0.12161556282663047,3rd,1st,2nd,0.29983538053730774,-1.182175354981278,-0.0004714108884876929
mem,resp,895,1,mem2.3.2.bmp,mem1.3.3.bmp,mem1.3.3.bmp,ACC017,"[0, 3, 0]","[-3, 3, 3]","[-3, 3, 3]",match,1.591751709536137,,-0.53914788415243,1.3669209466095233,0.01233209116499603,2nd,4th,2nd,-0.36273779359311514,1.1995588321832926,-0.0004714108884876929
mem,resp,1053,0,mem1.3.2.bmp,mem3.1.3.bmp,mem3.1.3.bmp,ACC017,"[-3, 3, 0]","[3, -3, 3]","[3, -3, 3]",match,1.1339745962155614,,-1.1872141224425745,0.36491005852075464,0.0980940343199606,1st,3rd,2nd,-1.233342664497673,0.270803135382667,-0.0004714108884876929
mem,resp,1051,1,mem3.1.2.bmp,mem2.1.3.bmp,mem3.2.2.bmp,ACC017,"[3, -3, 0]","[0, -3, 3]","[3, 0, 0]",non-match,1.2113248654051871,4,-0.18140281979060502,0.8047531025050322,0.3432094641870031,2nd,4th,3rd,-0.36273779359311514,1.1995588321832926,0.44791459966698755
mem,resp,786,1,mem1.1.1.bmp,mem2.1.2.bmp,mem1.1.1.bmp,ACC017,"[-3, -3, -3]","[0, -3, 0]","[-3, -3, -3]",match,1.591751709536137,,-0.14164172292752353,0.696806855256591,0.5047038541142473,2nd,4th,3rd,-0.36273779359311514,1.1995588321832926,0.44791459966698755
mem,resp,1083,1,mem3.3.1.bmp,mem2.3.1.bmp,mem2.3.1.bmp,ACC017,"[3, 3, -3]","[0, 3, -3]","[0, 3, -3]",match,1.7113248654051871,,-0.7390496538392293,0.8117433606309202,0.45597235826720145,1st,4th,3rd,-1.233342664497673,1.1995588321832926,0.44791459966698755
mem,resp,889,1,mem3.1.3.bmp,mem1.2.3.bmp,mem3.1.3.bmp,ACC017,"[3, -3, 3]","[-3, 0, 3]","[3, -3, 3]",match,1.3545027756320973,,0.40704843551410236,-0.10580976478181524,0.6327997053092796,3rd,2nd,3rd,0.29983538053730774,-0.2728336858966131,0.44791459966698755
mem,resp,926,0,mem3.3.3.bmp,mem3.3.2.bmp,mem2.3.3.bmp,ACC017,"[3, 3, 3]","[3, 3, 0]","[0, 3, 3]",non-match,1.3030765749413242,4,-0.47889610670670557,-0.4672960440222252,0.5572608670044328,2nd,2nd,3rd,-0.36273779359311514,-0.2728336858966131,0.44791459966698755
mem,resp,940,1,mem2.1.3.bmp,mem2.2.1.bmp,mem1.3.3.bmp,ACC017,"[0, -3, 3]","[0, 0, -3]","[-3, 3, 3]",non-match,0.6473959944455496,1,0.6702885107665005,0.21229657483064934,0.6425100490010154,3rd,3rd,3rd,0.29983538053730774,0.270803135382667,0.44791459966698755
mem,resp,828,0,mem3.2.3.bmp,mem1.1.2.bmp,mem3.1.2.bmp,ACC017,"[3, 0, 3]","[-3, -3, 0]","[3, -3, 0]",non-match,1.0144014403465114,3,0.9148051166807294,0.17433162516054837,0.5273451986236793,4th,3rd,3rd,1.312262514754749,0.270803135382667,0.44791459966698755
mem,resp,800,1,mem3.1.1.bmp,mem2.1.1.bmp,mem2.1.1.bmp,ACC017,"[3, -3, -3]","[0, -3, -3]","[0, -3, -3]",match,1.7113248654051871,,-0.2926268135342081,1.3742736994467013,0.4396406987982035,2nd,4th,3rd,-0.36273779359311514,1.1995588321832926,0.44791459966698755
mem,resp,846,1,mem1.3.1.bmp,mem3.3.2.bmp,mem3.1.3.bmp,ACC017,"[-3, 3, -3]","[3, 3, 0]","[3, -3, 3]",non-match,0.3545027756320972,1,-0.4391490146446715,-0.5846227632305391,0.32115432545634737,2nd,1st,3rd,-0.36273779359311514,-1.182175354981278,0.44791459966698755
mem,resp,973,1,mem2.2.1.bmp,mem2.3.1.bmp,mem3.2.1.bmp,ACC017,"[0, 0, -3]","[0, 3, -3]","[3, 0, -3]",non-match,1.3030765749413242,4,-0.5383846146936038,-1.1876459658785055,0.34127360737277695,2nd,1st,3rd,-0.36273779359311514,-1.182175354981278,0.44791459966698755
mem,resp,737,1,mem2.2.2.bmp,mem2.3.3.bmp,mem3.3.1.bmp,ACC017,"[0, 0, 0]","[0, 3, 3]","[3, 3, -3]",non-match,0.8545027756320972,2,-0.14176096836592803,0.5461074261910472,0.5056938935663764,2nd,3rd,3rd,-0.36273779359311514,0.270803135382667,0.44791459966698755
mem,resp,732,1,mem1.2.2.bmp,mem3.2.2.bmp,mem2.3.2.bmp,ACC017,"[-3, 0, 0]","[3, 0, 0]","[0, 3, 0]",non-match,1.1835034190722742,4,-1.4895801078993556,0.2913525242610757,0.4134338288138649,1st,3rd,3rd,-1.233342664497673,0.270803135382667,0.44791459966698755
mem,resp,837,0,mem1.3.3.bmp,mem2.1.3.bmp,mem1.1.2.bmp,ACC017,"[-3, 3, 3]","[0, -3, 3]","[-3, -3, 0]",non-match,0.9462544851682343,3,-0.12544696966251276,0.03760955124614315,0.46873971847252444,2nd,3rd,3rd,-0.36273779359311514,0.270803135382667,0.44791459966698755
mem,resp,741,1,mem3.3.2.bmp,mem3.1.2.bmp,mem1.1.1.bmp,ACC017,"[3, 3, 0]","[3, -3, 0]","[-3, -3, -3]",non-match,0.4884773718476586,1,-0.02497834459059087,-0.7027379641236923,0.4441662873207785,3rd,1st,3rd,0.29983538053730774,-1.182175354981278,0.44791459966698755
mem,resp,853,0,mem1.1.3.bmp,mem2.2.3.bmp,mem1.1.3.bmp,ACC017,"[-3, -3, 3]","[0, 0, 3]","[-3, -3, 3]",match,1.591751709536137,,-0.21998272743177322,0.4627802565446055,0.34381224749479267,2nd,3rd,3rd,-0.36273779359311514,0.270803135382667,0.44791459966698755
mem,resp,897,1,mem2.3.3.bmp,mem1.3.2.bmp,mem3.2.2.bmp,ACC017,"[0, 3, 3]","[-3, 3, 0]","[3, 0, 0]",non-match,0.8545027756320972,2,-1.5747103218952196,-0.035188483544114434,0.2782078253183887,1st,2nd,3rd,-1.233342664497673,-0.2728336858966131,0.44791459966698755
mem,resp,732,1,mem3.2.1.bmp,mem1.2.3.bmp,mem3.2.1.bmp,ACC017,"[3, 0, -3]","[-3, 0, 3]","[3, 0, -3]",match,1.1835034190722742,,0.46408441098542025,0.2228550768031055,0.06569822449280648,3rd,3rd,2nd,0.29983538053730774,0.270803135382667,-0.0004714108884876929
mem,resp,958,0,mem2.1.1.bmp,mem2.3.2.bmp,mem2.1.2.bmp,ACC017,"[0, -3, -3]","[0, 3, 0]","[0, -3, 0]",non-match,1.1339745962155614,4,-0.2850966334570387,0.22339151394318243,-0.036741586691335454,2nd,3rd,2nd,-0.36273779359311514,0.270803135382667,-0.0004714108884876929
mem,resp,691,1,mem3.3.3.bmp,mem1.1.3.bmp,mem3.3.3.bmp,ACC017,"[3, 3, 3]","[-3, -3, 3]","[3, 3, 3]",match,1.1835034190722742,,1.0241975619459616,-0.18613079323832815,-0.06424446179338292,4th,2nd,2nd,1.312262514754749,-0.2728336858966131,-0.0004714108884876929
mem,resp,627,0,mem1.3.3.bmp,mem3.3.1.bmp,mem3.2.2.bmp,ACC017,"[-3, 3, 3]","[3, 3, -3]","[3, 0, 0]",non-match,0.8846449283495895,2,-0.5349947310057442,-0.00532304350550965,-0.27705484585223816,2nd,3rd,2nd,-0.36273779359311514,0.270803135382667,-0.0004714108884876929
mem,resp,859,0,mem3.1.1.bmp,mem2.2.2.bmp,mem1.2.1.bmp,ACC017,"[3, -3, -3]","[0, 0, 0]","[-3, 0, -3]",non-match,0.9462544851682343,3,0.0763989986695258,0.3237077487090136,-0.03399273608117506,3rd,3rd,2nd,0.29983538053730774,0.270803135382667,-0.0004714108884876929
mem,resp,824,0,mem1.3.1.bmp,mem1.2.2.bmp,mem1.2.2.bmp,ACC017,"[-3, 3, -3]","[-3, 0, 0]","[-3, 0, 0]",match,1.591751709536137,,-0.4899653616722251,2.187369712047862,-0.10047822820360475,2nd,4th,2nd,-0.36273779359311514,1.1995588321832926,-0.0004714108884876929
mem,resp,868,1,mem2.3.2.bmp,mem3.3.3.bmp,mem2.3.2.bmp,ACC017,"[0, 3, 0]","[3, 3, 3]","[0, 3, 0]",match,1.591751709536137,,-0.3595605576601776,-0.7768225504940984,0.04803707603268003,2nd,1st,2nd,-0.36273779359311514,-1.182175354981278,-0.0004714108884876929
mem,resp,781,1,mem3.3.1.bmp,mem3.1.3.bmp,mem3.1.3.bmp,ACC017,"[3, 3, -3]","[3, -3, 3]","[3, -3, 3]",match,1.1835034190722742,,-0.014164669944136794,0.32841746108166414,0.3532453988018557,3rd,3rd,3rd,0.29983538053730774,0.270803135382667,0.44791459966698755
mem,resp,635,1,mem2.2.2.bmp,mem2.1.2.bmp,mem2.1.2.bmp,ACC017,"[0, 0, 0]","[0, -3, 0]","[0, -3, 0]",match,1.7113248654051871,,0.8435777948776646,1.3910851860526352,0.23235680540498688,4th,4th,2nd,1.312262514754749,1.1995588321832926,-0.0004714108884876929
mem,resp,428,1,mem1.1.3.bmp,mem1.1.1.bmp,mem1.1.3.bmp,ACC017,"[-3, -3, 3]","[-3, -3, -3]","[-3, -3, 3]",match,1.4226497308103743,,0.5361015253210403,0.9456599004050933,0.24508895817826515,3rd,4th,3rd,0.29983538053730774,1.1995588321832926,0.44791459966698755
mem,resp,689,1,mem2.1.3.bmp,mem3.1.1.bmp,mem3.1.1.bmp,ACC017,"[0, -3, 3]","[3, -3, -3]","[3, -3, -3]",match,1.3545027756320973,,-0.31869613313571077,0.9003390204184192,0.058911472759266,2nd,4th,2nd,-0.36273779359311514,1.1995588321832926,-0.0004714108884876929
mem,resp,538,1,mem3.1.2.bmp,mem2.1.1.bmp,mem2.1.1.bmp,ACC017,"[3, -3, 0]","[0, -3, -3]","[0, -3, -3]",match,1.591751709536137,,0.12345609618023752,1.3054361306632907,0.2241492564336568,3rd,4th,2nd,0.29983538053730774,1.1995588321832926,-0.0004714108884876929
mem,resp,721,0,mem3.2.1.bmp,mem1.2.2.bmp,mem1.1.2.bmp,ACC017,"[3, 0, -3]","[-3, 0, 0]","[-3, -3, 0]",non-match,1.0042180842186395,3,0.37559266712505596,0.2978438526067657,0.3353571263179094,3rd,3rd,3rd,0.29983538053730774,0.270803135382667,0.44791459966698755
mem,resp,1064,1,mem2.1.2.bmp,mem1.3.3.bmp,mem2.1.2.bmp,ACC017,"[0, -3, 0]","[-3, 3, 3]","[0, -3, 0]",match,1.2928932188134525,,1.5780146525950662,0.6823285557378034,0.26550010976482413,4th,4th,3rd,1.312262514754749,1.1995588321832926,0.44791459966698755
mem,resp,1142,1,mem3.2.2.bmp,mem3.1.3.bmp,mem3.1.1.bmp,ACC017,"[3, 0, 0]","[3, -3, 3]","[3, -3, -3]",non-match,1.0144014403465114,3,1.3697982770811716,0.7880278336905424,0.45034663825321275,4th,4th,3rd,1.312262514754749,1.1995588321832926,0.44791459966698755
mem,resp,723,1,mem1.3.2.bmp,mem1.2.3.bmp,mem1.2.3.bmp,ACC017,"[-3, 3, 0]","[-3, 0, 3]","[-3, 0, 3]",match,1.591751709536137,,0.668227723035331,-0.9553725823701136,0.43483115509175657,3rd,1st,3rd,0.29983538053730774,-1.182175354981278,0.44791459966698755
mem,resp,807,1,mem2.1.1.bmp,mem3.3.2.bmp,mem3.3.2.bmp,ACC017,"[0, -3, -3]","[3, 3, 0]","[3, 3, 0]",match,1.2928932188134525,,-0.6011926661534227,-0.09197757457854243,0.4742322689868657,2nd,2nd,3rd,-0.36273779359311514,-0.2728336858966131,0.44791459966698755
mem,resp,1194,1,mem2.3.2.bmp,mem3.2.3.bmp,mem3.1.2.bmp,ACC017,"[0, 3, 0]","[3, 0, 3]","[3, -3, 0]",non-match,0.9462544851682343,3,1.5991038609465635,0.3408957830021224,0.5761153265279662,4th,3rd,3rd,1.312262514754749,0.270803135382667,0.44791459966698755
mem,resp,597,1,mem1.1.2.bmp,mem1.1.3.bmp,mem1.1.3.bmp,ACC017,"[-3, -3, 0]","[-3, -3, 3]","[-3, -3, 3]",match,1.7113248654051871,,0.8386610309042076,-0.5637717626284052,0.5467737313154973,4th,2nd,3rd,1.312262514754749,-0.2728336858966131,0.44791459966698755
mem,resp,802,1,mem2.3.3.bmp,mem2.1.3.bmp,mem2.3.3.bmp,ACC017,"[0, 3, 3]","[0, -3, 3]","[0, 3, 3]",match,1.4226497308103743,,-0.06259336952101667,0.7717608425744937,0.6443856436565637,2nd,4th,3rd,-0.36273779359311514,1.1995588321832926,0.44791459966698755
mem,resp,978,1,mem3.3.2.bmp,mem1.3.2.bmp,mem1.2.1.bmp,ACC017,"[3, 3, 0]","[-3, 3, 0]","[-3, 0, -3]",non-match,0.8846449283495895,2,0.6941657744028976,-0.6190479373859006,0.76790553686878,3rd,1st,4th,0.29983538053730774,-1.182175354981278,1.0277461291207202
mem,resp,831,1,mem2.2.2.bmp,mem2.2.3.bmp,mem2.2.3.bmp,ACC017,"[0, 0, 0]","[0, 0, 3]","[0, 0, 3]",match,1.7113248654051871,,-1.1757972542107042,-1.3132806328625282,0.6656946095732401,1st,1st,4th,-1.233342664497673,-1.182175354981278,1.0277461291207202
mem,resp,825,1,mem1.2.2.bmp,mem3.2.1.bmp,mem1.2.2.bmp,ACC017,"[-3, 0, 0]","[3, 0, -3]","[-3, 0, 0]",match,1.3545027756320973,,1.491563674563269,-0.5731362038771498,0.7807829719130847,4th,2nd,4th,1.312262514754749,-0.2728336858966131,1.0277461291207202
mem,resp,728,1,mem3.3.1.bmp,mem1.3.1.bmp,mem1.3.1.bmp,ACC017,"[3, 3, -3]","[-3, 3, -3]","[-3, 3, -3]",match,1.4226497308103743,,0.643599325612804,0.41343629455247355,0.916542857911874,3rd,3rd,4th,0.29983538053730774,0.270803135382667,1.0277461291207202
mem,resp,814,1,mem3.2.3.bmp,mem3.1.2.bmp,mem3.2.3.bmp,ACC017,"[3, 0, 3]","[3, -3, 0]","[3, 0, 3]",match,1.591751709536137,,-1.2849195816779093,0.8138484898669903,0.9362771366516329,1st,4th,4th,-1.233342664497673,1.1995588321832926,1.0277461291207202
mem,resp,746,1,mem3.1.1.bmp,mem3.3.3.bmp,mem3.1.1.bmp,ACC017,"[3, -3, -3]","[3, 3, 3]","[3, -3, -3]",match,1.1835034190722742,,0.32326696389801823,-1.9612292155375914,0.8492644715363802,3rd,1st,4th,0.29983538053730774,-1.182175354981278,1.0277461291207202
mem,resp,890,1,mem1.2.1.bmp,mem1.1.1.bmp,mem1.2.3.bmp,ACC017,"[-3, 0, -3]","[-3, -3, -3]","[-3, 0, 3]",non-match,0.7771525064424715,2,-1.0387945239289582,-0.13371337335360134,0.7880910216718645,1st,2nd,4th,-1.233342664497673,-0.2728336858966131,1.0277461291207202
mem,resp,725,1,mem2.3.1.bmp,mem1.1.2.bmp,mem1.1.2.bmp,ACC017,"[0, 3, -3]","[-3, -3, 0]","[-3, -3, 0]",match,1.2928932188134525,,1.1090617859770107,0.17522046769589553,0.9001055293202859,4th,3rd,4th,1.312262514754749,0.270803135382667,1.0277461291207202
mem,resp,1151,0,mem3.1.3.bmp,mem3.3.1.bmp,mem3.1.3.bmp,ACC017,"[3, -3, 3]","[3, 3, -3]","[3, -3, 3]",match,1.1835034190722742,,-1.988274832801037,-1.2836104911081083,0.9319479269534512,1st,1st,4th,-1.233342664497673,-1.182175354981278,1.0277461291207202
mem,resp,926,1,mem2.2.1.bmp,mem2.3.3.bmp,mem1.3.1.bmp,ACC017,"[0, 0, -3]","[0, 3, 3]","[-3, 3, -3]",non-match,0.9462544851682343,3,-0.19877463683301055,-1.560182261388082,0.9180474812865166,2nd,1st,4th,-0.36273779359311514,-1.182175354981278,1.0277461291207202
mem,resp,710,1,mem3.3.3.bmp,mem2.2.2.bmp,mem3.3.3.bmp,ACC017,"[3, 3, 3]","[0, 0, 0]","[3, 3, 3]",match,1.5,,0.8329458650975443,-0.39599960573855253,0.75277747982431,4th,2nd,4th,1.312262514754749,-0.2728336858966131,1.0277461291207202
mem,resp,824,0,mem1.1.1.bmp,mem1.2.1.bmp,mem3.2.3.bmp,ACC017,"[-3, -3, -3]","[-3, 0, -3]","[3, 0, 3]",non-match,0.3174780152878355,1,0.8422658278750129,2.634975469226429,0.7638870285841416,4th,4th,4th,1.312262514754749,1.1995588321832926,1.0277461291207202
mem,resp,766,1,mem1.2.3.bmp,mem3.3.1.bmp,mem3.3.1.bmp,ACC017,"[-3, 0, 3]","[3, 3, -3]","[3, 3, -3]",match,1.1339745962155614,,-0.16122545277835373,-0.08345508347591551,0.7168004142220747,2nd,2nd,4th,-0.36273779359311514,-0.2728336858966131,1.0277461291207202
mem,resp,1071,1,mem1.1.3.bmp,mem3.3.2.bmp,mem1.1.3.bmp,ACC017,"[-3, -3, 3]","[3, 3, 0]","[-3, -3, 3]",match,1.1339745962155614,,-0.5162247254521608,0.3215342872871712,0.7182883678998662,2nd,3rd,4th,-0.36273779359311514,0.270803135382667,1.0277461291207202
mem,resp,979,0,mem1.3.1.bmp,mem1.2.2.bmp,mem1.2.2.bmp,ACC017,"[-3, 3, -3]","[-3, 0, 0]","[-3, 0, 0]",match,1.591751709536137,,0.43601703217646937,-1.7272738808093773,0.6666834325478179,3rd,1st,4th,0.29983538053730774,-1.182175354981278,1.0277461291207202
mem,resp,844,1,mem2.2.3.bmp,mem2.1.1.bmp,mem2.2.3.bmp,ACC017,"[0, 0, 3]","[0, -3, -3]","[0, 0, 3]",match,1.3545027756320973,,1.324604738554515,-0.669974556414078,0.3518823955210581,4th,1st,3rd,1.312262514754749,-1.182175354981278,0.44791459966698755
mem,resp,808,0,mem1.3.3.bmp,mem2.3.1.bmp,mem1.3.2.bmp,ACC017,"[-3, 3, 3]","[0, 3, -3]","[-3, 3, 0]",non-match,1.3030765749413242,4,1.7146891568845475,-0.44316542198354747,0.32011831214081815,4th,2nd,3rd,1.312262514754749,-0.2728336858966131,0.44791459966698755
mem,resp,900,1,mem1.3.3.bmp,mem1.1.1.bmp,mem1.1.1.bmp,ACC017,"[-3, 3, 3]","[-3, -3, -3]","[-3, -3, -3]",match,1.1835034190722742,,-1.026872042046839,0.5422592038249227,0.3551687127136209,1st,3rd,3rd,-1.233342664497673,0.270803135382667,0.44791459966698755
mem,resp,996,0,mem2.3.2.bmp,mem3.2.1.bmp,mem2.3.3.bmp,ACC017,"[0, 3, 0]","[3, 0, -3]","[0, 3, 3]",non-match,1.0042180842186395,3,-1.5317992707974313,-1.2246422961690961,0.39881832215720875,1st,1st,3rd,-1.233342664497673,-1.182175354981278,0.44791459966698755
mem,resp,941,1,mem1.3.1.bmp,mem3.1.1.bmp,mem1.1.3.bmp,ACC017,"[-3, 3, -3]","[3, -3, -3]","[-3, -3, 3]",non-match,0.36700683814454815,1,0.19470660608723978,0.2291984066754895,0.2131554514485078,3rd,3rd,2nd,0.29983538053730774,0.270803135382667,-0.0004714108884876929
mem,resp,1037,1,mem2.2.1.bmp,mem2.1.2.bmp,mem3.3.1.bmp,ACC017,"[0, 0, -3]","[0, -3, 0]","[3, 3, -3]",non-match,0.8846449283495895,2,1.6375451677990738,0.7841484261658107,0.2163011065266776,4th,4th,2nd,1.312262514754749,1.1995588321832926,-0.0004714108884876929
mem,resp,993,0,mem3.2.2.bmp,mem1.1.2.bmp,mem2.3.1.bmp,ACC017,"[3, 0, 0]","[-3, -3, 0]","[0, 3, -3]",non-match,0.7928932188134524,2,-0.6917141450529458,0.14156588347766663,0.2589747918328371,2nd,3rd,3rd,-0.36273779359311514,0.270803135382667,0.44791459966698755
mem,resp,726,1,mem3.3.2.bmp,mem1.2.3.bmp,mem1.2.3.bmp,ACC017,"[3, 3, 0]","[-3, 0, 3]","[-3, 0, 3]",match,1.2928932188134525,,0.04521811722102306,-0.2512308109353986,0.24238671352578453,3rd,2nd,2nd,0.29983538053730774,-0.2728336858966131,-0.0004714108884876929
mem,resp,687,1,mem2.2.2.bmp,mem3.3.3.bmp,mem2.2.2.bmp,ACC017,"[0, 0, 0]","[3, 3, 3]","[0, 0, 0]",match,1.5,,-1.0165826674170872,-0.2036080928077834,0.2968840671666773,1st,2nd,3rd,-1.233342664497673,-0.2728336858966131,0.44791459966698755
mem,resp,1004,1,mem1.2.1.bmp,mem2.1.3.bmp,mem1.1.1.bmp,ACC017,"[-3, 0, -3]","[0, -3, 3]","[-3, -3, -3]",non-match,1.0658276410372842,3,-0.49791760908947,0.34265882546157983,0.30688956640426357,2nd,3rd,3rd,-0.36273779359311514,0.270803135382667,0.44791459966698755
mem,resp,860,1,mem3.2.3.bmp,mem3.1.2.bmp,mem1.3.1.bmp,ACC017,"[3, 0, 3]","[3, -3, 0]","[-3, 3, -3]",non-match,0.2679491924311228,1,-1.1957005125218547,0.808305983074935,0.10444277600420496,1st,4th,2nd,-1.233342664497673,1.1995588321832926,-0.0004714108884876929
mem,resp,1125,0,mem3.2.1.bmp,mem3.1.3.bmp,mem3.1.3.bmp,ACC017,"[3, 0, -3]","[3, -3, 3]","[3, -3, 3]",match,1.3545027756320973,,0.46846634078435684,-0.8507283463228252,0.2353034474073375,3rd,1st,2nd,0.29983538053730774,-1.182175354981278,-0.0004714108884876929
mem,resp,719,1,mem1.2.2.bmp,mem2.2.3.bmp,mem2.2.1.bmp,ACC017,"[-3, 0, 0]","[0, 0, 3]","[0, 0, -3]",non-match,1.0144014403465114,3,-0.653249928373221,-0.9876214472467776,0.13157321957188176,2nd,1st,2nd,-0.36273779359311514,-1.182175354981278,-0.0004714108884876929
mem,resp,974,0,mem2.1.2.bmp,mem1.3.2.bmp,mem1.1.2.bmp,ACC017,"[0, -3, 0]","[-3, 3, 0]","[-3, -3, 0]",non-match,1.1339745962155614,4,1.5327101182434573,0.16589151921957826,0.17517751719827704,4th,3rd,2nd,1.312262514754749,0.270803135382667,-0.0004714108884876929
mem,resp,1174,1,mem1.1.3.bmp,mem1.1.1.bmp,mem1.3.3.bmp,ACC017,"[-3, -3, 3]","[-3, -3, -3]","[-3, 3, 3]",non-match,0.6061531498826483,1,0.6767157577670686,-0.08652775518804103,0.20047312553237007,3rd,2nd,2nd,0.29983538053730774,-0.2728336858966131,-0.0004714108884876929
mem,resp,1104,1,mem2.3.3.bmp,mem1.3.1.bmp,mem3.1.3.bmp,ACC017,"[0, 3, 3]","[-3, 3, -3]","[3, -3, 3]",non-match,0.3545027756320972,1,-0.8497864308908746,-0.15672186199210908,0.29580629238781214,1st,2nd,3rd,-1.233342664497673,-0.2728336858966131,0.44791459966698755
mem,resp,704,1,mem2.1.2.bmp,mem2.2.2.bmp,mem1.2.1.bmp,ACC017,"[0, -3, 0]","[0, 0, 0]","[-3, 0, -3]",non-match,1.091751709536137,4,-1.7930684511505905,-1.1609814598757244,0.4751408260227845,1st,1st,3rd,-1.233342664497673,-1.182175354981278,0.44791459966698755
mem,resp,717,1,mem2.3.2.bmp,mem2.2.1.bmp,mem1.2.3.bmp,ACC017,"[0, 3, 0]","[0, 0, -3]","[-3, 0, 3]",non-match,0.8545027756320972,2,-0.9677510523995535,0.3951098709401199,0.5549602846600981,1st,3rd,3rd,-1.233342664497673,0.270803135382667,0.44791459966698755
mem,resp,1133,0,mem3.3.2.bmp,mem1.3.3.bmp,mem3.2.1.bmp,ACC017,"[3, 3, 0]","[-3, 3, 3]","[3, 0, -3]",non-match,0.7257263057516985,2,-2.1272057566157434,-2.1792154724112627,0.6452868832249704,1st,1st,3rd,-1.233342664497673,-1.182175354981278,0.44791459966698755
mem,resp,948,1,mem1.2.2.bmp,mem3.3.1.bmp,mem2.1.3.bmp,ACC017,"[-3, 0, 0]","[3, 3, -3]","[0, -3, 3]",non-match,0.6339745962155614,1,0.21070265194655996,-0.09502564539348948,0.532322774614305,3rd,2nd,3rd,0.29983538053730774,-0.2728336858966131,0.44791459966698755
mem,resp,1033,1,mem1.1.1.bmp,mem3.1.2.bmp,mem3.1.2.bmp,ACC017,"[-3, -3, -3]","[3, -3, 0]","[3, -3, 0]",match,1.3545027756320973,,0.040178988406477885,-0.7369373836910714,0.3456215173488829,3rd,1st,3rd,0.29983538053730774,-1.182175354981278,0.44791459966698755
mem,resp,815,0,mem1.3.1.bmp,mem2.2.3.bmp,mem2.2.2.bmp,ACC017,"[-3, 3, -3]","[0, 0, 3]","[0, 0, 0]",non-match,1.2113248654051871,4,-0.4924557335112051,0.16290973324543168,0.5254707787656752,2nd,3rd,3rd,-0.36273779359311514,0.270803135382667,0.44791459966698755
mem,resp,848,1,mem3.2.3.bmp,mem1.2.3.bmp,mem1.2.3.bmp,ACC017,"[3, 0, 3]","[-3, 0, 3]","[-3, 0, 3]",match,1.4226497308103743,,0.886900983621847,1.4970338142441546,0.6259160414118278,4th,4th,3rd,1.312262514754749,1.1995588321832926,0.44791459966698755
mem,resp,730,1,mem2.1.3.bmp,mem3.2.2.bmp,mem2.1.3.bmp,ACC017,"[0, -3, 3]","[3, 0, 0]","[0, -3, 3]",match,1.5,,0.8408801548387811,0.17820428463625373,0.5856576412187382,4th,3rd,3rd,1.312262514754749,0.270803135382667,0.44791459966698755
mem,resp,753,0,mem1.3.3.bmp,mem2.3.1.bmp,mem3.1.2.bmp,ACC017,"[-3, 3, 3]","[0, 3, -3]","[3, -3, 0]",non-match,0.42686781502901383,1,-0.001907134492795405,-0.5891059860183625,0.6698862477343146,3rd,1st,4th,0.29983538053730774,-1.182175354981278,1.0277461291207202
mem,resp,886,1,mem2.1.1.bmp,mem1.2.1.bmp,mem2.1.1.bmp,ACC017,"[0, -3, -3]","[-3, 0, -3]","[0, -3, -3]",match,1.591751709536137,,0.050489694601270396,-0.7005784164582768,0.7258683336905214,3rd,1st,4th,0.29983538053730774,-1.182175354981278,1.0277461291207202
mem,resp,1091,0,mem2.2.2.bmp,mem3.2.1.bmp,mem2.2.2.bmp,ACC017,"[0, 0, 0]","[3, 0, -3]","[0, 0, 0]",match,1.591751709536137,,1.4309282394826546,-0.42660078785552863,0.744164571863498,4th,2nd,4th,1.312262514754749,-0.2728336858966131,1.0277461291207202
mem,resp,784,0,mem1.2.3.bmp,mem1.1.2.bmp,mem1.3.2.bmp,ACC017,"[-3, 0, 3]","[-3, -3, 0]","[-3, 3, 0]",non-match,1.0144014403465114,3,-0.11649176631759259,-0.388849359887205,0.5163021996123602,2nd,2nd,3rd,-0.36273779359311514,-0.2728336858966131,0.44791459966698755
mem,resp,718,0,mem2.2.1.bmp,mem1.2.2.bmp,mem1.2.2.bmp,ACC017,"[0, 0, -3]","[-3, 0, 0]","[-3, 0, 0]",match,1.591751709536137,,-0.13396576829237497,1.9768370028990088,0.6182147068857875,2nd,4th,3rd,-0.36273779359311514,1.1995588321832926,0.44791459966698755
mem,resp,459,1,mem3.3.3.bmp,mem3.1.3.bmp,mem3.1.3.bmp,ACC017,"[3, 3, 3]","[3, -3, 3]","[3, -3, 3]",match,1.4226497308103743,,-1.0446800425846687,-5.961002280387905,0.6958165388847732,1st,1st,4th,-1.233342664497673,-1.182175354981278,1.0277461291207202
mem,resp,490,1,mem2.2.3.bmp,mem3.1.1.bmp,mem3.1.1.bmp,ACC017,"[0, 0, 3]","[3, -3, -3]","[3, -3, -3]",match,1.2928932188134525,,0.5930098775050077,-0.7342685507745925,0.5643796062234246,3rd,1st,3rd,0.29983538053730774,-1.182175354981278,0.44791459966698755
mem,resp,542,1,mem3.2.1.bmp,mem3.3.2.bmp,mem1.2.3.bmp,ACC017,"[3, 0, -3]","[3, 3, 0]","[-3, 0, 3]",non-match,0.4763966378857265,1,2.276947644967341,0.16589499151665002,0.6106569690429279,4th,3rd,3rd,1.312262514754749,0.270803135382667,0.44791459966698755
mem,resp,957,1,mem1.2.1.bmp,mem2.1.2.bmp,mem2.3.2.bmp,ACC017,"[-3, 0, -3]","[0, -3, 0]","[0, 3, 0]",non-match,0.9226497308103743,2,-1.630225053478073,-3.5876709840689265,0.6323116235355087,1st,1st,3rd,-1.233342664497673,-1.182175354981278,0.44791459966698755
mem,resp,647,1,mem1.3.2.bmp,mem2.1.1.bmp,mem2.1.1.bmp,ACC017,"[-3, 3, 0]","[0, -3, -3]","[0, -3, -3]",match,1.2928932188134525,,1.0162265105383539,1.1475088531825963,0.46150560399054397,4th,4th,3rd,1.312262514754749,1.1995588321832926,0.44791459966698755
mem,resp,945,1,mem3.1.2.bmp,mem3.2.3.bmp,mem3.1.2.bmp,ACC017,"[3, -3, 0]","[3, 0, 3]","[3, -3, 0]",match,1.591751709536137,,0.6611410183435108,0.7604294269283618,0.5931670903506809,3rd,4th,3rd,0.29983538053730774,1.1995588321832926,0.44791459966698755
mem,resp,632,1,mem1.1.2.bmp,mem2.1.3.bmp,mem2.1.3.bmp,ACC017,"[-3, -3, 0]","[0, -3, 3]","[0, -3, 3]",match,1.591751709536137,,-0.8633370337248185,1.1142369750652168,0.5519619774703106,1st,4th,3rd,-1.233342664497673,1.1995588321832926,0.44791459966698755
mem,resp,514,1,mem3.2.2.bmp,mem3.3.3.bmp,mem3.2.2.bmp,ACC017,"[3, 0, 0]","[3, 3, 3]","[3, 0, 0]",match,1.591751709536137,,-1.0453991682591526,-0.7341681817347052,0.5258678560417367,1st,1st,3rd,-1.233342664497673,-1.182175354981278,0.44791459966698755
mem,resp,739,1,mem3.1.3.bmp,mem1.2.1.bmp,mem3.2.1.bmp,ACC017,"[3, -3, 3]","[-3, 0, -3]","[3, 0, -3]",non-match,0.7771525064424715,2,1.6631938152056671,0.573145417308844,0.6647150781457779,4th,4th,3rd,1.312262514754749,1.1995588321832926,0.44791459966698755
mem,resp,890,1,mem3.1.1.bmp,mem1.2.2.bmp,mem3.3.2.bmp,ACC017,"[3, -3, -3]","[-3, 0, 0]","[3, 3, 0]",non-match,0.7090055512641944,2,1.3121887752842565,0.9220138849211913,0.5703560957343372,4th,4th,3rd,1.312262514754749,1.1995588321832926,0.44791459966698755
mem,resp,945,1,mem3.3.1.bmp,mem1.1.2.bmp,mem2.3.2.bmp,ACC017,"[3, 3, -3]","[-3, -3, 0]","[0, 3, 0]",non-match,0.9462544851682343,3,-0.29674265445917763,1.396894666628986,0.6984138608632153,2nd,4th,4th,-0.36273779359311514,1.1995588321832926,1.0277461291207202
mem,resp,668,1,mem2.3.1.bmp,mem1.3.3.bmp,mem2.1.3.bmp,ACC017,"[0, 3, -3]","[-3, 3, 3]","[0, -3, 3]",non-match,0.5380061947043713,1,0.42064493420407445,-0.4110559444472396,0.454375716577152,3rd,2nd,3rd,0.29983538053730774,-0.2728336858966131,0.44791459966698755
mem,resp,699,1,mem2.3.3.bmp,mem3.1.2.bmp,mem1.3.1.bmp,ACC017,"[0, 3, 3]","[3, -3, 0]","[-3, 3, -3]",non-match,0.4884773718476586,1,2.361216968710582,-0.17855802452112332,0.4447673578189337,4th,2nd,3rd,1.312262514754749,-0.2728336858966131,0.44791459966698755
mem,resp,733,1,mem1.3.2.bmp,mem2.2.2.bmp,mem2.2.3.bmp,ACC017,"[-3, 3, 0]","[0, 0, 0]","[0, 0, 3]",non-match,1.2113248654051871,4,-0.19283302952783485,0.19763568489791505,0.4902706140546731,2nd,3rd,3rd,-0.36273779359311514,0.270803135382667,0.44791459966698755
mem,resp,1003,1,mem3.1.3.bmp,mem3.2.3.bmp,mem3.2.3.bmp,ACC017,"[3, -3, 3]","[3, 0, 3]","[3, 0, 3]",match,1.7113248654051871,,2.0076636452993855,2.1837224243066293,0.3473030982644004,4th,4th,3rd,1.312262514754749,1.1995588321832926,0.44791459966698755
mem,resp,1154,1,mem3.2.2.bmp,mem2.1.3.bmp,mem3.2.2.bmp,ACC017,"[3, 0, 0]","[0, -3, 3]","[3, 0, 0]",match,1.5,,-0.11299176351622893,-0.4908361134985373,0.33040057620163604,2nd,2nd,3rd,-0.36273779359311514,-0.2728336858966131,0.44791459966698755
mem,resp,857,1,mem3.3.3.bmp,mem1.3.1.bmp,mem3.3.3.bmp,ACC017,"[3, 3, 3]","[-3, 3, -3]","[3, 3, 3]",match,1.1835034190722742,,-0.8485257629202491,0.740779894344047,0.22792825610154752,1st,4th,2nd,-1.233342664497673,1.1995588321832926,-0.0004714108884876929
mem,resp,620,1,mem1.2.3.bmp,mem3.3.1.bmp,mem3.3.1.bmp,ACC017,"[-3, 0, 3]","[3, 3, -3]","[3, 3, -3]",match,1.1339745962155614,,-0.7565872559004325,0.6883793282031265,0.3675586791418179,1st,4th,3rd,-1.233342664497673,1.1995588321832926,0.44791459966698755
mem,resp,639,1,mem2.2.1.bmp,mem3.2.1.bmp,mem2.2.1.bmp,ACC017,"[0, 0, -3]","[3, 0, -3]","[0, 0, -3]",match,1.7113248654051871,,-0.24860636039899672,0.2622536265585947,0.4127642710148427,2nd,3rd,3rd,-0.36273779359311514,0.270803135382667,0.44791459966698755
mem,resp,1407,1,mem1.3.3.bmp,mem2.3.3.bmp,mem2.1.1.bmp,ACC017,"[-3, 3, 3]","[0, 3, 3]","[0, -3, -3]",non-match,0.3174780152878355,1,0.49182144072258144,0.7052091917775251,0.44569810138711674,3rd,4th,3rd,0.29983538053730774,1.1995588321832926,0.44791459966698755
mem,resp,618,0,mem2.3.2.bmp,mem3.1.1.bmp,mem3.2.2.bmp,ACC017,"[0, 3, 0]","[3, -3, -3]","[3, 0, 0]",non-match,1.1835034190722742,4,1.131995686668526,0.35644764470897417,0.47397955033347255,4th,3rd,3rd,1.312262514754749,0.270803135382667,0.44791459966698755
mem,resp,864,1,mem1.2.2.bmp,mem2.2.3.bmp,mem1.2.2.bmp,ACC017,"[-3, 0, 0]","[0, 0, 3]","[-3, 0, 0]",match,1.591751709536137,,0.6910203600225081,0.675170644626882,0.37117502522093343,3rd,4th,3rd,0.29983538053730774,1.1995588321832926,0.44791459966698755
mem,resp,866,1,mem3.1.2.bmp,mem1.1.1.bmp,mem1.1.1.bmp,ACC017,"[3, -3, 0]","[-3, -3, -3]","[-3, -3, -3]",match,1.3545027756320973,,-0.041189787358467234,-0.4061726335997575,0.37719087510033117,2nd,2nd,3rd,-0.36273779359311514,-0.2728336858966131,0.44791459966698755
mem,resp,892,1,mem2.2.2.bmp,mem1.3.2.bmp,mem1.3.2.bmp,ACC017,"[0, 0, 0]","[-3, 3, 0]","[-3, 3, 0]",match,1.591751709536137,,1.761856360644995,-0.08892853741676912,0.3153128888899286,4th,2nd,3rd,1.312262514754749,-0.2728336858966131,0.44791459966698755
mem,resp,705,1,mem2.3.2.bmp,mem2.2.1.bmp,mem2.3.2.bmp,ACC017,"[0, 3, 0]","[0, 0, -3]","[0, 3, 0]",match,1.591751709536137,,0.4240981716661281,-0.26880346764425095,0.30105841510776676,3rd,2nd,3rd,0.29983538053730774,-0.2728336858966131,0.44791459966698755
mem,resp,748,1,mem3.2.3.bmp,mem1.2.3.bmp,mem3.2.3.bmp,ACC017,"[3, 0, 3]","[-3, 0, 3]","[3, 0, 3]",match,1.4226497308103743,,0.3956904998450599,-0.3694813290471045,-0.005609821178939541,3rd,2nd,2nd,0.29983538053730774,-0.2728336858966131,-0.0004714108884876929
mem,resp,584,1,mem1.1.1.bmp,mem2.2.3.bmp,mem1.1.1.bmp,ACC017,"[-3, -3, -3]","[0, 0, 3]","[-3, -3, -3]",match,1.2928932188134525,,-0.09703001092577201,-1.765627277335628,0.20562395754461502,2nd,1st,2nd,-0.36273779359311514,-1.182175354981278,-0.0004714108884876929
mem,resp,603,0,mem1.3.3.bmp,mem3.2.2.bmp,mem2.2.2.bmp,ACC017,"[-3, 3, 3]","[3, 0, 0]","[0, 0, 0]",non-match,1.2113248654051871,4,-0.36473595817152177,-0.5297394268841578,0.03274695312553931,2nd,2nd,2nd,-0.36273779359311514,-0.2728336858966131,-0.0004714108884876929
mem,resp,833,0,mem1.1.3.bmp,mem2.3.2.bmp,mem2.1.1.bmp,ACC017,"[-3, -3, 3]","[0, 3, 0]","[0, -3, -3]",non-match,0.7090055512641944,2,-0.9692636354929242,0.14777078007245098,-0.10796753800415371,1st,3rd,2nd,-1.233342664497673,0.270803135382667,-0.0004714108884876929
mem,resp,962,1,mem2.1.2.bmp,mem2.3.1.bmp,mem2.3.1.bmp,ACC017,"[0, -3, 0]","[0, 3, -3]","[0, 3, -3]",match,1.3545027756320973,,1.964302520469055,-0.8741787942966781,0.015160740626806038,4th,1st,2nd,1.312262514754749,-1.182175354981278,-0.0004714108884876929
mem,resp,808,1,mem2.1.3.bmp,mem3.1.3.bmp,mem3.3.3.bmp,ACC017,"[0, -3, 3]","[3, -3, 3]","[3, 3, 3]",non-match,0.7771525064424715,2,2.127241402514222,-0.31196238409844335,0.055173662450499844,4th,2nd,2nd,1.312262514754749,-0.2728336858966131,-0.0004714108884876929
mem,resp,879,1,mem3.1.2.bmp,mem1.1.1.bmp,mem1.2.3.bmp,ACC017,"[3, -3, 0]","[-3, -3, -3]","[-3, 0, 3]",non-match,0.6473959944455496,1,-1.0596308013302138,0.8352808176950479,0.09399872871354015,1st,4th,2nd,-1.233342664497673,1.1995588321832926,-0.0004714108884876929
mem,resp,856,1,mem1.1.2.bmp,mem3.2.1.bmp,mem2.2.1.bmp,ACC017,"[-3, -3, 0]","[3, 0, -3]","[0, 0, -3]",non-match,1.2113248654051871,4,0.39542823194628096,-0.010943169240128125,0.13329323018727537,3rd,3rd,2nd,0.29983538053730774,0.270803135382667,-0.0004714108884876929
mem,resp,1197,1,mem2.2.2.bmp,mem1.3.3.bmp,mem1.3.3.bmp,ACC017,"[0, 0, 0]","[-3, 3, 3]","[-3, 3, 3]",match,1.5,,-0.24313007681508067,-1.276802973876023,0.10288641267189409,2nd,1st,2nd,-0.36273779359311514,-1.182175354981278,-0.0004714108884876929
mem,resp,937,1,mem1.3.1.bmp,mem1.1.3.bmp,mem2.1.1.bmp,ACC017,"[-3, 3, -3]","[-3, -3, 3]","[0, -3, -3]",non-match,0.7090055512641944,2,0.2962722968572531,-1.3355742254891654,-0.02268270827297294,3rd,1st,2nd,0.29983538053730774,-1.182175354981278,-0.0004714108884876929
mem,resp,881,1,mem2.2.3.bmp,mem3.3.1.bmp,mem2.3.2.bmp,ACC017,"[0, 0, 3]","[3, 3, -3]","[0, 3, 0]",non-match,1.1835034190722742,4,1.8828904205273609,2.499363007150347,-0.30691560573382504,4th,4th,1st,1.312262514754749,1.1995588321832926,-1.4562766343364115
mem,resp,954,1,mem1.2.2.bmp,mem1.2.1.bmp,mem1.2.1.bmp,ACC017,"[-3, 0, 0]","[-3, 0, -3]","[-3, 0, -3]",match,1.7113248654051871,,-0.16473513235734707,-0.8448328281213878,-0.34775533269990405,2nd,1st,1st,-0.36273779359311514,-1.182175354981278,-1.4562766343364115
mem,resp,889,1,mem3.2.2.bmp,mem1.1.2.bmp,mem3.2.3.bmp,ACC017,"[3, 0, 0]","[-3, -3, 0]","[3, 0, 3]",non-match,1.0042180842186395,3,0.5990334208602379,0.28932126323158014,-0.3134724210994718,3rd,3rd,1st,0.29983538053730774,0.270803135382667,-1.4562766343364115
mem,resp,767,1,mem1.3.2.bmp,mem2.3.3.bmp,mem3.3.2.bmp,ACC017,"[-3, 3, 0]","[0, 3, 3]","[3, 3, 0]",non-match,1.0144014403465114,3,-0.5028037525961491,-0.12878254772401845,-0.3009288892174979,2nd,2nd,2nd,-0.36273779359311514,-0.2728336858966131,-0.0004714108884876929
mem,resp,1323,1,mem3.3.1.bmp,mem1.3.1.bmp,mem1.3.1.bmp,ACC017,"[3, 3, -3]","[-3, 3, -3]","[-3, 3, -3]",match,1.4226497308103743,,-1.7709254148565055,-0.3014411765619893,-0.381128600764695,1st,2nd,1st,-1.233342664497673,-0.2728336858966131,-1.4562766343364115
mem,resp,967,1,mem3.3.3.bmp,mem3.1.2.bmp,mem3.1.2.bmp,ACC017,"[3, 3, 3]","[3, -3, 0]","[3, -3, 0]",match,1.3545027756320973,,0.5411263318349989,0.8621714654899291,-0.4993525110359522,3rd,4th,1st,0.29983538053730774,1.1995588321832926,-1.4562766343364115
mem,resp,800,1,mem3.1.1.bmp,mem2.1.2.bmp,mem1.1.3.bmp,ACC017,"[3, -3, -3]","[0, -3, 0]","[-3, -3, 3]",non-match,0.7752551286084112,2,0.9649774969260001,-0.3746161848871762,-0.2577026824111011,4th,2nd,2nd,1.312262514754749,-0.2728336858966131,-0.0004714108884876929
mem,resp,987,1,mem2.2.1.bmp,mem2.2.2.bmp,mem2.2.1.bmp,ACC017,"[0, 0, -3]","[0, 0, 0]","[0, 0, -3]",match,1.7113248654051871,,-0.4088591580573287,-0.248800956408074,-0.34626846988420096,2nd,2nd,1st,-0.36273779359311514,-0.2728336858966131,-1.4562766343364115
mem,resp,980,1,mem3.2.1.bmp,mem3.3.2.bmp,mem3.2.1.bmp,ACC017,"[3, 0, -3]","[3, 3, 0]","[3, 0, -3]",match,1.591751709536137,,-1.724435469528228,0.12968600868178445,-0.2662814250748871,1st,3rd,2nd,-1.233342664497673,0.270803135382667,-0.0004714108884876929
mem,resp,843,1,mem2.3.1.bmp,mem3.2.3.bmp,mem2.1.3.bmp,ACC017,"[0, 3, -3]","[3, 0, 3]","[0, -3, 3]",non-match,0.7752551286084112,2,1.4649724077995048,0.707879617528392,-0.17832512427564032,4th,4th,2nd,1.312262514754749,1.1995588321832926,-0.0004714108884876929
mem,resp,873,1,mem1.2.3.bmp,mem2.1.1.bmp,mem2.1.1.bmp,ACC017,"[-3, 0, 3]","[0, -3, -3]","[0, -3, -3]",match,1.2928932188134525,,-0.34253134424393655,0.1312754035301312,-0.281242296929212,2nd,3rd,2nd,-0.36273779359311514,0.270803135382667,-0.0004714108884876929
mem,resp,1001,1,mem1.2.1.bmp,mem1.3.2.bmp,mem1.2.1.bmp,ACC017,"[-3, 0, -3]","[-3, 3, 0]","[-3, 0, -3]",match,1.591751709536137,,-1.0282722071889723,-0.8338168018734399,-0.2285994209895043,1st,1st,2nd,-1.233342664497673,-1.182175354981278,-0.0004714108884876929
mem,resp,1216,1,mem2.3.3.bmp,mem1.3.1.bmp,mem2.2.3.bmp,ACC017,"[0, 3, 3]","[-3, 3, -3]","[0, 0, 3]",non-match,1.0042180842186395,3,-0.734205750467931,0.3992529109821536,-0.17211247345369313,2nd,3rd,2nd,-0.36273779359311514,0.270803135382667,-0.0004714108884876929
mem,resp,983,1,mem3.3.2.bmp,mem2.2.1.bmp,mem3.3.3.bmp,ACC017,"[3, 3, 0]","[0, 0, -3]","[3, 3, 3]",non-match,1.0042180842186395,3,-0.15154978608677472,0.3874754034348514,-0.033685067183812915,2nd,3rd,2nd,-0.36273779359311514,0.270803135382667,-0.0004714108884876929
mem,resp,929,0,mem2.1.1.bmp,mem1.1.3.bmp,mem1.2.3.bmp,ACC017,"[0, -3, -3]","[-3, -3, 3]","[-3, 0, 3]",non-match,1.0042180842186395,3,-2.6585805204209074,-2.753843425255345,0.2562304651632316,1st,1st,3rd,-1.233342664497673,-1.182175354981278,0.44791459966698755
mem,resp,1027,1,mem3.1.3.bmp,mem3.1.1.bmp,mem3.1.3.bmp,ACC017,"[3, -3, 3]","[3, -3, -3]","[3, -3, 3]",match,1.4226497308103743,,-1.3564314301604588,0.10351078511377661,0.07736554230233736,1st,3rd,2nd,-1.233342664497673,0.270803135382667,-0.0004714108884876929
mem,resp,786,1,mem3.2.2.bmp,mem2.2.2.bmp,mem2.2.3.bmp,ACC017,"[3, 0, 0]","[0, 0, 0]","[0, 0, 3]",non-match,1.3030765749413242,4,-0.812898609538243,1.4815640756388038,0.08884299429653082,1st,4th,2nd,-1.233342664497673,1.1995588321832926,-0.0004714108884876929
mem,resp,725,1,mem2.2.1.bmp,mem3.2.3.bmp,mem1.2.2.bmp,ACC017,"[0, 0, -3]","[3, 0, 3]","[-3, 0, 0]",non-match,0.9462544851682343,3,0.5556199733871781,-0.3536104746149191,-0.045639695530854056,3rd,2nd,2nd,0.29983538053730774,-0.2728336858966131,-0.0004714108884876929
mem,resp,1426,1,mem2.1.3.bmp,mem2.3.1.bmp,mem2.3.1.bmp,ACC017,"[0, -3, 3]","[0, 3, -3]","[0, 3, -3]",match,1.1835034190722742,,-0.8085508124547657,0.45636731694318766,0.024493322361857275,1st,3rd,2nd,-1.233342664497673,0.270803135382667,-0.0004714108884876929
mem,resp,622,1,mem2.1.1.bmp,mem2.3.2.bmp,mem3.1.3.bmp,ACC017,"[0, -3, -3]","[0, 3, 0]","[3, -3, 3]",non-match,0.6473959944455496,1,1.2432796417699514,1.4664476596392695,0.11221912709443364,4th,4th,2nd,1.312262514754749,1.1995588321832926,-0.0004714108884876929
mem,resp,660,1,mem3.2.1.bmp,mem2.1.2.bmp,mem2.1.2.bmp,ACC017,"[3, 0, -3]","[0, -3, 0]","[0, -3, 0]",match,1.5,,-0.10226967684737834,1.4532088391450437,0.1379084697984354,2nd,4th,2nd,-0.36273779359311514,1.1995588321832926,-0.0004714108884876929
mem,resp,923,1,mem3.1.1.bmp,mem2.2.3.bmp,mem2.2.3.bmp,ACC017,"[3, -3, -3]","[0, 0, 3]","[0, 0, 3]",match,1.2928932188134525,,-1.4130286745841594,-0.9763754591169301,0.20614397413723937,1st,1st,2nd,-1.233342664497673,-1.182175354981278,-0.0004714108884876929
mem,resp,724,0,mem3.1.2.bmp,mem1.2.2.bmp,mem3.1.2.bmp,ACC017,"[3, -3, 0]","[-3, 0, 0]","[3, -3, 0]",match,1.3545027756320973,,1.2504816635649068,-0.11777959172636905,0.38716082619321024,4th,2nd,3rd,1.312262514754749,-0.2728336858966131,0.44791459966698755
mem,resp,721,1,mem2.3.2.bmp,mem3.2.2.bmp,mem2.3.2.bmp,ACC017,"[0, 3, 0]","[3, 0, 0]","[0, 3, 0]",match,1.591751709536137,,-0.7330360410221323,0.4392848928930935,0.022117503753912648,2nd,3rd,2nd,-0.36273779359311514,0.270803135382667,-0.0004714108884876929
mem,resp,680,0,mem1.3.3.bmp,mem3.2.1.bmp,mem2.2.1.bmp,ACC017,"[-3, 3, 3]","[3, 0, -3]","[0, 0, -3]",non-match,1.0042180842186395,3,1.345121760322432,-0.21267855169736707,0.060374378617887935,4th,2nd,2nd,1.312262514754749,-0.2728336858966131,-0.0004714108884876929
mem,resp,561,1,mem2.2.3.bmp,mem1.1.2.bmp,mem1.1.2.bmp,ACC017,"[0, 0, 3]","[-3, -3, 0]","[-3, -3, 0]",match,1.5,,-0.9846833562226757,1.7280893714484042,0.0630438981071642,1st,4th,2nd,-1.233342664497673,1.1995588321832926,-0.0004714108884876929
mem,resp,634,0,mem1.1.3.bmp,mem2.3.3.bmp,mem1.2.3.bmp,ACC017,"[-3, -3, 3]","[0, 3, 3]","[-3, 0, 3]",non-match,1.3030765749413242,4,-1.1393667964039722,-0.8392687177451921,-0.10621685468610607,1st,1st,2nd,-1.233342664497673,-1.182175354981278,-0.0004714108884876929
mem,resp,534,1,mem1.2.2.bmp,mem3.3.1.bmp,mem1.2.2.bmp,ACC017,"[-3, 0, 0]","[3, 3, -3]","[-3, 0, 0]",match,1.2928932188134525,,-0.016391461425322135,0.5829905915356779,-0.21052628686256453,3rd,4th,2nd,0.29983538053730774,1.1995588321832926,-0.0004714108884876929
mem,resp,947,1,mem2.1.2.bmp,mem2.1.1.bmp,mem2.1.1.bmp,ACC017,"[0, -3, 0]","[0, -3, -3]","[0, -3, -3]",match,1.7113248654051871,,0.8254833341559272,0.48519747195531765,-0.20878783332035286,4th,3rd,2nd,1.312262514754749,0.270803135382667,-0.0004714108884876929
mem,resp,721,1,mem1.2.2.bmp,mem1.1.3.bmp,mem1.1.3.bmp,ACC017,"[-3, 0, 0]","[-3, -3, 3]","[-3, -3, 3]",match,1.591751709536137,,-1.2994727928450445,-0.7754542934708235,-0.2762346276152804,1st,1st,2nd,-1.233342664497673,-1.182175354981278,-0.0004714108884876929
mem,resp,789,1,mem1.2.3.bmp,mem3.1.2.bmp,mem1.2.3.bmp,ACC017,"[-3, 0, 3]","[3, -3, 0]","[-3, 0, 3]",match,1.2928932188134525,,-0.6364991005708444,-0.48280541103684643,-0.38405543063254843,2nd,2nd,1st,-0.36273779359311514,-0.2728336858966131,-1.4562766343364115
mem,resp,839,1,mem3.2.2.bmp,mem1.2.1.bmp,mem2.3.3.bmp,ACC017,"[3, 0, 0]","[-3, 0, -3]","[0, 3, 3]",non-match,0.7928932188134524,2,0.23129106407598554,-0.4405217918836689,-0.3207893236203429,3rd,2nd,1st,0.29983538053730774,-0.2728336858966131,-1.4562766343364115
mem,resp,808,0,mem3.2.1.bmp,mem1.1.2.bmp,mem2.1.3.bmp,ACC017,"[3, 0, -3]","[-3, -3, 0]","[0, -3, 3]",non-match,0.8846449283495895,2,-0.061263826013544465,-1.048358084005773,-0.3314311406629914,2nd,1st,1st,-0.36273779359311514,-1.182175354981278,-1.4562766343364115
mem,resp,1003,1,mem1.3.1.bmp,mem1.3.2.bmp,mem3.2.3.bmp,ACC017,"[-3, 3, -3]","[-3, 3, 0]","[3, 0, 3]",non-match,0.42686781502901383,1,0.161450834041107,1.237864574495274,-0.27571137182885425,3rd,4th,2nd,0.29983538053730774,1.1995588321832926,-0.0004714108884876929
mem,resp,798,1,mem3.3.2.bmp,mem3.3.1.bmp,mem3.3.2.bmp,ACC017,"[3, 3, 0]","[3, 3, -3]","[3, 3, 0]",match,1.7113248654051871,,-1.2289178008824306,0.1845939663987943,-0.39772247732366695,1st,3rd,1st,-1.233342664497673,0.270803135382667,-1.4562766343364115
mem,resp,820,1,mem3.1.3.bmp,mem3.3.3.bmp,mem2.2.3.bmp,ACC017,"[3, -3, 3]","[3, 3, 3]","[0, 0, 3]",non-match,1.1835034190722742,4,0.7981788605460941,1.2647431675229621,-0.21954860009644594,4th,4th,2nd,1.312262514754749,1.1995588321832926,-0.0004714108884876929
mem,resp,770,1,mem2.2.2.bmp,mem1.2.2.bmp,mem2.2.2.bmp,ACC017,"[0, 0, 0]","[-3, 0, 0]","[0, 0, 0]",match,1.7113248654051871,,-0.6399097593166189,-0.1742219607951682,-0.18473459922793659,2nd,2nd,2nd,-0.36273779359311514,-0.2728336858966131,-0.0004714108884876929
mem,resp,820,0,mem2.1.3.bmp,mem1.3.3.bmp,mem2.1.3.bmp,ACC017,"[0, -3, 3]","[-3, 3, 3]","[0, -3, 3]",match,1.3545027756320973,,-0.5532479427978284,-0.34774809064450196,-0.0370746748940514,2nd,2nd,2nd,-0.36273779359311514,-0.2728336858966131,-0.0004714108884876929
mem,resp,877,0,mem2.3.1.bmp,mem2.3.2.bmp,mem2.3.1.bmp,ACC017,"[0, 3, -3]","[0, 3, 0]","[0, 3, -3]",match,1.7113248654051871,,0.7854283341769138,-0.579557320574384,0.00714499707858528,4th,1st,2nd,1.312262514754749,-1.182175354981278,-0.0004714108884876929
mem,resp,895,1,mem1.3.2.bmp,mem2.3.3.bmp,mem1.3.2.bmp,ACC017,"[-3, 3, 0]","[0, 3, 3]","[-3, 3, 0]",match,1.591751709536137,,0.2595479361024108,0.12853998686048596,0.05262543879449001,3rd,3rd,2nd,0.29983538053730774,0.270803135382667,-0.0004714108884876929
mem,resp,1215,0,mem3.3.1.bmp,mem2.2.3.bmp,mem2.2.3.bmp,ACC017,"[3, 3, -3]","[0, 0, 3]","[0, 0, 3]",match,1.2928932188134525,,-0.90721972560731,0.7906767377510678,0.27460756655277924,1st,4th,3rd,-1.233342664497673,1.1995588321832926,0.44791459966698755
mem,resp,1264,1,mem1.2.1.bmp,mem2.2.2.bmp,mem1.1.1.bmp,ACC017,"[-3, 0, -3]","[0, 0, 0]","[-3, -3, -3]",non-match,1.2113248654051871,4,-0.9504947794809339,-0.38187164789130357,0.30510144619959095,1st,2nd,3rd,-1.233342664497673,-0.2728336858966131,0.44791459966698755
mem,resp,957,0,mem1.1.3.bmp,mem3.3.2.bmp,mem3.3.2.bmp,ACC017,"[-3, -3, 3]","[3, 3, 0]","[3, 3, 0]",match,1.1339745962155614,,0.8141476771043642,0.6526936139854801,0.39897897528091786,4th,4th,3rd,1.312262514754749,1.1995588321832926,0.44791459966698755
mem,resp,747,1,mem2.1.1.bmp,mem3.2.1.bmp,mem3.2.1.bmp,ACC017,"[0, -3, -3]","[3, 0, -3]","[3, 0, -3]",match,1.591751709536137,,-1.5331920108970862,0.19285354564954926,0.6965981284806281,1st,3rd,4th,-1.233342664497673,0.270803135382667,1.0277461291207202
mem,resp,931,1,mem3.1.2.bmp,mem1.2.3.bmp,mem1.3.3.bmp,ACC017,"[3, -3, 0]","[-3, 0, 3]","[-3, 3, 3]",non-match,0.8452994616207485,2,-0.8072872647517776,-0.6156407643102816,0.9293295798173413,1st,1st,4th,-1.233342664497673,-1.182175354981278,1.0277461291207202
mem,resp,756,1,mem3.3.3.bmp,mem2.3.1.bmp,mem3.3.3.bmp,ACC017,"[3, 3, 3]","[0, 3, -3]","[3, 3, 3]",match,1.3545027756320973,,-0.0764353498184997,-0.6497342747222802,0.9649989314903324,2nd,1st,4th,-0.36273779359311514,-1.182175354981278,1.0277461291207202
mem,resp,697,1,mem3.2.3.bmp,mem3.1.3.bmp,mem3.2.3.bmp,ACC017,"[3, 0, 3]","[3, -3, 3]","[3, 0, 3]",match,1.7113248654051871,,0.43294644026661344,2.3221875422148086,0.8251416664382073,3rd,4th,4th,0.29983538053730774,1.1995588321832926,1.0277461291207202
mem,resp,1041,1,mem2.2.1.bmp,mem3.1.1.bmp,mem1.2.1.bmp,ACC017,"[0, 0, -3]","[3, -3, -3]","[-3, 0, -3]",non-match,1.0658276410372842,3,-2.154708138333625,-1.8134878723808028,0.6832138180121151,1st,1st,4th,-1.233342664497673,-1.182175354981278,1.0277461291207202
mem,resp,964,1,mem1.1.1.bmp,mem2.2.2.bmp,mem1.1.1.bmp,ACC017,"[-3, -3, -3]","[0, 0, 0]","[-3, -3, -3]",match,1.5,,-0.008313615747932539,0.8311235608895313,0.7438514260625264,3rd,4th,4th,0.29983538053730774,1.1995588321832926,1.0277461291207202
mem,resp,1020,0,mem1.1.2.bmp,mem1.2.3.bmp,mem1.1.2.bmp,ACC017,"[-3, -3, 0]","[-3, 0, 3]","[-3, -3, 0]",match,1.591751709536137,,0.8402183119267203,3.4134463905777856,0.813732741728193,4th,4th,4th,1.312262514754749,1.1995588321832926,1.0277461291207202
mem,resp,1187,0,mem2.3.2.bmp,mem2.2.3.bmp,mem2.3.2.bmp,ACC017,"[0, 3, 0]","[0, 0, 3]","[0, 3, 0]",match,1.591751709536137,,-0.2212634850663611,-1.4654923803802729,0.9706310404706802,2nd,1st,4th,-0.36273779359311514,-1.182175354981278,1.0277461291207202
mem,resp,841,0,mem1.3.3.bmp,mem2.1.2.bmp,mem1.2.2.bmp,ACC017,"[-3, 3, 3]","[0, -3, 0]","[-3, 0, 0]",non-match,1.1835034190722742,4,0.5066995957659512,-1.5602086148125562,1.272691095283997,3rd,1st,4th,0.29983538053730774,-1.182175354981278,1.0277461291207202
mem,resp,836,1,mem3.1.1.bmp,mem3.2.2.bmp,mem3.1.1.bmp,ACC017,"[3, -3, -3]","[3, 0, 0]","[3, -3, -3]",match,1.591751709536137,,-0.6527132403901972,-0.10563123630029209,1.2651156317704468,2nd,2nd,4th,-0.36273779359311514,-0.2728336858966131,1.0277461291207202
mem,resp,1222,1,mem2.3.3.bmp,mem2.3.1.bmp,mem1.1.1.bmp,ACC017,"[0, 3, 3]","[0, 3, -3]","[-3, -3, -3]",non-match,0.4884773718476586,1,-3.1219147636015774,-0.7784760436188155,1.18702577182324,1st,1st,4th,-1.233342664497673,-1.182175354981278,1.0277461291207202
mem,resp,973,0,mem2.2.3.bmp,mem2.1.3.bmp,mem2.1.1.bmp,ACC017,"[0, 0, 3]","[0, -3, 3]","[0, -3, -3]",non-match,0.7771525064424715,2,-1.050160415380074,-1.273828538893997,1.1956250449584027,1st,1st,4th,-1.233342664497673,-1.182175354981278,1.0277461291207202
mem,resp,979,0,mem1.3.2.bmp,mem3.3.3.bmp,mem3.2.3.bmp,ACC017,"[-3, 3, 0]","[3, 3, 3]","[3, 0, 3]",non-match,1.0042180842186395,3,2.0018566822215376,2.113083781583569,1.3710483455865887,4th,4th,4th,1.312262514754749,1.1995588321832926,1.0277461291207202
mem,resp,773,0,mem2.2.2.bmp,mem3.2.1.bmp,mem1.2.1.bmp,ACC017,"[0, 0, 0]","[3, 0, -3]","[-3, 0, -3]",non-match,1.0144014403465114,3,0.37490496599986173,0.9980066786989201,1.569400601724238,3rd,4th,4th,0.29983538053730774,1.1995588321832926,1.0277461291207202
mem,resp,705,1,mem3.1.2.bmp,mem3.1.3.bmp,mem3.1.3.bmp,ACC017,"[3, -3, 0]","[3, -3, 3]","[3, -3, 3]",match,1.7113248654051871,,-0.022432007691018746,0.42468627500501527,1.6196695518996083,3rd,3rd,4th,0.29983538053730774,0.270803135382667,1.0277461291207202
mem,resp,979,1,mem2.1.2.bmp,mem3.3.2.bmp,mem2.1.2.bmp,ACC017,"[0, -3, 0]","[3, 3, 0]","[0, -3, 0]",match,1.3545027756320973,,-1.4262490046405534,0.45643368367778697,1.627917034734292,1st,3rd,4th,-1.233342664497673,0.270803135382667,1.0277461291207202
mem,resp,1014,0,mem3.1.1.bmp,mem1.3.3.bmp,mem1.3.2.bmp,ACC017,"[3, -3, -3]","[-3, 3, 3]","[-3, 3, 0]",non-match,0.8452994616207485,2,-1.0622496959905883,0.15971708711797108,1.376205835294054,1st,3rd,4th,-1.233342664497673,0.270803135382667,1.0277461291207202
mem,resp,1321,1,mem3.2.1.bmp,mem2.1.1.bmp,mem3.2.2.bmp,ACC017,"[3, 0, -3]","[0, -3, -3]","[3, 0, 0]",non-match,1.2113248654051871,4,-0.7445605629448648,0.7633002304262878,1.1797379777945893,1st,4th,4th,-1.233342664497673,1.1995588321832926,1.0277461291207202
mem,resp,966,0,mem1.3.1.bmp,mem1.2.2.bmp,mem1.2.3.bmp,ACC017,"[-3, 3, -3]","[-3, 0, 0]","[-3, 0, 3]",non-match,1.0658276410372842,3,-1.2730940431954767,0.15947163502401696,1.2016054198149142,1st,3rd,4th,-1.233342664497673,0.270803135382667,1.0277461291207202
mem,resp,617,1,mem3.1.3.bmp,mem1.2.1.bmp,mem2.3.3.bmp,ACC017,"[3, -3, 3]","[-3, 0, -3]","[0, 3, 3]",non-match,0.6473959944455496,1,-0.1950339089443729,0.8672239853046234,1.2181743352013934,2nd,4th,4th,-0.36273779359311514,1.1995588321832926,1.0277461291207202
mem,resp,969,0,mem3.3.3.bmp,mem1.1.2.bmp,mem3.3.2.bmp,ACC017,"[3, 3, 3]","[-3, -3, 0]","[3, 3, 0]",non-match,0.8948282844774612,2,-0.8885235276481083,0.5211103923285311,1.1187397541437145,1st,3rd,4th,-1.233342664497673,0.270803135382667,1.0277461291207202
mem,resp,1257,1,mem2.3.2.bmp,mem1.1.3.bmp,mem3.1.1.bmp,ACC017,"[0, 3, 0]","[-3, -3, 3]","[3, -3, -3]",non-match,0.4763966378857265,1,-1.236860669194833,1.2465727024611648,1.1110384637949275,1st,4th,4th,-1.233342664497673,1.1995588321832926,1.0277461291207202
mem,resp,829,0,mem1.2.3.bmp,mem2.2.1.bmp,mem1.3.3.bmp,ACC017,"[-3, 0, 3]","[0, 0, -3]","[-3, 3, 3]",non-match,1.0042180842186395,3,0.10797272397433273,-1.3316159358100232,0.8248891035015814,3rd,1st,4th,0.29983538053730774,-1.182175354981278,1.0277461291207202
mem,resp,872,1,mem2.1.3.bmp,mem1.1.1.bmp,mem2.1.3.bmp,ACC017,"[0, -3, 3]","[-3, -3, -3]","[0, -3, 3]",match,1.3545027756320973,,-0.32558689434247967,0.4159277987315828,0.8453010748846469,2nd,3rd,4th,-0.36273779359311514,0.270803135382667,1.0277461291207202
mem,resp,915,1,mem3.1.2.bmp,mem3.1.1.bmp,mem1.1.2.bmp,ACC017,"[3, -3, 0]","[3, -3, -3]","[-3, -3, 0]",non-match,0.7771525064424715,2,-0.24509785257102887,1.339733188112365,0.8743954858434357,2nd,4th,4th,-0.36273779359311514,1.1995588321832926,1.0277461291207202
mem,resp,796,1,mem2.2.2.bmp,mem3.3.2.bmp,mem1.2.1.bmp,ACC017,"[0, 0, 0]","[3, 3, 0]","[-3, 0, -3]",non-match,0.8846449283495895,2,-1.457650127332662,0.5426652005221692,1.0482432386140101,1st,3rd,4th,-1.233342664497673,0.270803135382667,1.0277461291207202
mem,resp,1009,0,mem3.3.3.bmp,mem1.1.3.bmp,mem3.3.1.bmp,ACC017,"[3, 3, 3]","[-3, -3, 3]","[3, 3, -3]",non-match,0.42264973081037427,1,-0.11351021580341995,-0.3679787252467937,1.0891558224848072,2nd,2nd,4th,-0.36273779359311514,-0.2728336858966131,1.0277461291207202
mem,resp,955,1,mem2.1.2.bmp,mem2.3.3.bmp,mem2.3.3.bmp,ACC017,"[0, -3, 0]","[0, 3, 3]","[0, 3, 3]",match,1.3545027756320973,,0.10558436296635605,-2.52974520486984,0.953107069817286,3rd,1st,4th,0.29983538053730774,-1.182175354981278,1.0277461291207202
mem,resp,756,1,mem2.2.3.bmp,mem2.2.1.bmp,mem3.1.2.bmp,ACC017,"[0, 0, 3]","[0, 0, -3]","[3, -3, 0]",non-match,1.0,3,0.3953796663405722,1.3143112564638249,0.8352350884703986,3rd,4th,4th,0.29983538053730774,1.1995588321832926,1.0277461291207202
mem,resp,1142,1,mem2.3.2.bmp,mem2.3.1.bmp,mem1.3.1.bmp,ACC017,"[0, 3, 0]","[0, 3, -3]","[-3, 3, -3]",non-match,1.3030765749413242,4,0.25422128621303425,-0.9474162108149614,0.8976114556017167,3rd,1st,4th,0.29983538053730774,-1.182175354981278,1.0277461291207202
mem,resp,1279,0,mem1.3.2.bmp,mem3.2.1.bmp,mem1.3.2.bmp,ACC017,"[-3, 3, 0]","[3, 0, -3]","[-3, 3, 0]",match,1.2928932188134525,,-0.6375759593316727,-1.0137295107340099,0.7092370122087793,2nd,1st,4th,-0.36273779359311514,-1.182175354981278,1.0277461291207202
mem,resp,720,1,mem3.3.1.bmp,mem2.1.3.bmp,mem1.1.1.bmp,ACC017,"[3, 3, -3]","[0, -3, 3]","[-3, -3, -3]",non-match,0.5380061947043713,1,-1.1386425386381234,-1.5700595789309701,0.97169841487593,1st,1st,4th,-1.233342664497673,-1.182175354981278,1.0277461291207202
mem,resp,754,1,mem1.3.3.bmp,mem1.2.2.bmp,mem1.2.2.bmp,ACC017,"[-3, 3, 3]","[-3, 0, 0]","[-3, 0, 0]",match,1.591751709536137,,0.13232818005349853,2.723755684879046,0.66411496868354,3rd,4th,3rd,0.29983538053730774,1.1995588321832926,0.44791459966698755
mem,resp,897,1,mem1.2.1.bmp,mem2.3.2.bmp,mem2.3.1.bmp,ACC017,"[-3, 0, -3]","[0, 3, 0]","[0, 3, -3]",non-match,1.3030765749413242,4,-0.4599500360231707,-0.02383819956672443,0.7161054060901525,2nd,2nd,4th,-0.36273779359311514,-0.2728336858966131,1.0277461291207202
mem,resp,746,1,mem1.1.3.bmp,mem1.1.2.bmp,mem1.1.3.bmp,ACC017,"[-3, -3, 3]","[-3, -3, 0]","[-3, -3, 3]",match,1.7113248654051871,,-0.9107303833847527,-0.5142215101569353,1.0415665100500437,1st,2nd,4th,-1.233342664497673,-0.2728336858966131,1.0277461291207202
mem,resp,812,1,mem3.3.2.bmp,mem3.2.2.bmp,mem3.2.2.bmp,ACC017,"[3, 3, 0]","[3, 0, 0]","[3, 0, 0]",match,1.7113248654051871,,0.06503811430030015,-0.7779025167772334,1.4059935377139345,3rd,1st,4th,0.29983538053730774,-1.182175354981278,1.0277461291207202
mem,resp,957,1,mem2.1.1.bmp,mem3.1.3.bmp,mem3.1.3.bmp,ACC017,"[0, -3, -3]","[3, -3, 3]","[3, -3, 3]",match,1.3545027756320973,,-0.3930626654477257,0.5881561247928042,1.5084711128307728,2nd,4th,4th,-0.36273779359311514,1.1995588321832926,1.0277461291207202
mem,resp,850,1,mem1.3.1.bmp,mem1.3.2.bmp,mem1.3.1.bmp,ACC017,"[-3, 3, -3]","[-3, 3, 0]","[-3, 3, -3]",match,1.7113248654051871,,1.5206492154757834,-0.4212044696838246,1.8458085670298117,4th,2nd,4th,1.312262514754749,-0.2728336858966131,1.0277461291207202
mem,resp,824,0,mem1.1.1.bmp,mem3.2.3.bmp,mem2.1.3.bmp,ACC017,"[-3, -3, -3]","[3, 0, 3]","[0, -3, 3]",non-match,0.9462544851682343,3,0.24863304568751077,0.5191062217676998,1.8739164371517756,3rd,3rd,4th,0.29983538053730774,0.270803135382667,1.0277461291207202
mem,resp,745,1,mem2.3.1.bmp,mem1.3.3.bmp,mem2.3.1.bmp,ACC017,"[0, 3, -3]","[-3, 3, 3]","[0, 3, -3]",match,1.3545027756320973,,-0.11314326108712988,0.33850297722940376,1.6429216647966847,2nd,3rd,4th,-0.36273779359311514,0.270803135382667,1.0277461291207202
mem,resp,820,0,mem3.2.1.bmp,mem2.1.1.bmp,mem3.2.1.bmp,ACC017,"[3, 0, -3]","[0, -3, -3]","[3, 0, -3]",match,1.591751709536137,,0.24481262362985204,-0.2726959781768007,1.5229964521254307,3rd,2nd,4th,0.29983538053730774,-0.2728336858966131,1.0277461291207202
mem,resp,712,1,mem3.1.1.bmp,mem2.2.2.bmp,mem3.3.2.bmp,ACC017,"[3, -3, -3]","[0, 0, 0]","[3, 3, 0]",non-match,0.9462544851682343,3,1.0897048017320135,-0.1956649839533573,1.4565769710809955,4th,2nd,4th,1.312262514754749,-0.2728336858966131,1.0277461291207202
mem,resp,795,1,mem3.1.3.bmp,mem2.1.2.bmp,mem3.3.1.bmp,ACC017,"[3, -3, 3]","[0, -3, 0]","[3, 3, -3]",non-match,0.4763966378857265,1,-0.3060354987775257,0.42831928046772577,1.4200648141361636,2nd,3rd,4th,-0.36273779359311514,0.270803135382667,1.0277461291207202
mem,resp,806,1,mem2.3.3.bmp,mem3.3.3.bmp,mem2.3.3.bmp,ACC017,"[0, 3, 3]","[3, 3, 3]","[0, 3, 3]",match,1.7113248654051871,,-1.2100031962916393,-0.4729260379596067,1.1999405230902114,1st,2nd,4th,-1.233342664497673,-0.2728336858966131,1.0277461291207202
mem,resp,971,0,mem1.2.3.bmp,mem2.2.3.bmp,mem3.1.2.bmp,ACC017,"[-3, 0, 3]","[0, 0, 3]","[3, -3, 0]",non-match,0.7928932188134524,2,0.09088415282494236,0.7737122735288565,1.1235419021081252,3rd,4th,4th,0.29983538053730774,1.1995588321832926,1.0277461291207202
mem,resp,763,1,mem1.2.2.bmp,mem3.3.2.bmp,mem3.3.2.bmp,ACC017,"[-3, 0, 0]","[3, 3, 0]","[3, 3, 0]",match,1.3545027756320973,,-0.01918807519297143,-0.7042514761780116,1.2330640588200465,3rd,1st,4th,0.29983538053730774,-1.182175354981278,1.0277461291207202
mem,resp,886,1,mem2.2.1.bmp,mem1.3.3.bmp,mem2.2.1.bmp,ACC017,"[0, 0, -3]","[-3, 3, 3]","[0, 0, -3]",match,1.2928932188134525,,-1.81475475408056,-0.8269249186734374,1.3647576729991535,1st,1st,4th,-1.233342664497673,-1.182175354981278,1.0277461291207202
mem,resp,737,1,mem3.2.2.bmp,mem2.3.3.bmp,mem1.1.1.bmp,ACC017,"[3, 0, 0]","[0, 3, 3]","[-3, -3, -3]",non-match,0.42686781502901383,1,1.3279441815280297,0.19483819272873118,1.3349313183489568,4th,3rd,4th,1.312262514754749,0.270803135382667,1.0277461291207202
mem,resp,1203,0,mem3.2.3.bmp,mem1.3.1.bmp,mem2.1.1.bmp,ACC017,"[3, 0, 3]","[-3, 3, -3]","[0, -3, -3]",non-match,0.6473959944455496,1,-0.7539147017684914,-0.5035619021004016,1.2156918404139887,1st,2nd,4th,-1.233342664497673,-0.2728336858966131,1.0277461291207202
mem,resp,766,1,mem1.1.2.bmp,mem1.2.2.bmp,mem2.3.2.bmp,ACC017,"[-3, -3, 0]","[-3, 0, 0]","[0, 3, 0]",non-match,0.9462544851682343,3,-0.9874858779763552,-0.9036676016832914,1.2158266266664417,1st,1st,4th,-1.233342664497673,-1.182175354981278,1.0277461291207202
mem,resp,785,1,mem1.3.2.bmp,mem2.1.3.bmp,mem3.1.1.bmp,ACC017,"[-3, 3, 0]","[0, -3, 3]","[3, -3, -3]",non-match,0.4884773718476586,1,1.31769105089891,0.6076570037534215,1.1367896131211719,4th,4th,4th,1.312262514754749,1.1995588321832926,1.0277461291207202
mem,resp,1152,0,mem3.2.2.bmp,mem1.2.1.bmp,mem2.1.2.bmp,ACC017,"[3, 0, 0]","[-3, 0, -3]","[0, -3, 0]",non-match,1.091751709536137,4,0.24001101062063168,-1.0351896937140785,0.7563128855679554,3rd,1st,4th,0.29983538053730774,-1.182175354981278,1.0277461291207202
mem,resp,856,0,mem1.1.1.bmp,mem2.1.1.bmp,mem2.2.3.bmp,ACC017,"[-3, -3, -3]","[0, -3, -3]","[0, 0, 3]",non-match,0.6473959944455496,1,-0.6381315397993074,-0.593122762201308,0.6752020056393543,2nd,1st,4th,-0.36273779359311514,-1.182175354981278,1.0277461291207202
mem,resp,667,1,mem2.2.1.bmp,mem2.3.2.bmp,mem2.2.1.bmp,ACC017,"[0, 0, -3]","[0, 3, 0]","[0, 0, -3]",match,1.591751709536137,,1.0325834027111604,0.9639461960560032,0.7064172320132306,4th,4th,4th,1.312262514754749,1.1995588321832926,1.0277461291207202
mem,resp,789,0,mem2.3.3.bmp,mem1.1.2.bmp,mem1.1.2.bmp,ACC017,"[0, 3, 3]","[-3, -3, 0]","[-3, -3, 0]",match,1.2928932188134525,,-0.8333985928074934,0.5684447460115875,0.7395691073673967,1st,4th,4th,-1.233342664497673,1.1995588321832926,1.0277461291207202
mem,resp,670,1,mem2.2.2.bmp,mem1.3.2.bmp,mem1.3.2.bmp,ACC017,"[0, 0, 0]","[-3, 3, 0]","[-3, 3, 0]",match,1.591751709536137,,0.6052128867040578,-0.39757118049626616,0.918237671670289,3rd,2nd,4th,0.29983538053730774,-0.2728336858966131,1.0277461291207202
mem,resp,690,1,mem1.1.3.bmp,mem3.2.1.bmp,mem3.2.1.bmp,ACC017,"[-3, -3, 3]","[3, 0, -3]","[3, 0, -3]",match,1.1339745962155614,,-0.7140242485383387,-1.276569754412356,0.7807155252930855,2nd,1st,4th,-0.36273779359311514,-1.182175354981278,1.0277461291207202
mem,resp,1066,0,mem2.2.3.bmp,mem2.3.1.bmp,mem1.3.1.bmp,ACC017,"[0, 0, 3]","[0, 3, -3]","[-3, 3, -3]",non-match,1.0042180842186395,3,0.09425386467693207,-0.16337019712898074,0.61531422762581,3rd,2nd,3rd,0.29983538053730774,-0.2728336858966131,0.44791459966698755
mem,resp,707,1,mem2.3.2.bmp,mem3.3.3.bmp,mem2.1.1.bmp,ACC017,"[0, 3, 0]","[3, 3, 3]","[0, -3, -3]",non-match,0.4884773718476586,1,-0.33294497162037745,-0.13363947238950658,0.7034207037416087,2nd,2nd,4th,-0.36273779359311514,-0.2728336858966131,1.0277461291207202
mem,resp,619,0,mem3.3.1.bmp,mem3.2.3.bmp,mem3.2.2.bmp,ACC017,"[3, 3, -3]","[3, 0, 3]","[3, 0, 0]",non-match,1.3030765749413242,4,-1.1450828813851273,-0.027730611826715476,0.5671717446051695,1st,2nd,3rd,-1.233342664497673,-0.2728336858966131,0.44791459966698755
mem,resp,912,1,mem2.1.2.bmp,mem3.1.2.bmp,mem2.1.2.bmp,ACC017,"[0, -3, 0]","[3, -3, 0]","[0, -3, 0]",match,1.7113248654051871,,0.6086267963845781,0.9140532835513279,0.42286663990174667,3rd,4th,3rd,0.29983538053730774,1.1995588321832926,0.44791459966698755
mem,resp,643,1,mem1.2.1.bmp,mem1.1.3.bmp,mem1.1.3.bmp,ACC017,"[-3, 0, -3]","[-3, -3, 3]","[-3, -3, 3]",match,1.3545027756320973,,-0.8728943062592903,0.20473119293410197,0.4176665766054969,1st,3rd,3rd,-1.233342664497673,0.270803135382667,0.44791459966698755
mem,resp,1028,0,mem1.1.1.bmp,mem1.2.3.bmp,mem2.1.3.bmp,ACC017,"[-3, -3, -3]","[-3, 0, 3]","[0, -3, 3]",non-match,0.9462544851682343,3,-1.004526128678224,1.352188055648829,0.31819726779293944,1st,4th,3rd,-1.233342664497673,1.1995588321832926,0.44791459966698755
mem,resp,784,0,mem2.3.2.bmp,mem1.3.3.bmp,mem2.2.3.bmp,ACC017,"[0, 3, 0]","[-3, 3, 3]","[0, 0, 3]",non-match,1.1835034190722742,4,-1.703706413413023,-0.11723752029293043,0.23813791799091,1st,2nd,2nd,-1.233342664497673,-0.2728336858966131,-0.0004714108884876929
mem,resp,353,1,mem1.1.3.bmp,mem2.2.2.bmp,mem2.2.2.bmp,ACC017,"[-3, -3, 3]","[0, 0, 0]","[0, 0, 0]",match,1.5,,0.9426036978673353,-0.7693158536938168,0.22118570016808,4th,1st,2nd,1.312262514754749,-1.182175354981278,-0.0004714108884876929
mem,resp,854,1,mem2.1.2.bmp,mem1.2.1.bmp,mem3.3.1.bmp,ACC017,"[0, -3, 0]","[-3, 0, -3]","[3, 3, -3]",non-match,0.6473959944455496,1,0.12463958408235117,0.7800952399998904,0.19222422817276394,3rd,4th,2nd,0.29983538053730774,1.1995588321832926,-0.0004714108884876929
mem,resp,596,1,mem3.2.2.bmp,mem1.1.1.bmp,mem1.1.1.bmp,ACC017,"[3, 0, 0]","[-3, -3, -3]","[-3, -3, -3]",match,1.2928932188134525,,1.5655069840931437,-0.10232364403674639,0.041985075747090844,4th,2nd,2nd,1.312262514754749,-0.2728336858966131,-0.0004714108884876929
mem,resp,899,0,mem3.3.2.bmp,mem2.2.3.bmp,mem2.3.1.bmp,ACC017,"[3, 3, 0]","[0, 0, 3]","[0, 3, -3]",non-match,0.9462544851682343,3,1.3079264235934618,-0.47622616150869623,0.020898055788930562,4th,2nd,2nd,1.312262514754749,-0.2728336858966131,-0.0004714108884876929
mem,resp,829,0,mem1.2.2.bmp,mem2.3.2.bmp,mem1.3.1.bmp,ACC017,"[-3, 0, 0]","[0, 3, 0]","[-3, 3, -3]",non-match,1.1835034190722742,4,-0.016064314760015807,-0.5673783163940828,-0.11687509030257955,3rd,2nd,2nd,0.29983538053730774,-0.2728336858966131,-0.0004714108884876929
mem,resp,773,0,mem3.2.3.bmp,mem2.1.1.bmp,mem2.2.2.bmp,ACC017,"[3, 0, 3]","[0, -3, -3]","[0, 0, 0]",non-match,1.1835034190722742,4,-1.0269836560231695,-1.1027357182107094,-0.12877507252566717,1st,1st,2nd,-1.233342664497673,-1.182175354981278,-0.0004714108884876929
mem,resp,714,0,mem3.3.3.bmp,mem3.2.1.bmp,mem3.1.2.bmp,ACC017,"[3, 3, 3]","[3, 0, -3]","[3, -3, 0]",non-match,0.9462544851682343,3,-0.8300022214668584,1.2258106589980469,-0.20991955719949487,1st,4th,2nd,-1.233342664497673,1.1995588321832926,-0.0004714108884876929
mem,resp,688,0,mem1.3.2.bmp,mem2.3.1.bmp,mem2.3.3.bmp,ACC017,"[-3, 3, 0]","[0, 3, -3]","[0, 3, 3]",non-match,1.0144014403465114,3,0.03690223368881528,-0.2084335374969882,-0.13955930825180643,3rd,2nd,2nd,0.29983538053730774,-0.2728336858966131,-0.0004714108884876929
mem,resp,537,1,mem1.1.2.bmp,mem3.1.3.bmp,mem1.1.2.bmp,ACC017,"[-3, -3, 0]","[3, -3, 3]","[-3, -3, 0]",match,1.3545027756320973,,1.3481081942391642,1.8761682317078296,-0.29464769103736976,4th,4th,2nd,1.312262514754749,1.1995588321832926,-0.0004714108884876929
mem,resp,638,1,mem1.2.3.bmp,mem3.2.2.bmp,mem3.2.2.bmp,ACC017,"[-3, 0, 3]","[3, 0, 0]","[3, 0, 0]",match,1.3545027756320973,,0.3832727675642011,1.1380848423845586,-0.31463602855355743,3rd,4th,1st,0.29983538053730774,1.1995588321832926,-1.4562766343364115
mem,resp,636,1,mem3.1.2.bmp,mem3.1.1.bmp,mem3.3.1.bmp,ACC017,"[3, -3, 0]","[3, -3, -3]","[3, 3, -3]",non-match,0.7771525064424715,2,1.4981592590069928,0.2648576855748623,-0.42488699531244856,4th,3rd,1st,1.312262514754749,0.270803135382667,-1.4562766343364115
mem,resp,668,1,mem2.2.3.bmp,mem2.3.3.bmp,mem2.3.3.bmp,ACC017,"[0, 0, 3]","[0, 3, 3]","[0, 3, 3]",match,1.7113248654051871,,-0.28641309454045705,-0.07399448252854544,-0.4215285353214556,2nd,2nd,1st,-0.36273779359311514,-0.2728336858966131,-1.4562766343364115
mem,resp,751,0,mem2.2.1.bmp,mem2.1.3.bmp,mem2.2.1.bmp,ACC017,"[0, 0, -3]","[0, -3, 3]","[0, 0, -3]",match,1.3545027756320973,,-0.3890662122865254,0.038237594789628855,-0.5014381480550277,2nd,3rd,1st,-0.36273779359311514,0.270803135382667,-1.4562766343364115
mem,resp,662,0,mem1.3.1.bmp,mem1.2.2.bmp,mem2.2.2.bmp,ACC017,"[-3, 3, -3]","[-3, 0, 0]","[0, 0, 0]",non-match,1.2113248654051871,4,0.7561513811770355,-0.5764388497552442,-0.6452224386519818,4th,1st,1st,1.312262514754749,-1.182175354981278,-1.4562766343364115
mem,resp,752,0,mem1.3.3.bmp,mem2.1.2.bmp,mem3.1.3.bmp,ACC017,"[-3, 3, 3]","[0, -3, 0]","[3, -3, 3]",non-match,0.7752551286084112,2,-0.23934412173638717,-0.7372871889582278,-0.7670181572961655,2nd,1st,1st,-0.36273779359311514,-1.182175354981278,-1.4562766343364115
mem,resp,683,1,mem2.3.1.bmp,mem3.2.3.bmp,mem2.1.1.bmp,ACC017,"[0, 3, -3]","[3, 0, 3]","[0, -3, -3]",non-match,0.7155429496238267,2,1.7771467234922942,0.07783042939354198,-0.5004636305538258,4th,3rd,1st,1.312262514754749,0.270803135382667,-1.4562766343364115
mem,resp,819,1,mem3.3.1.bmp,mem3.3.3.bmp,mem1.2.3.bmp,ACC017,"[3, 3, -3]","[3, 3, 3]","[-3, 0, 3]",non-match,0.4884773718476586,1,-0.5640288015003317,-0.8853537651478233,-0.7325780732973757,2nd,1st,1st,-0.36273779359311514,-1.182175354981278,-1.4562766343364115
mem,resp,881,0,mem3.1.1.bmp,mem2.2.1.bmp,mem3.2.1.bmp,ACC017,"[3, -3, -3]","[0, 0, -3]","[3, 0, -3]",non-match,1.4226497308103743,4,-0.6532079662875944,-0.13520564215649547,-0.6207098498443755,2nd,2nd,1st,-0.36273779359311514,-0.2728336858966131,-1.4562766343364115
mem,resp,733,1,mem1.2.1.bmp,mem3.1.2.bmp,mem3.3.2.bmp,ACC017,"[-3, 0, -3]","[3, -3, 0]","[3, 3, 0]",non-match,0.7155429496238267,2,0.2313949257979032,-1.0759213127748157,-0.6262870760311855,3rd,1st,1st,0.29983538053730774,-1.182175354981278,-1.4562766343364115
mem,resp,1108,1,mem2.1.3.bmp,mem1.3.1.bmp,mem2.1.3.bmp,ACC017,"[0, -3, 3]","[-3, 3, -3]","[0, -3, 3]",match,1.1339745962155614,,-0.8439356041051225,-0.8003524405712115,-0.7226890840678799,1st,1st,1st,-1.233342664497673,-1.182175354981278,-1.4562766343364115
mem,resp,1356,1,mem2.1.1.bmp,mem1.3.2.bmp,mem1.1.2.bmp,ACC017,"[0, -3, -3]","[-3, 3, 0]","[-3, -3, 0]",non-match,1.0144014403465114,3,1.0987803165541654,-0.8002948774199902,-0.6979165417915502,4th,1st,1st,1.312262514754749,-1.182175354981278,-1.4562766343364115
mem,resp,798,1,mem3.2.1.bmp,mem3.3.3.bmp,mem1.1.1.bmp,ACC017,"[3, 0, -3]","[3, 3, 3]","[-3, -3, -3]",non-match,0.3545027756320972,1,-0.7747715294581694,-0.9848316582130495,-0.9724458277681125,1st,1st,1st,-1.233342664497673,-1.182175354981278,-1.4562766343364115
mem,resp,853,1,mem3.1.3.bmp,mem3.3.2.bmp,mem3.3.2.bmp,ACC017,"[3, -3, 3]","[3, 3, 0]","[3, 3, 0]",match,1.3545027756320973,,-0.2549220821497965,0.3391912454725738,-1.115349590496688,2nd,3rd,1st,-0.36273779359311514,0.270803135382667,-1.4562766343364115
mem,resp,833,0,mem2.3.3.bmp,mem3.2.2.bmp,mem3.2.3.bmp,ACC017,"[0, 3, 3]","[3, 0, 0]","[3, 0, 3]",non-match,1.3030765749413242,4,0.12641882234960267,0.5784557715598806,-1.3277463488231178,3rd,4th,1st,0.29983538053730774,1.1995588321832926,-1.4562766343364115
mem,resp,777,1,mem2.2.2.bmp,mem1.1.2.bmp,mem1.1.2.bmp,ACC017,"[0, 0, 0]","[-3, -3, 0]","[-3, -3, 0]",match,1.591751709536137,,-2.67304021890221,0.5633953054037307,-1.7837012349411785,1st,3rd,1st,-1.233342664497673,0.270803135382667,-1.4562766343364115
mem,resp,1211,1,mem1.2.2.bmp,mem2.2.3.bmp,mem2.2.3.bmp,ACC017,"[-3, 0, 0]","[0, 0, 3]","[0, 0, 3]",match,1.591751709536137,,-0.026986682212273152,-0.45695873720049957,-1.577777406222818,3rd,2nd,1st,0.29983538053730774,-0.2728336858966131,-1.4562766343364115
mem,resp,844,1,mem1.3.3.bmp,mem1.3.1.bmp,mem3.2.1.bmp,ACC017,"[-3, 3, 3]","[-3, 3, -3]","[3, 0, -3]",non-match,0.4884773718476586,1,0.11779328151921636,-0.026090049732838794,-1.294463599258646,3rd,2nd,1st,0.29983538053730774,-0.2728336858966131,-1.4562766343364115
mem,resp,928,0,mem2.3.3.bmp,mem2.3.2.bmp,mem1.3.2.bmp,ACC017,"[0, 3, 3]","[0, 3, 0]","[-3, 3, 0]",non-match,1.3030765749413242,4,0.07322284193771049,-0.11527816201883738,-1.179945668162238,3rd,2nd,1st,0.29983538053730774,-0.2728336858966131,-1.4562766343364115
mem,resp,699,1,mem2.2.2.bmp,mem2.1.3.bmp,mem2.2.2.bmp,ACC017,"[0, 0, 0]","[0, -3, 3]","[0, 0, 0]",match,1.591751709536137,,-1.1778287030062509,-1.0448561418906002,-1.4535200954154108,1st,1st,1st,-1.233342664497673,-1.182175354981278,-1.4562766343364115
mem,resp,752,0,mem1.1.1.bmp,mem3.2.3.bmp,mem2.1.2.bmp,ACC017,"[-3, -3, -3]","[3, 0, 3]","[0, -3, 0]",non-match,1.091751709536137,4,-0.26680392560453214,0.15777089736673516,-1.3283294843559799,2nd,3rd,1st,-0.36273779359311514,0.270803135382667,-1.4562766343364115
mem,resp,583,1,mem2.2.3.bmp,mem3.1.3.bmp,mem3.1.3.bmp,ACC017,"[0, 0, 3]","[3, -3, 3]","[3, -3, 3]",match,1.591751709536137,,2.542688839947586,-0.1513011804152433,-1.2017111350585967,4th,2nd,1st,1.312262514754749,-0.2728336858966131,-1.4562766343364115
mem,resp,754,1,mem3.2.2.bmp,mem1.3.2.bmp,mem1.3.3.bmp,ACC017,"[3, 0, 0]","[-3, 3, 0]","[-3, 3, 3]",non-match,1.0042180842186395,3,0.8954392784728751,-0.27238478174111863,-1.1381379079674923,4th,2nd,1st,1.312262514754749,-0.2728336858966131,-1.4562766343364115
mem,resp,768,0,mem3.1.2.bmp,mem2.3.1.bmp,mem3.1.2.bmp,ACC017,"[3, -3, 0]","[0, 3, -3]","[3, -3, 0]",match,1.2928932188134525,,2.0466115654988344,1.1889672285246244,-1.3476999113245527,4th,4th,1st,1.312262514754749,1.1995588321832926,-1.4562766343364115
mem,resp,657,1,mem1.2.3.bmp,mem3.1.1.bmp,mem1.3.1.bmp,ACC017,"[-3, 0, 3]","[3, -3, -3]","[-3, 3, -3]",non-match,0.5380061947043713,1,-0.0009351716948350038,-0.41786361215918044,-1.5894169427827656,3rd,2nd,1st,0.29983538053730774,-0.2728336858966131,-1.4562766343364115
mem,resp,760,1,mem3.3.2.bmp,mem1.1.3.bmp,mem2.1.1.bmp,ACC017,"[3, 3, 0]","[-3, -3, 3]","[0, -3, -3]",non-match,0.6473959944455496,1,-0.4683179353372333,-1.5047258854682217,-1.6908223468459496,2nd,1st,1st,-0.36273779359311514,-1.182175354981278,-1.4562766343364115
mem,resp,823,0,mem1.2.1.bmp,mem2.1.2.bmp,mem2.2.3.bmp,ACC017,"[-3, 0, -3]","[0, -3, 0]","[0, 0, 3]",non-match,0.9462544851682343,3,0.9231702081056613,1.065150945781986,-1.7797937244778375,4th,4th,1st,1.312262514754749,1.1995588321832926,-1.4562766343364115
mem,resp,1298,0,mem2.2.1.bmp,mem1.2.2.bmp,mem3.2.2.bmp,ACC017,"[0, 0, -3]","[-3, 0, 0]","[3, 0, 0]",non-match,1.0144014403465114,3,-0.5553300563503426,-0.6874139923856286,-1.872352915627271,2nd,1st,1st,-0.36273779359311514,-1.182175354981278,-1.4562766343364115
mem,resp,601,1,mem3.2.1.bmp,mem3.1.2.bmp,mem1.2.2.bmp,ACC017,"[3, 0, -3]","[3, -3, 0]","[-3, 0, 0]",non-match,0.7090055512641944,2,1.2493386605827768,-1.3623059112784173,-2.021788364994346,4th,1st,1st,1.312262514754749,-1.182175354981278,-1.4562766343364115
mem,resp,873,1,mem2.3.2.bmp,mem3.3.3.bmp,mem3.3.3.bmp,ACC017,"[0, 3, 0]","[3, 3, 3]","[3, 3, 3]",match,1.591751709536137,,0.8851351111381158,-0.017509479548057878,-1.9605799920565208,4th,2nd,1st,1.312262514754749,-0.2728336858966131,-1.4562766343364115
mem,resp,636,0,mem2.2.3.bmp,mem1.2.1.bmp,mem2.2.3.bmp,ACC017,"[0, 0, 3]","[-3, 0, -3]","[0, 0, 3]",match,1.3545027756320973,,1.2595573368175759,0.19979401234572733,-2.0568069728178076,4th,3rd,1st,1.312262514754749,0.270803135382667,-1.4562766343364115
mem,resp,677,1,mem3.2.2.bmp,mem1.3.2.bmp,mem2.2.1.bmp,ACC017,"[3, 0, 0]","[-3, 3, 0]","[0, 0, -3]",non-match,1.091751709536137,4,-0.16137638028387077,0.00677285075301497,-2.1725063180083963,2nd,3rd,1st,-0.36273779359311514,0.270803135382667,-1.4562766343364115
mem,resp,868,1,mem1.1.2.bmp,mem2.3.3.bmp,mem2.3.3.bmp,ACC017,"[-3, -3, 0]","[0, 3, 3]","[0, 3, 3]",match,1.2928932188134525,,-1.491764028675979,0.23623593390208067,-1.9420402325714818,1st,3rd,1st,-1.233342664497673,0.270803135382667,-1.4562766343364115
mem,resp,903,0,mem1.1.3.bmp,mem1.2.2.bmp,mem1.1.3.bmp,ACC017,"[-3, -3, 3]","[-3, 0, 0]","[-3, -3, 3]",match,1.591751709536137,,-1.8813490363228902,-0.17831792828161483,-2.1328948344569065,1st,2nd,1st,-1.233342664497673,-0.2728336858966131,-1.4562766343364115
mem,resp,633,0,mem1.2.1.bmp,mem1.2.3.bmp,mem1.2.3.bmp,ACC017,"[-3, 0, -3]","[-3, 0, 3]","[-3, 0, 3]",match,1.4226497308103743,,0.4714876357460531,0.016667587106921296,-2.1302189775578997,3rd,3rd,1st,0.29983538053730774,0.270803135382667,-1.4562766343364115
mem,resp,704,1,mem3.3.2.bmp,mem3.1.3.bmp,mem3.1.3.bmp,ACC017,"[3, 3, 0]","[3, -3, 3]","[3, -3, 3]",match,1.3545027756320973,,-0.060311436572590776,0.28354529359772407,-2.0369089613978884,2nd,3rd,1st,-0.36273779359311514,0.270803135382667,-1.4562766343364115
mem,resp,625,1,mem2.1.2.bmp,mem2.2.2.bmp,mem2.1.2.bmp,ACC017,"[0, -3, 0]","[0, 0, 0]","[0, -3, 0]",match,1.7113248654051871,,0.8781468274445405,-0.19451855266306464,-2.2035162197597433,4th,2nd,1st,1.312262514754749,-0.2728336858966131,-1.4562766343364115
mem,resp,687,1,mem2.3.1.bmp,mem3.1.1.bmp,mem2.3.1.bmp,ACC017,"[0, 3, -3]","[3, -3, -3]","[0, 3, -3]",match,1.3545027756320973,,0.6569134332192267,0.7711041853376849,-2.0761629935067734,3rd,4th,1st,0.29983538053730774,1.1995588321832926,-1.4562766343364115
mem,resp,745,0,mem1.3.1.bmp,mem3.2.2.bmp,mem1.3.1.bmp,ACC017,"[-3, 3, -3]","[3, 0, 0]","[-3, 3, -3]",match,1.2928932188134525,,-1.1015652412227215,-0.34916072591738107,-1.9043485134531273,1st,2nd,1st,-1.233342664497673,-0.2728336858966131,-1.4562766343364115
mem,resp,886,1,mem2.1.3.bmp,mem3.2.3.bmp,mem1.3.3.bmp,ACC017,"[0, -3, 3]","[3, 0, 3]","[-3, 3, 3]",non-match,0.7090055512641944,2,-0.7610444976161717,-1.6985597529314775,-1.9439615215170907,1st,1st,1st,-1.233342664497673,-1.182175354981278,-1.4562766343364115
mem,resp,578,0,mem3.1.3.bmp,mem1.1.1.bmp,mem1.2.1.bmp,ACC017,"[3, -3, 3]","[-3, -3, -3]","[-3, 0, -3]",non-match,0.8452994616207485,2,0.9236042390769248,0.02978428756828179,-1.8205536031978986,4th,3rd,1st,1.312262514754749,0.270803135382667,-1.4562766343364115
mem,resp,499,1,mem3.1.1.bmp,mem2.1.1.bmp,mem2.1.1.bmp,ACC017,"[3, -3, -3]","[0, -3, -3]","[0, -3, -3]",match,1.7113248654051871,,1.1745670904852923,-0.6934115134082407,-1.892373647582493,4th,1st,1st,1.312262514754749,-1.182175354981278,-1.4562766343364115
mem,resp,528,1,mem3.3.3.bmp,mem2.2.1.bmp,mem2.2.1.bmp,ACC017,"[3, 3, 3]","[0, 0, -3]","[0, 0, -3]",match,1.2928932188134525,,0.25936586413401913,0.472328123524045,-2.052771125336681,3rd,3rd,1st,0.29983538053730774,0.270803135382667,-1.4562766343364115
mem,resp,407,1,mem3.1.2.bmp,mem1.3.3.bmp,mem2.1.2.bmp,ACC017,"[3, -3, 0]","[-3, 3, 3]","[0, -3, 0]",non-match,1.0042180842186395,3,-0.3355645721367994,-0.018705718646819674,-2.1395334764903193,2nd,2nd,1st,-0.36273779359311514,-0.2728336858966131,-1.4562766343364115
mem,resp,318,0,mem1.3.2.bmp,mem3.2.2.bmp,mem1.1.1.bmp,ACC017,"[-3, 3, 0]","[3, 0, 0]","[-3, -3, -3]",non-match,0.6473959944455496,1,0.9514392386649689,-0.46249124475971376,-1.9998171503493278,4th,2nd,1st,1.312262514754749,-0.2728336858966131,-1.4562766343364115
mem,resp,447,1,mem3.3.1.bmp,mem2.3.1.bmp,mem3.3.1.bmp,ACC017,"[3, 3, -3]","[0, 3, -3]","[3, 3, -3]",match,1.7113248654051871,,2.5753480843800336,1.8600635213436085,-1.959101847978313,4th,4th,1st,1.312262514754749,1.1995588321832926,-1.4562766343364115
mem,resp,529,1,mem2.3.3.bmp,mem3.1.3.bmp,mem3.1.3.bmp,ACC017,"[0, 3, 3]","[3, -3, 3]","[3, -3, 3]",match,1.3545027756320973,,0.5405473918251484,0.27947707173033237,-1.8809393095793379,3rd,3rd,1st,0.29983538053730774,0.270803135382667,-1.4562766343364115
mem,resp,807,1,mem3.2.3.bmp,mem3.1.1.bmp,mem3.2.3.bmp,ACC017,"[3, 0, 3]","[3, -3, -3]","[3, 0, 3]",match,1.3545027756320973,,1.3280990146042544,-1.391354296885759,-1.8544063088204465,4th,1st,1st,1.312262514754749,-1.182175354981278,-1.4562766343364115
mem,resp,618,1,mem2.1.1.bmp,mem3.2.1.bmp,mem1.2.1.bmp,ACC017,"[0, -3, -3]","[3, 0, -3]","[-3, 0, -3]",non-match,1.0144014403465114,3,0.7964992938713846,0.2131499409723283,-1.9151436582988874,4th,3rd,1st,1.312262514754749,0.270803135382667,-1.4562766343364115
mem,resp,914,0,mem1.3.3.bmp,mem1.1.2.bmp,mem1.3.2.bmp,ACC017,"[-3, 3, 3]","[-3, -3, 0]","[-3, 3, 0]",non-match,1.1339745962155614,4,1.6524282623667828,-0.31094581999438853,-1.9952224446185207,4th,2nd,1st,1.312262514754749,-0.2728336858966131,-1.4562766343364115
mem,resp,805,1,mem1.2.3.bmp,mem3.3.1.bmp,mem1.1.3.bmp,ACC017,"[-3, 0, 3]","[3, 3, -3]","[-3, -3, 3]",non-match,0.7113248654051871,2,0.681577251810733,0.29268523118626394,-1.917742460292388,3rd,3rd,1st,0.29983538053730774,0.270803135382667,-1.4562766343364115
mem,resp,1038,1,mem2.2.1.bmp,mem1.3.1.bmp,mem2.2.3.bmp,ACC017,"[0, 0, -3]","[-3, 3, -3]","[0, 0, 3]",non-match,0.7155429496238267,2,-0.8922504295028891,-0.407967647398291,-1.7517403122950614,1st,2nd,1st,-1.233342664497673,-0.2728336858966131,-1.4562766343364115
mem,resp,1123,1,mem1.1.1.bmp,mem3.3.2.bmp,mem3.2.3.bmp,ACC017,"[-3, -3, -3]","[3, 3, 0]","[3, 0, 3]",non-match,0.7257263057516985,2,-0.6226899162383714,-1.7103785840896863,-1.7693031444521004,2nd,1st,1st,-0.36273779359311514,-1.182175354981278,-1.4562766343364115
mem,resp,1067,1,mem2.2.2.bmp,mem2.1.3.bmp,mem2.1.3.bmp,ACC017,"[0, 0, 0]","[0, -3, 3]","[0, -3, 3]",match,1.591751709536137,,-0.8360302556098507,-0.704128856592973,-1.8369228918415557,1st,1st,1st,-1.233342664497673,-1.182175354981278,-1.4562766343364115
mem,resp,1244,0,mem1.2.2.bmp,mem2.3.2.bmp,mem1.2.2.bmp,ACC017,"[-3, 0, 0]","[0, 3, 0]","[-3, 0, 0]",match,1.591751709536137,,-0.8683785837623144,0.8251400723693554,-1.881901735877231,1st,4th,1st,-1.233342664497673,1.1995588321832926,-1.4562766343364115
mem,resp,808,1,mem3.3.3.bmp,mem1.1.3.bmp,mem3.3.3.bmp,ACC017,"[3, 3, 3]","[-3, -3, 3]","[3, 3, 3]",match,1.1835034190722742,,-0.4298569040172049,-0.5935524917214654,-1.9383908679389659,2nd,1st,1st,-0.36273779359311514,-1.182175354981278,-1.4562766343364115
mem,resp,608,1,mem3.3.1.bmp,mem3.2.3.bmp,mem3.2.3.bmp,ACC017,"[3, 3, -3]","[3, 0, 3]","[3, 0, 3]",match,1.3545027756320973,,0.27352965309064814,0.3009017342988162,-1.820347394961975,3rd,3rd,1st,0.29983538053730774,0.270803135382667,-1.4562766343364115
mem,resp,920,0,mem1.1.2.bmp,mem2.2.1.bmp,mem3.1.3.bmp,ACC017,"[-3, -3, 0]","[0, 0, -3]","[3, -3, 3]",non-match,0.6473959944455496,1,0.14643466886197892,0.6451374041944055,-2.006544167276738,3rd,4th,1st,0.29983538053730774,1.1995588321832926,-1.4562766343364115
mem,resp,540,1,mem1.3.2.bmp,mem2.2.3.bmp,mem2.2.3.bmp,ACC017,"[-3, 3, 0]","[0, 0, 3]","[0, 0, 3]",match,1.5,,0.5074157971131906,-0.7738164993873485,-1.9774844768553705,3rd,1st,1st,0.29983538053730774,-1.182175354981278,-1.4562766343364115
mem,resp,409,1,mem1.1.3.bmp,mem2.1.2.bmp,mem1.1.3.bmp,ACC017,"[-3, -3, 3]","[0, -3, 0]","[-3, -3, 3]",match,1.591751709536137,,-0.7176790577680018,0.9761418860978227,-2.212820482503461,2nd,4th,1st,-0.36273779359311514,1.1995588321832926,-1.4562766343364115
mem,resp,388,0,mem3.2.3.bmp,mem1.3.3.bmp,mem2.2.2.bmp,ACC017,"[3, 0, 3]","[-3, 3, 3]","[0, 0, 0]",non-match,1.091751709536137,4,-1.1734862955362377,0.4173921253703046,-2.2472230292891098,1st,3rd,1st,-1.233342664497673,0.270803135382667,-1.4562766343364115
mem,resp,617,1,mem1.2.1.bmp,mem1.2.3.bmp,mem1.2.3.bmp,ACC017,"[-3, 0, -3]","[-3, 0, 3]","[-3, 0, 3]",match,1.4226497308103743,,-0.7743128958000949,0.1040252419582382,-2.005836551075915,1st,3rd,1st,-1.233342664497673,0.270803135382667,-1.4562766343364115
mem,resp,579,1,mem1.3.1.bmp,mem1.3.2.bmp,mem1.3.2.bmp,ACC017,"[-3, 3, -3]","[-3, 3, 0]","[-3, 3, 0]",match,1.7113248654051871,,0.3114064638007153,-0.2745347232639274,-2.1482945359591312,3rd,2nd,1st,0.29983538053730774,-0.2728336858966131,-1.4562766343364115
mem,resp,573,1,mem3.1.2.bmp,mem3.3.3.bmp,mem1.1.2.bmp,ACC017,"[3, -3, 0]","[3, 3, 3]","[-3, -3, 0]",non-match,0.5566243270259357,1,1.6461771289582443,-0.2583871169278619,-2.145409881204188,4th,2nd,1st,1.312262514754749,-0.2728336858966131,-1.4562766343364115
mem,resp,488,1,mem3.2.1.bmp,mem3.2.2.bmp,mem3.2.2.bmp,ACC017,"[3, 0, -3]","[3, 0, 0]","[3, 0, 0]",match,1.7113248654051871,,0.9139248057750237,-0.6997797717529984,-2.288339803937815,4th,1st,1st,1.312262514754749,-1.182175354981278,-1.4562766343364115
mem,resp,657,1,mem2.1.1.bmp,mem2.1.3.bmp,mem2.3.1.bmp,ACC017,"[0, -3, -3]","[0, -3, 3]","[0, 3, -3]",non-match,0.6061531498826483,1,1.174108317461353,2.1741926067204593,-2.1679124447371656,4th,4th,1st,1.312262514754749,1.1995588321832926,-1.4562766343364115
mem,resp,741,1,mem3.1.1.bmp,mem2.3.2.bmp,mem3.1.1.bmp,ACC017,"[3, -3, -3]","[0, 3, 0]","[3, -3, -3]",match,1.2928932188134525,,1.086576653686888,2.3426551610922526,-1.9645860872032235,4th,4th,1st,1.312262514754749,1.1995588321832926,-1.4562766343364115
mem,resp,808,1,mem3.1.3.bmp,mem3.1.2.bmp,mem3.3.1.bmp,ACC017,"[3, -3, 3]","[3, -3, 0]","[3, 3, -3]",non-match,0.5380061947043713,1,1.4486002461022003,0.05341588974358379,-2.1597007244254103,4th,3rd,1st,1.312262514754749,0.270803135382667,-1.4562766343364115
