mode,type,rt,acc,item_1,item_2,item_cue,subj_idx,item_1_number,item_2_number,item_cue_number,trial_type,summed_similarity,similarity_bin,ams,pams,slps,ams_quantile,pams_quantile,slps_quantile,ams_bin,pam_bin,slp_bin
mem,resp,1565,1,mem1.2.2.bmp,mem1.1.3.bmp,mem1.1.3.bmp,ACC027,"[-3, 0, 0]","[-3, -3, 3]","[-3, -3, 3]",match,1.591751709536137,,-1.3592060517555837,-1.3394634499025753,0.0021893971200083007,1st,1st,2nd,-1.2029122982919065,-1.204937648703112,-0.24622678257412164
mem,resp,954,1,mem1.2.3.bmp,mem3.1.2.bmp,mem1.2.3.bmp,ACC027,"[-3, 0, 3]","[3, -3, 0]","[-3, 0, 3]",match,1.2928932188134525,,-0.7594821437410585,-2.4462263527767267,-0.24568000491498174,1st,1st,2nd,-1.2029122982919065,-1.204937648703112,-0.24622678257412164
mem,resp,1160,1,mem3.2.2.bmp,mem1.2.1.bmp,mem2.3.3.bmp,ACC027,"[3, 0, 0]","[-3, 0, -3]","[0, 3, 3]",non-match,0.7928932188134524,2,-1.106204191514281,-0.47989545055978045,-0.3862109566646189,1st,2nd,2nd,-1.2029122982919065,-0.29937979986083546,-0.24622678257412164
mem,resp,1175,0,mem3.2.1.bmp,mem1.1.2.bmp,mem2.1.3.bmp,ACC027,"[3, 0, -3]","[-3, -3, 0]","[0, -3, 3]",non-match,0.8846449283495895,2,0.07449525486658817,1.6644001235807955,0.24831303125983528,3rd,4th,3rd,0.22796591130483054,1.2704271452119333,0.38519590988889485
mem,resp,1221,1,mem1.3.1.bmp,mem1.3.2.bmp,mem3.2.3.bmp,ACC027,"[-3, 3, -3]","[-3, 3, 0]","[3, 0, 3]",non-match,0.42686781502901383,1,-0.5338055602899179,-0.7113258371653316,-0.014836331397390663,2nd,1st,2nd,-0.3603747578095439,-1.204937648703112,-0.24622678257412164
mem,resp,1275,1,mem3.3.2.bmp,mem3.3.1.bmp,mem3.3.2.bmp,ACC027,"[3, 3, 0]","[3, 3, -3]","[3, 3, 0]",match,1.7113248654051871,,-0.6761716054503205,-0.7694439806216301,-0.7287411535555204,2nd,1st,1st,-0.3603747578095439,-1.204937648703112,-1.3404259768481772
mem,resp,1039,1,mem3.1.3.bmp,mem3.3.3.bmp,mem2.2.3.bmp,ACC027,"[3, -3, 3]","[3, 3, 3]","[0, 0, 3]",non-match,1.1835034190722742,4,-1.2947691170787714,-0.5538842044557902,-0.016655597622338262,1st,2nd,2nd,-1.2029122982919065,-0.29937979986083546,-0.24622678257412164
mem,resp,1300,1,mem2.2.2.bmp,mem1.2.2.bmp,mem2.2.2.bmp,ACC027,"[0, 0, 0]","[-3, 0, 0]","[0, 0, 0]",match,1.7113248654051871,,-0.04701112267268236,-0.49418203779110625,-0.578192363925587,3rd,2nd,2nd,0.22796591130483054,-0.29937979986083546,-0.24622678257412164
mem,resp,930,0,mem2.1.3.bmp,mem1.3.3.bmp,mem2.1.3.bmp,ACC027,"[0, -3, 3]","[-3, 3, 3]","[0, -3, 3]",match,1.3545027756320973,,-1.392847995762444,-0.11898112332345243,-0.16219573346784497,1st,2nd,2nd,-1.2029122982919065,-0.29937979986083546,-0.24622678257412164
mem,resp,888,1,mem2.3.1.bmp,mem2.3.2.bmp,mem2.3.1.bmp,ACC027,"[0, 3, -3]","[0, 3, 0]","[0, 3, -3]",match,1.7113248654051871,,-0.7173790676720374,0.3511377305142652,0.2822202147773162,1st,3rd,3rd,-1.2029122982919065,0.23303979041033993,0.38519590988889485
mem,resp,1017,1,mem1.3.2.bmp,mem2.3.3.bmp,mem1.3.2.bmp,ACC027,"[-3, 3, 0]","[0, 3, 3]","[-3, 3, 0]",match,1.591751709536137,,0.036789374797753335,-0.4153782049921915,-0.5911392421233793,3rd,2nd,2nd,0.22796591130483054,-0.29937979986083546,-0.24622678257412164
mem,resp,927,1,mem3.3.1.bmp,mem2.2.3.bmp,mem2.2.3.bmp,ACC027,"[3, 3, -3]","[0, 0, 3]","[0, 0, 3]",match,1.2928932188134525,,-0.7605029844951402,1.2893058305722123,-0.5023003582384876,1st,4th,2nd,-1.2029122982919065,1.2704271452119333,-0.24622678257412164
mem,resp,907,1,mem1.2.1.bmp,mem2.2.2.bmp,mem1.1.1.bmp,ACC027,"[-3, 0, -3]","[0, 0, 0]","[-3, -3, -3]",non-match,1.2113248654051871,4,0.3935255867133872,-0.7503752895513255,-0.01882538807601699,3rd,1st,2nd,0.22796591130483054,-1.204937648703112,-0.24622678257412164
mem,resp,1153,1,mem1.1.3.bmp,mem3.3.2.bmp,mem3.3.2.bmp,ACC027,"[-3, -3, 3]","[3, 3, 0]","[3, 3, 0]",match,1.1339745962155614,,-0.20742712134022434,0.8749321670136949,0.11390565774037668,2nd,4th,2nd,-0.3603747578095439,1.2704271452119333,-0.24622678257412164
mem,resp,1163,0,mem2.1.1.bmp,mem3.2.1.bmp,mem3.2.1.bmp,ACC027,"[0, -3, -3]","[3, 0, -3]","[3, 0, -3]",match,1.591751709536137,,-2.175086457141047,2.841730292880124,-0.4025125529372205,1st,4th,2nd,-1.2029122982919065,1.2704271452119333,-0.24622678257412164
mem,resp,1215,0,mem3.1.2.bmp,mem1.2.3.bmp,mem1.3.3.bmp,ACC027,"[3, -3, 0]","[-3, 0, 3]","[-3, 3, 3]",non-match,0.8452994616207485,2,0.6777418945159462,-2.064228574489175,-0.8297767796451876,4th,1st,1st,1.333623595482457,-1.204937648703112,-1.3404259768481772
mem,resp,841,1,mem3.3.3.bmp,mem2.3.1.bmp,mem3.3.3.bmp,ACC027,"[3, 3, 3]","[0, 3, -3]","[3, 3, 3]",match,1.3545027756320973,,0.2974914206726805,1.0492205846834597,-1.0630486518034084,3rd,4th,1st,0.22796591130483054,1.2704271452119333,-1.3404259768481772
mem,resp,838,1,mem3.2.3.bmp,mem3.1.3.bmp,mem3.2.3.bmp,ACC027,"[3, 0, 3]","[3, -3, 3]","[3, 0, 3]",match,1.7113248654051871,,-0.09105873833335731,-1.5637328352205642,-0.9703475256122869,2nd,1st,1st,-0.3603747578095439,-1.204937648703112,-1.3404259768481772
mem,resp,930,1,mem2.2.1.bmp,mem3.1.1.bmp,mem1.2.1.bmp,ACC027,"[0, 0, -3]","[3, -3, -3]","[-3, 0, -3]",non-match,1.0658276410372842,3,-2.7048896774190956,1.7129490536568321,-1.0347884129690685,1st,4th,1st,-1.2029122982919065,1.2704271452119333,-1.3404259768481772
mem,resp,426,1,mem1.1.1.bmp,mem2.2.2.bmp,mem1.1.1.bmp,ACC027,"[-3, -3, -3]","[0, 0, 0]","[-3, -3, -3]",match,1.5,,-0.07731451306602322,0.7633969228483959,-0.9801640318696575,3rd,4th,1st,0.22796591130483054,1.2704271452119333,-1.3404259768481772
mem,resp,583,1,mem1.1.2.bmp,mem1.2.3.bmp,mem1.1.2.bmp,ACC027,"[-3, -3, 0]","[-3, 0, 3]","[-3, -3, 0]",match,1.591751709536137,,1.3904955420695102,-0.4433481923272395,-1.0416947266161767,4th,2nd,1st,1.333623595482457,-0.29937979986083546,-1.3404259768481772
mem,resp,679,1,mem2.3.2.bmp,mem2.2.3.bmp,mem2.3.2.bmp,ACC027,"[0, 3, 0]","[0, 0, 3]","[0, 3, 0]",match,1.591751709536137,,-1.0507542063352164,0.6042122733110455,-0.5806607189760901,1st,4th,2nd,-1.2029122982919065,1.2704271452119333,-0.24622678257412164
mem,resp,816,0,mem1.3.3.bmp,mem2.1.2.bmp,mem1.2.2.bmp,ACC027,"[-3, 3, 3]","[0, -3, 0]","[-3, 0, 0]",non-match,1.1835034190722742,4,-0.9648363591810718,-0.29642763857665905,-0.44123894248233153,1st,2nd,2nd,-1.2029122982919065,-0.29937979986083546,-0.24622678257412164
mem,resp,562,1,mem3.1.1.bmp,mem3.2.2.bmp,mem3.1.1.bmp,ACC027,"[3, -3, -3]","[3, 0, 0]","[3, -3, -3]",match,1.591751709536137,,-0.2133238426737046,0.8595896894526699,-0.15920706957365746,2nd,4th,2nd,-0.3603747578095439,1.2704271452119333,-0.24622678257412164
mem,resp,705,1,mem2.3.3.bmp,mem2.3.1.bmp,mem1.1.1.bmp,ACC027,"[0, 3, 3]","[0, 3, -3]","[-3, -3, -3]",non-match,0.4884773718476586,1,-0.7908384149771226,0.40904394504927855,-0.23014774572817331,1st,3rd,2nd,-1.2029122982919065,0.23303979041033993,-0.24622678257412164
mem,resp,639,1,mem2.2.3.bmp,mem2.1.3.bmp,mem2.1.1.bmp,ACC027,"[0, 0, 3]","[0, -3, 3]","[0, -3, -3]",non-match,0.7771525064424715,2,0.4117814843154545,0.22589036602827633,0.0661658237823133,3rd,3rd,2nd,0.22796591130483054,0.23303979041033993,-0.24622678257412164
mem,resp,503,1,mem1.3.2.bmp,mem3.3.3.bmp,mem3.2.3.bmp,ACC027,"[-3, 3, 0]","[3, 3, 3]","[3, 0, 3]",non-match,1.0042180842186395,3,0.09605852838140681,-0.6740311650075603,0.35503170231200176,3rd,1st,3rd,0.22796591130483054,-1.204937648703112,0.38519590988889485
mem,resp,718,1,mem2.2.2.bmp,mem3.2.1.bmp,mem1.2.1.bmp,ACC027,"[0, 0, 0]","[3, 0, -3]","[-3, 0, -3]",non-match,1.0144014403465114,3,-0.6210072317629033,-0.3740391130868184,0.2834166174145991,2nd,2nd,3rd,-0.3603747578095439,-0.29937979986083546,0.38519590988889485
mem,resp,735,1,mem3.1.2.bmp,mem3.1.3.bmp,mem3.1.3.bmp,ACC027,"[3, -3, 0]","[3, -3, 3]","[3, -3, 3]",match,1.7113248654051871,,-0.7128242863367145,0.04059040443069975,0.1647065827038443,1st,3rd,3rd,-1.2029122982919065,0.23303979041033993,0.38519590988889485
mem,resp,1475,1,mem2.1.2.bmp,mem3.3.2.bmp,mem2.1.2.bmp,ACC027,"[0, -3, 0]","[3, 3, 0]","[0, -3, 0]",match,1.3545027756320973,,-0.3146623968848089,-0.3639548129394996,0.8075974530111918,2nd,2nd,4th,-0.3603747578095439,-0.29937979986083546,1.2032385050117962
mem,resp,701,0,mem3.1.1.bmp,mem1.3.3.bmp,mem1.3.2.bmp,ACC027,"[3, -3, -3]","[-3, 3, 3]","[-3, 3, 0]",non-match,0.8452994616207485,2,-0.1400727920168246,1.4340479652514746,0.49402277665432887,2nd,4th,3rd,-0.3603747578095439,1.2704271452119333,0.38519590988889485
mem,resp,604,0,mem3.2.1.bmp,mem2.1.1.bmp,mem3.2.2.bmp,ACC027,"[3, 0, -3]","[0, -3, -3]","[3, 0, 0]",non-match,1.2113248654051871,4,-0.19492924747575535,-0.8455951979128641,0.5644735896161468,2nd,1st,3rd,-0.3603747578095439,-1.204937648703112,0.38519590988889485
mem,resp,648,0,mem1.3.1.bmp,mem1.2.2.bmp,mem1.2.3.bmp,ACC027,"[-3, 3, -3]","[-3, 0, 0]","[-3, 0, 3]",non-match,1.0658276410372842,3,0.32525957448040976,0.424850326071305,0.8734405407604894,3rd,3rd,4th,0.22796591130483054,0.23303979041033993,1.2032385050117962
mem,resp,786,1,mem3.1.3.bmp,mem1.2.1.bmp,mem2.3.3.bmp,ACC027,"[3, -3, 3]","[-3, 0, -3]","[0, 3, 3]",non-match,0.6473959944455496,1,-0.4618412391765078,-0.1204629989192019,0.4140740048795528,2nd,2nd,3rd,-0.3603747578095439,-0.29937979986083546,0.38519590988889485
mem,resp,951,0,mem3.3.3.bmp,mem1.1.2.bmp,mem3.3.2.bmp,ACC027,"[3, 3, 3]","[-3, -3, 0]","[3, 3, 0]",non-match,0.8948282844774612,2,0.7469656300479045,-0.16833522061504855,0.7526599912844453,4th,2nd,4th,1.333623595482457,-0.29937979986083546,1.2032385050117962
mem,resp,797,0,mem2.3.2.bmp,mem1.1.3.bmp,mem3.1.1.bmp,ACC027,"[0, 3, 0]","[-3, -3, 3]","[3, -3, -3]",non-match,0.4763966378857265,1,-1.4874024584132532,-1.8516859932083365,0.880066746485898,1st,1st,4th,-1.2029122982919065,-1.204937648703112,1.2032385050117962
mem,resp,956,0,mem1.2.3.bmp,mem2.2.1.bmp,mem1.3.3.bmp,ACC027,"[-3, 0, 3]","[0, 0, -3]","[-3, 3, 3]",non-match,1.0042180842186395,3,0.13775674701078214,-0.9881753071958538,1.0198666611381377,3rd,1st,4th,0.22796591130483054,-1.204937648703112,1.2032385050117962
mem,resp,500,0,mem2.3.1.bmp,mem3.1.1.bmp,mem2.2.1.bmp,ACC027,"[0, 3, -3]","[3, -3, -3]","[0, 0, -3]",non-match,1.3030765749413242,4,0.5968135496957417,0.5828857915022693,0.8333428985334211,3rd,4th,4th,0.22796591130483054,1.2704271452119333,1.2032385050117962
mem,resp,482,1,mem1.2.1.bmp,mem3.1.2.bmp,mem3.1.2.bmp,ACC027,"[-3, 0, -3]","[3, -3, 0]","[3, -3, 0]",match,1.2928932188134525,,0.5618748278509527,0.701424263475644,0.5355650022815188,3rd,4th,3rd,0.22796591130483054,1.2704271452119333,0.38519590988889485
mem,resp,959,1,mem1.2.3.bmp,mem3.3.3.bmp,mem3.2.1.bmp,ACC027,"[-3, 0, 3]","[3, 3, 3]","[3, 0, -3]",non-match,0.5380061947043713,1,-0.1984897644042408,-0.08760125157908306,0.6243599820428032,2nd,2nd,4th,-0.3603747578095439,-0.29937979986083546,1.2032385050117962
mem,resp,603,1,mem1.1.2.bmp,mem1.2.2.bmp,mem1.1.2.bmp,ACC027,"[-3, -3, 0]","[-3, 0, 0]","[-3, -3, 0]",match,1.7113248654051871,,0.7835829736105504,1.8914410098361798,-0.03248679723329066,4th,4th,2nd,1.333623595482457,1.2704271452119333,-0.24622678257412164
mem,resp,606,0,mem3.2.2.bmp,mem1.3.2.bmp,mem1.3.2.bmp,ACC027,"[3, 0, 0]","[-3, 3, 0]","[-3, 3, 0]",match,1.3545027756320973,,-0.9538534759901738,-0.635595693294762,-0.08629118272605402,1st,1st,2nd,-1.2029122982919065,-1.204937648703112,-0.24622678257412164
mem,resp,752,1,mem2.1.2.bmp,mem1.1.3.bmp,mem3.1.1.bmp,ACC027,"[0, -3, 0]","[-3, -3, 3]","[3, -3, -3]",non-match,0.7752551286084112,2,0.5243112799771739,-0.014797691560406553,-0.160299651205078,3rd,3rd,2nd,0.22796591130483054,0.23303979041033993,-0.24622678257412164
mem,resp,657,1,mem2.2.3.bmp,mem2.3.3.bmp,mem3.1.3.bmp,ACC027,"[0, 0, 3]","[0, 3, 3]","[3, -3, 3]",non-match,0.9462544851682343,3,1.2406026783899131,0.8805107719461205,0.24011740456945674,4th,4th,3rd,1.333623595482457,1.2704271452119333,0.38519590988889485
mem,resp,1135,1,mem3.2.1.bmp,mem3.3.1.bmp,mem3.3.3.bmp,ACC027,"[3, 0, -3]","[3, 3, -3]","[3, 3, 3]",non-match,0.7771525064424715,2,1.1517055733380568,-0.269526431254743,-0.46755416976411907,4th,2nd,2nd,1.333623595482457,-0.29937979986083546,-0.24622678257412164
mem,resp,1063,1,mem2.1.1.bmp,mem1.2.1.bmp,mem2.2.2.bmp,ACC027,"[0, -3, -3]","[-3, 0, -3]","[0, 0, 0]",non-match,1.1835034190722742,4,-1.2448003511242915,-0.9893185783163931,-0.9000385758913851,1st,1st,1st,-1.2029122982919065,-1.204937648703112,-1.3404259768481772
mem,resp,466,1,mem2.3.2.bmp,mem1.3.3.bmp,mem1.3.3.bmp,ACC027,"[0, 3, 0]","[-3, 3, 3]","[-3, 3, 3]",match,1.591751709536137,,0.2864884323993461,-0.13817630223384536,-0.5659212421081918,3rd,2nd,2nd,0.22796591130483054,-0.29937979986083546,-0.24622678257412164
mem,resp,814,1,mem1.3.2.bmp,mem3.1.3.bmp,mem3.1.3.bmp,ACC027,"[-3, 3, 0]","[3, -3, 3]","[3, -3, 3]",match,1.1339745962155614,,0.7717661805977268,-0.544796320637674,-0.40477877128672346,4th,2nd,2nd,1.333623595482457,-0.29937979986083546,-0.24622678257412164
mem,resp,880,0,mem3.1.2.bmp,mem2.1.3.bmp,mem3.2.2.bmp,ACC027,"[3, -3, 0]","[0, -3, 3]","[3, 0, 0]",non-match,1.2113248654051871,4,-0.8020961844331151,1.2445608588193608,-0.584313093189286,1st,4th,2nd,-1.2029122982919065,1.2704271452119333,-0.24622678257412164
mem,resp,897,1,mem1.1.1.bmp,mem2.1.2.bmp,mem1.1.1.bmp,ACC027,"[-3, -3, -3]","[0, -3, 0]","[-3, -3, -3]",match,1.591751709536137,,-1.2120707513061098,-0.3237527663124256,-1.3063671833884811,1st,2nd,1st,-1.2029122982919065,-0.29937979986083546,-1.3404259768481772
mem,resp,932,1,mem3.3.1.bmp,mem2.3.1.bmp,mem2.3.1.bmp,ACC027,"[3, 3, -3]","[0, 3, -3]","[0, 3, -3]",match,1.7113248654051871,,0.20499683759114226,-0.2055006205108253,-1.1845131523928116,3rd,2nd,1st,0.22796591130483054,-0.29937979986083546,-1.3404259768481772
mem,resp,757,1,mem3.1.3.bmp,mem1.2.3.bmp,mem3.1.3.bmp,ACC027,"[3, -3, 3]","[-3, 0, 3]","[3, -3, 3]",match,1.3545027756320973,,-0.11587282866472315,-1.3304686408616697,-1.441134388455008,2nd,1st,1st,-0.3603747578095439,-1.204937648703112,-1.3404259768481772
mem,resp,573,1,mem3.3.3.bmp,mem3.3.2.bmp,mem2.3.3.bmp,ACC027,"[3, 3, 3]","[3, 3, 0]","[0, 3, 3]",non-match,1.3030765749413242,4,0.6543291031591615,-0.07915681950647575,-0.7387628740265867,3rd,2nd,1st,0.22796591130483054,-0.29937979986083546,-1.3404259768481772
mem,resp,696,1,mem2.1.3.bmp,mem2.2.1.bmp,mem1.3.3.bmp,ACC027,"[0, -3, 3]","[0, 0, -3]","[-3, 3, 3]",non-match,0.6473959944455496,1,-0.09795498764033213,0.523627349061174,-0.760261259512767,2nd,3rd,1st,-0.3603747578095439,0.23303979041033993,-1.3404259768481772
mem,resp,751,1,mem3.2.3.bmp,mem1.1.2.bmp,mem3.1.2.bmp,ACC027,"[3, 0, 3]","[-3, -3, 0]","[3, -3, 0]",non-match,1.0144014403465114,3,-0.45793920740525684,0.5439565698284834,-1.4069237208518894,2nd,3rd,1st,-0.3603747578095439,0.23303979041033993,-1.3404259768481772
mem,resp,1228,1,mem3.1.1.bmp,mem2.1.1.bmp,mem2.1.1.bmp,ACC027,"[3, -3, -3]","[0, -3, -3]","[0, -3, -3]",match,1.7113248654051871,,-0.1343368345223846,0.3551041238772077,-1.4194047395630014,2nd,3rd,1st,-0.3603747578095439,0.23303979041033993,-1.3404259768481772
mem,resp,915,1,mem1.3.1.bmp,mem3.3.2.bmp,mem3.1.3.bmp,ACC027,"[-3, 3, -3]","[3, 3, 0]","[3, -3, 3]",non-match,0.3545027756320972,1,-0.19784619431336492,-0.3387496627006544,-0.9355602720336829,2nd,2nd,1st,-0.3603747578095439,-0.29937979986083546,-1.3404259768481772
mem,resp,669,1,mem2.2.1.bmp,mem2.3.1.bmp,mem3.2.1.bmp,ACC027,"[0, 0, -3]","[0, 3, -3]","[3, 0, -3]",non-match,1.3030765749413242,4,-0.29077438992553123,0.5625339825033138,-1.1821441966890482,2nd,4th,1st,-0.3603747578095439,1.2704271452119333,-1.3404259768481772
mem,resp,604,1,mem2.2.2.bmp,mem2.3.3.bmp,mem3.3.1.bmp,ACC027,"[0, 0, 0]","[0, 3, 3]","[3, 3, -3]",non-match,0.8545027756320972,2,0.2913501401776493,-1.0194501217631229,-1.0163654923747412,3rd,1st,1st,0.22796591130483054,-1.204937648703112,-1.3404259768481772
mem,resp,1031,1,mem1.2.2.bmp,mem3.2.2.bmp,mem2.3.2.bmp,ACC027,"[-3, 0, 0]","[3, 0, 0]","[0, 3, 0]",non-match,1.1835034190722742,4,-0.8017382454261937,0.8136856473313829,-1.9465547818836708,1st,4th,1st,-1.2029122982919065,1.2704271452119333,-1.3404259768481772
mem,resp,1059,1,mem1.3.3.bmp,mem2.1.3.bmp,mem1.1.2.bmp,ACC027,"[-3, 3, 3]","[0, -3, 3]","[-3, -3, 0]",non-match,0.9462544851682343,3,-1.070901906659299,-0.22450430002245983,-2.4357757581652537,1st,2nd,1st,-1.2029122982919065,-0.29937979986083546,-1.3404259768481772
mem,resp,613,1,mem3.3.2.bmp,mem3.1.2.bmp,mem1.1.1.bmp,ACC027,"[3, 3, 0]","[3, -3, 0]","[-3, -3, -3]",non-match,0.4884773718476586,1,1.3535963262979884,-1.2397935347642726,-1.7700803805316416,4th,1st,1st,1.333623595482457,-1.204937648703112,-1.3404259768481772
mem,resp,608,1,mem1.1.3.bmp,mem2.2.3.bmp,mem1.1.3.bmp,ACC027,"[-3, -3, 3]","[0, 0, 3]","[-3, -3, 3]",match,1.591751709536137,,0.07732778970958776,-0.4692885550919493,-2.0513469759308,3rd,2nd,1st,0.22796591130483054,-0.29937979986083546,-1.3404259768481772
mem,resp,484,1,mem2.3.3.bmp,mem1.3.2.bmp,mem3.2.2.bmp,ACC027,"[0, 3, 3]","[-3, 3, 0]","[3, 0, 0]",non-match,0.8545027756320972,2,1.3500670819055105,-0.10388104689648693,-2.333257226374896,4th,2nd,1st,1.333623595482457,-0.29937979986083546,-1.3404259768481772
mem,resp,961,1,mem3.2.1.bmp,mem1.2.3.bmp,mem3.2.1.bmp,ACC027,"[3, 0, -3]","[-3, 0, 3]","[3, 0, -3]",match,1.1835034190722742,,-0.8898557932583698,-0.5916600810331494,-2.175958768324174,1st,2nd,1st,-1.2029122982919065,-0.29937979986083546,-1.3404259768481772
mem,resp,1069,0,mem2.1.1.bmp,mem2.3.2.bmp,mem2.1.2.bmp,ACC027,"[0, -3, -3]","[0, 3, 0]","[0, -3, 0]",non-match,1.1339745962155614,4,-1.5185001824553555,-0.1289577382999618,-1.7429203928356587,1st,2nd,1st,-1.2029122982919065,-0.29937979986083546,-1.3404259768481772
mem,resp,1027,1,mem3.3.3.bmp,mem1.1.3.bmp,mem3.3.3.bmp,ACC027,"[3, 3, 3]","[-3, -3, 3]","[3, 3, 3]",match,1.1835034190722742,,-0.6700713039822893,0.4137157044380991,-1.1921775140868005,2nd,3rd,1st,-0.3603747578095439,0.23303979041033993,-1.3404259768481772
mem,resp,784,0,mem1.3.3.bmp,mem3.3.1.bmp,mem3.2.2.bmp,ACC027,"[-3, 3, 3]","[3, 3, -3]","[3, 0, 0]",non-match,0.8846449283495895,2,-0.7923354176609155,-1.3355494286999865,-1.015893109203495,1st,1st,1st,-1.2029122982919065,-1.204937648703112,-1.3404259768481772
mem,resp,810,1,mem3.1.1.bmp,mem2.2.2.bmp,mem1.2.1.bmp,ACC027,"[3, -3, -3]","[0, 0, 0]","[-3, 0, -3]",non-match,0.9462544851682343,3,-0.8115858466481277,0.7005990734508692,-1.347390096083639,1st,4th,1st,-1.2029122982919065,1.2704271452119333,-1.3404259768481772
mem,resp,864,1,mem1.3.1.bmp,mem1.2.2.bmp,mem1.2.2.bmp,ACC027,"[-3, 3, -3]","[-3, 0, 0]","[-3, 0, 0]",match,1.591751709536137,,-0.9409678008680064,-0.5085089834972559,-1.682733579856459,1st,2nd,1st,-1.2029122982919065,-0.29937979986083546,-1.3404259768481772
mem,resp,1546,0,mem2.3.2.bmp,mem3.3.3.bmp,mem2.3.2.bmp,ACC027,"[0, 3, 0]","[3, 3, 3]","[0, 3, 0]",match,1.591751709536137,,-0.002261698206811285,-1.9366185341586304,-1.7449365348115062,3rd,1st,1st,0.22796591130483054,-1.204937648703112,-1.3404259768481772
mem,resp,470,1,mem3.3.1.bmp,mem3.1.3.bmp,mem3.1.3.bmp,ACC027,"[3, 3, -3]","[3, -3, 3]","[3, -3, 3]",match,1.1835034190722742,,0.20575547003814756,-0.14057509734908574,-1.69693420437656,3rd,2nd,1st,0.22796591130483054,-0.29937979986083546,-1.3404259768481772
mem,resp,481,1,mem2.2.2.bmp,mem2.1.2.bmp,mem2.1.2.bmp,ACC027,"[0, 0, 0]","[0, -3, 0]","[0, -3, 0]",match,1.7113248654051871,,0.9084065880993246,-0.3946272538057898,-1.765596008159439,4th,2nd,1st,1.333623595482457,-0.29937979986083546,-1.3404259768481772
mem,resp,544,1,mem1.1.3.bmp,mem1.1.1.bmp,mem1.1.3.bmp,ACC027,"[-3, -3, 3]","[-3, -3, -3]","[-3, -3, 3]",match,1.4226497308103743,,0.1493724471094234,0.21441911091514254,-1.9590149153604348,3rd,3rd,1st,0.22796591130483054,0.23303979041033993,-1.3404259768481772
mem,resp,629,0,mem2.2.1.bmp,mem2.1.1.bmp,mem2.2.1.bmp,ACC027,"[0, 0, -3]","[0, -3, -3]","[0, 0, -3]",match,1.7113248654051871,,0.16699506670805125,-0.22925117623147634,-1.9146538885096624,3rd,2nd,1st,0.22796591130483054,-0.29937979986083546,-1.3404259768481772
mem,resp,400,1,mem1.2.2.bmp,mem1.1.2.bmp,mem3.3.2.bmp,ACC027,"[-3, 0, 0]","[-3, -3, 0]","[3, 3, 0]",non-match,0.5380061947043713,1,1.321729338964415,1.0130638963731693,-1.7977827153031332,4th,4th,1st,1.333623595482457,1.2704271452119333,-1.3404259768481772
mem,resp,1537,0,mem1.1.3.bmp,mem1.1.1.bmp,mem1.3.3.bmp,ACC027,"[-3, -3, 3]","[-3, -3, -3]","[-3, 3, 3]",non-match,0.6061531498826483,1,-0.6987169465243566,-0.32487376205771296,-2.3460480187960813,2nd,2nd,1st,-0.3603747578095439,-0.29937979986083546,-1.3404259768481772
mem,resp,870,1,mem2.3.3.bmp,mem1.3.1.bmp,mem3.1.3.bmp,ACC027,"[0, 3, 3]","[-3, 3, -3]","[3, -3, 3]",non-match,0.3545027756320972,1,-0.185897555283451,0.48186752787716997,-2.709774526050323,2nd,3rd,1st,-0.3603747578095439,0.23303979041033993,-1.3404259768481772
mem,resp,696,1,mem2.1.2.bmp,mem2.2.2.bmp,mem1.2.1.bmp,ACC027,"[0, -3, 0]","[0, 0, 0]","[-3, 0, -3]",non-match,1.091751709536137,4,-0.9223645411157186,-0.5636701021745261,-2.2050030497779445,1st,2nd,1st,-1.2029122982919065,-0.29937979986083546,-1.3404259768481772
mem,resp,751,1,mem2.3.2.bmp,mem2.2.1.bmp,mem1.2.3.bmp,ACC027,"[0, 3, 0]","[0, 0, -3]","[-3, 0, 3]",non-match,0.8545027756320972,2,-1.808333837326648,-1.5650247444138858,-2.305925512833285,1st,1st,1st,-1.2029122982919065,-1.204937648703112,-1.3404259768481772
mem,resp,1007,0,mem3.3.2.bmp,mem1.3.3.bmp,mem3.2.1.bmp,ACC027,"[3, 3, 0]","[-3, 3, 3]","[3, 0, -3]",non-match,0.7257263057516985,2,-0.030174437098619708,-0.7539383171655027,-2.027167621530288,3rd,1st,1st,0.22796591130483054,-1.204937648703112,-1.3404259768481772
mem,resp,1288,1,mem1.2.2.bmp,mem3.3.1.bmp,mem2.1.3.bmp,ACC027,"[-3, 0, 0]","[3, 3, -3]","[0, -3, 3]",non-match,0.6339745962155614,1,-0.21134295823518004,-1.4650600638025804,-1.9884085765621682,2nd,1st,1st,-0.3603747578095439,-1.204937648703112,-1.3404259768481772
mem,resp,1286,1,mem1.1.1.bmp,mem3.1.2.bmp,mem3.1.2.bmp,ACC027,"[-3, -3, -3]","[3, -3, 0]","[3, -3, 0]",match,1.3545027756320973,,-0.246929576842745,0.12378924385231588,-1.667735331032384,2nd,3rd,1st,-0.3603747578095439,0.23303979041033993,-1.3404259768481772
mem,resp,890,0,mem1.3.1.bmp,mem2.2.3.bmp,mem2.2.2.bmp,ACC027,"[-3, 3, -3]","[0, 0, 3]","[0, 0, 0]",non-match,1.2113248654051871,4,-1.335856943691246,-1.349313858609751,-2.211607904664132,1st,1st,1st,-1.2029122982919065,-1.204937648703112,-1.3404259768481772
mem,resp,524,0,mem3.2.3.bmp,mem1.2.3.bmp,mem1.2.3.bmp,ACC027,"[3, 0, 3]","[-3, 0, 3]","[-3, 0, 3]",match,1.4226497308103743,,-0.8090746641492957,-0.371146004869081,-1.5593025145402921,1st,2nd,1st,-1.2029122982919065,-0.29937979986083546,-1.3404259768481772
mem,resp,1000,1,mem2.1.3.bmp,mem3.2.2.bmp,mem2.1.3.bmp,ACC027,"[0, -3, 3]","[3, 0, 0]","[0, -3, 3]",match,1.5,,-0.04627000650863683,-0.9378473114140117,-1.6478037317140748,3rd,1st,1st,0.22796591130483054,-1.204937648703112,-1.3404259768481772
mem,resp,705,1,mem1.3.3.bmp,mem2.3.1.bmp,mem3.1.2.bmp,ACC027,"[-3, 3, 3]","[0, 3, -3]","[3, -3, 0]",non-match,0.42686781502901383,1,-0.09468804510493752,-0.031114403932300798,-1.6175836502043193,2nd,3rd,1st,-0.3603747578095439,0.23303979041033993,-1.3404259768481772
mem,resp,841,1,mem2.1.1.bmp,mem1.2.1.bmp,mem2.1.1.bmp,ACC027,"[0, -3, -3]","[-3, 0, -3]","[0, -3, -3]",match,1.591751709536137,,0.07948196552587694,0.2356834594440742,-1.5829387273649698,3rd,3rd,1st,0.22796591130483054,0.23303979041033993,-1.3404259768481772
mem,resp,1166,0,mem2.2.2.bmp,mem3.2.1.bmp,mem2.2.2.bmp,ACC027,"[0, 0, 0]","[3, 0, -3]","[0, 0, 0]",match,1.591751709536137,,-1.78445648126726,-0.6406681591529988,-1.7493914800576844,1st,1st,1st,-1.2029122982919065,-1.204937648703112,-1.3404259768481772
mem,resp,510,1,mem1.2.3.bmp,mem1.1.2.bmp,mem1.3.2.bmp,ACC027,"[-3, 0, 3]","[-3, -3, 0]","[-3, 3, 0]",non-match,1.0144014403465114,3,1.1663104850691588,0.004928467221857539,-1.3087277760476037,4th,3rd,1st,1.333623595482457,0.23303979041033993,-1.3404259768481772
mem,resp,632,1,mem2.2.1.bmp,mem1.2.2.bmp,mem1.2.2.bmp,ACC027,"[0, 0, -3]","[-3, 0, 0]","[-3, 0, 0]",match,1.591751709536137,,0.4330337043382044,-0.7448375749495938,-1.037521264480763,3rd,1st,1st,0.22796591130483054,-1.204937648703112,-1.3404259768481772
mem,resp,825,1,mem3.3.3.bmp,mem3.1.3.bmp,mem3.1.3.bmp,ACC027,"[3, 3, 3]","[3, -3, 3]","[3, -3, 3]",match,1.4226497308103743,,0.15088336814457978,0.035158967146004735,-0.5857554275674233,3rd,3rd,2nd,0.22796591130483054,0.23303979041033993,-0.24622678257412164
mem,resp,671,1,mem2.2.3.bmp,mem3.1.1.bmp,mem3.1.1.bmp,ACC027,"[0, 0, 3]","[3, -3, -3]","[3, -3, -3]",match,1.2928932188134525,,0.6953042412028687,-0.6918129838724864,-0.7230082465159703,4th,1st,1st,1.333623595482457,-1.204937648703112,-1.3404259768481772
mem,resp,604,1,mem3.2.1.bmp,mem3.3.2.bmp,mem1.2.3.bmp,ACC027,"[3, 0, -3]","[3, 3, 0]","[-3, 0, 3]",non-match,0.4763966378857265,1,0.006302359572588243,-1.9366124021733082,-0.5527118284824241,3rd,1st,2nd,0.22796591130483054,-1.204937648703112,-0.24622678257412164
mem,resp,879,1,mem1.2.1.bmp,mem2.1.2.bmp,mem2.3.2.bmp,ACC027,"[-3, 0, -3]","[0, -3, 0]","[0, 3, 0]",non-match,0.9226497308103743,2,0.2699319957329694,-2.0851489217700996,-0.5227411787331776,3rd,1st,2nd,0.22796591130483054,-1.204937648703112,-0.24622678257412164
mem,resp,935,1,mem1.3.2.bmp,mem2.1.1.bmp,mem2.1.1.bmp,ACC027,"[-3, 3, 0]","[0, -3, -3]","[0, -3, -3]",match,1.2928932188134525,,-0.8723886236209961,-1.333446572269226,0.04052126319211354,1st,1st,2nd,-1.2029122982919065,-1.204937648703112,-0.24622678257412164
mem,resp,861,1,mem3.1.2.bmp,mem3.2.3.bmp,mem3.1.2.bmp,ACC027,"[3, -3, 0]","[3, 0, 3]","[3, -3, 0]",match,1.591751709536137,,0.8085073747815529,-0.9151542806977186,0.41783288375262606,4th,1st,3rd,1.333623595482457,-1.204937648703112,0.38519590988889485
mem,resp,493,1,mem1.1.2.bmp,mem2.1.3.bmp,mem2.1.3.bmp,ACC027,"[-3, -3, 0]","[0, -3, 3]","[0, -3, 3]",match,1.591751709536137,,1.170813072263107,-0.09495750654213117,0.20164919706733958,4th,2nd,3rd,1.333623595482457,-0.29937979986083546,0.38519590988889485
mem,resp,696,0,mem3.2.2.bmp,mem3.3.3.bmp,mem3.2.2.bmp,ACC027,"[3, 0, 0]","[3, 3, 3]","[3, 0, 0]",match,1.591751709536137,,-0.717649861485672,-0.15665513385893018,0.07493335470817283,1st,2nd,2nd,-1.2029122982919065,-0.29937979986083546,-0.24622678257412164
mem,resp,741,0,mem3.1.3.bmp,mem1.2.1.bmp,mem3.2.1.bmp,ACC027,"[3, -3, 3]","[-3, 0, -3]","[3, 0, -3]",non-match,0.7771525064424715,2,0.3847760743410067,-0.2819427629628261,0.03213801315010185,3rd,2nd,2nd,0.22796591130483054,-0.29937979986083546,-0.24622678257412164
mem,resp,997,1,mem3.1.1.bmp,mem1.2.2.bmp,mem3.3.2.bmp,ACC027,"[3, -3, -3]","[-3, 0, 0]","[3, 3, 0]",non-match,0.7090055512641944,2,-0.39607544323677274,-1.6421645722672926,0.5507253063760607,2nd,1st,3rd,-0.3603747578095439,-1.204937648703112,0.38519590988889485
mem,resp,600,1,mem3.3.1.bmp,mem1.1.2.bmp,mem2.3.2.bmp,ACC027,"[3, 3, -3]","[-3, -3, 0]","[0, 3, 0]",non-match,0.9462544851682343,3,-2.0762211349291406,1.0447034389245462,0.33906652629360234,1st,4th,3rd,-1.2029122982919065,1.2704271452119333,0.38519590988889485
mem,resp,863,1,mem2.3.1.bmp,mem1.3.3.bmp,mem2.1.3.bmp,ACC027,"[0, 3, -3]","[-3, 3, 3]","[0, -3, 3]",non-match,0.5380061947043713,1,-1.0997727730691322,-1.0969098609221994,0.8021112692866134,1st,1st,4th,-1.2029122982919065,-1.204937648703112,1.2032385050117962
mem,resp,838,1,mem2.3.3.bmp,mem3.1.2.bmp,mem1.3.1.bmp,ACC027,"[0, 3, 3]","[3, -3, 0]","[-3, 3, -3]",non-match,0.4884773718476586,1,-0.6860572054399292,-0.7816671860777062,0.23323579591136526,2nd,1st,3rd,-0.3603747578095439,-1.204937648703112,0.38519590988889485
mem,resp,692,1,mem1.3.2.bmp,mem2.2.2.bmp,mem2.2.3.bmp,ACC027,"[-3, 3, 0]","[0, 0, 0]","[0, 0, 3]",non-match,1.2113248654051871,4,-0.08241748360223726,-1.2530057887814736,0.1460749632126239,2nd,1st,3rd,-0.3603747578095439,-1.204937648703112,0.38519590988889485
mem,resp,443,1,mem3.1.3.bmp,mem3.2.3.bmp,mem3.2.3.bmp,ACC027,"[3, -3, 3]","[3, 0, 3]","[3, 0, 3]",match,1.7113248654051871,,-0.13735396565594724,0.7844557247264785,0.5809213508531192,2nd,4th,3rd,-0.3603747578095439,1.2704271452119333,0.38519590988889485
mem,resp,778,1,mem3.2.2.bmp,mem2.1.3.bmp,mem3.2.2.bmp,ACC027,"[3, 0, 0]","[0, -3, 3]","[3, 0, 0]",match,1.5,,-0.9417869254012565,-1.063473959527839,0.44287790044415276,1st,1st,3rd,-1.2029122982919065,-1.204937648703112,0.38519590988889485
mem,resp,853,1,mem3.3.3.bmp,mem1.3.1.bmp,mem3.3.3.bmp,ACC027,"[3, 3, 3]","[-3, 3, -3]","[3, 3, 3]",match,1.1835034190722742,,0.08234473903677839,-0.5154468556046279,0.5633837533314927,3rd,2nd,3rd,0.22796591130483054,-0.29937979986083546,0.38519590988889485
mem,resp,889,1,mem1.2.3.bmp,mem3.3.1.bmp,mem3.3.1.bmp,ACC027,"[-3, 0, 3]","[3, 3, -3]","[3, 3, -3]",match,1.1339745962155614,,-0.6202009259279986,0.19272258256356095,0.32368693593084075,2nd,3rd,3rd,-0.3603747578095439,0.23303979041033993,0.38519590988889485
mem,resp,863,0,mem2.2.1.bmp,mem3.2.1.bmp,mem2.2.1.bmp,ACC027,"[0, 0, -3]","[3, 0, -3]","[0, 0, -3]",match,1.7113248654051871,,-1.0219636089891686,-2.4711204259923276,0.25142308237437533,1st,1st,3rd,-1.2029122982919065,-1.204937648703112,0.38519590988889485
mem,resp,736,1,mem1.3.3.bmp,mem2.3.3.bmp,mem2.1.1.bmp,ACC027,"[-3, 3, 3]","[0, 3, 3]","[0, -3, -3]",non-match,0.3174780152878355,1,0.04094152116111281,0.1748251319754179,1.2889498539877966,3rd,3rd,4th,0.22796591130483054,0.23303979041033993,1.2032385050117962
mem,resp,1104,1,mem2.3.2.bmp,mem3.1.1.bmp,mem3.2.2.bmp,ACC027,"[0, 3, 0]","[3, -3, -3]","[3, 0, 0]",non-match,1.1835034190722742,4,0.6246535546240005,-0.16961718097504158,1.1819572457089154,3rd,2nd,4th,0.22796591130483054,-0.29937979986083546,1.2032385050117962
mem,resp,940,1,mem1.2.2.bmp,mem2.2.3.bmp,mem1.2.2.bmp,ACC027,"[-3, 0, 0]","[0, 0, 3]","[-3, 0, 0]",match,1.591751709536137,,-0.7301183570021854,-1.329085099941255,1.3853568705314312,1st,1st,4th,-1.2029122982919065,-1.204937648703112,1.2032385050117962
mem,resp,512,1,mem3.1.2.bmp,mem1.1.1.bmp,mem1.1.1.bmp,ACC027,"[3, -3, 0]","[-3, -3, -3]","[-3, -3, -3]",match,1.3545027756320973,,0.4833796103385842,-0.04493320828334029,1.444927235346995,3rd,3rd,4th,0.22796591130483054,0.23303979041033993,1.2032385050117962
mem,resp,647,0,mem2.2.2.bmp,mem1.3.2.bmp,mem1.3.2.bmp,ACC027,"[0, 0, 0]","[-3, 3, 0]","[-3, 3, 0]",match,1.591751709536137,,0.08430060113868147,-1.5804053982763866,1.2718913707984172,3rd,1st,4th,0.22796591130483054,-1.204937648703112,1.2032385050117962
mem,resp,773,1,mem2.1.3.bmp,mem1.1.1.bmp,mem2.1.3.bmp,ACC027,"[0, -3, 3]","[-3, -3, -3]","[0, -3, 3]",match,1.3545027756320973,,-0.6918244379225746,-0.1917811167792371,0.9831912791501675,2nd,2nd,4th,-0.3603747578095439,-0.29937979986083546,1.2032385050117962
mem,resp,555,1,mem3.1.2.bmp,mem3.1.1.bmp,mem1.1.2.bmp,ACC027,"[3, -3, 0]","[3, -3, -3]","[-3, -3, 0]",non-match,0.7771525064424715,2,1.116689245172939,0.7801888640827531,1.22630606774708,4th,4th,4th,1.333623595482457,1.2704271452119333,1.2032385050117962
mem,resp,698,1,mem2.2.2.bmp,mem3.3.2.bmp,mem1.2.1.bmp,ACC027,"[0, 0, 0]","[3, 3, 0]","[-3, 0, -3]",non-match,0.8846449283495895,2,-0.5901288789443591,-0.4342987898455836,0.9053368084030952,2nd,2nd,4th,-0.3603747578095439,-0.29937979986083546,1.2032385050117962
mem,resp,1145,1,mem3.3.3.bmp,mem1.1.3.bmp,mem3.3.1.bmp,ACC027,"[3, 3, 3]","[-3, -3, 3]","[3, 3, -3]",non-match,0.42264973081037427,1,-0.1602587697081468,0.03624952196415782,1.1998660003563906,2nd,3rd,4th,-0.3603747578095439,0.23303979041033993,1.2032385050117962
mem,resp,1103,0,mem2.1.2.bmp,mem2.3.3.bmp,mem2.3.3.bmp,ACC027,"[0, -3, 0]","[0, 3, 3]","[0, 3, 3]",match,1.3545027756320973,,0.3191930116984294,-0.34885232751830075,1.7158765382913823,3rd,2nd,4th,0.22796591130483054,-0.29937979986083546,1.2032385050117962
mem,resp,685,1,mem2.2.3.bmp,mem2.2.1.bmp,mem3.1.2.bmp,ACC027,"[0, 0, 3]","[0, 0, -3]","[3, -3, 0]",non-match,1.0,3,-0.09298755248517178,1.5249068431946986,2.1912518600584328,2nd,4th,4th,-0.3603747578095439,1.2704271452119333,1.2032385050117962
mem,resp,1264,1,mem2.3.2.bmp,mem2.3.1.bmp,mem1.3.1.bmp,ACC027,"[0, 3, 0]","[0, 3, -3]","[-3, 3, -3]",non-match,1.3030765749413242,4,-0.42213815727543375,-0.3787180368870613,2.342727351318935,2nd,2nd,4th,-0.3603747578095439,-0.29937979986083546,1.2032385050117962
mem,resp,657,1,mem1.3.2.bmp,mem3.2.1.bmp,mem1.3.2.bmp,ACC027,"[-3, 3, 0]","[3, 0, -3]","[-3, 3, 0]",match,1.2928932188134525,,-1.1535740596663988,0.1262235794539134,2.3767112204044745,1st,3rd,4th,-1.2029122982919065,0.23303979041033993,1.2032385050117962
mem,resp,640,1,mem3.3.1.bmp,mem2.1.3.bmp,mem1.1.1.bmp,ACC027,"[3, 3, -3]","[0, -3, 3]","[-3, -3, -3]",non-match,0.5380061947043713,1,0.1365141527537058,-0.627738805530059,1.5772413304208772,3rd,1st,4th,0.22796591130483054,-1.204937648703112,1.2032385050117962
mem,resp,946,1,mem1.3.3.bmp,mem1.2.2.bmp,mem1.2.2.bmp,ACC027,"[-3, 3, 3]","[-3, 0, 0]","[-3, 0, 0]",match,1.591751709536137,,-1.1905112482330407,-0.21152091610027884,1.45113033951193,1st,2nd,4th,-1.2029122982919065,-0.29937979986083546,1.2032385050117962
mem,resp,699,0,mem1.2.1.bmp,mem2.3.2.bmp,mem2.3.1.bmp,ACC027,"[-3, 0, -3]","[0, 3, 0]","[0, 3, -3]",non-match,1.3030765749413242,4,-0.8911157272136281,0.3281559255249146,1.11335816647287,1st,3rd,4th,-1.2029122982919065,0.23303979041033993,1.2032385050117962
mem,resp,603,1,mem1.1.3.bmp,mem1.1.2.bmp,mem1.1.3.bmp,ACC027,"[-3, -3, 3]","[-3, -3, 0]","[-3, -3, 3]",match,1.7113248654051871,,1.1355123683477184,-1.1675185143375948,1.1821612884018096,4th,1st,4th,1.333623595482457,-1.204937648703112,1.2032385050117962
mem,resp,544,1,mem3.3.2.bmp,mem3.2.2.bmp,mem3.2.2.bmp,ACC027,"[3, 3, 0]","[3, 0, 0]","[3, 0, 0]",match,1.7113248654051871,,-0.35814943893770573,0.33020751261411124,1.4091016704920416,2nd,3rd,4th,-0.3603747578095439,0.23303979041033993,1.2032385050117962
mem,resp,751,0,mem2.1.1.bmp,mem3.1.3.bmp,mem3.1.3.bmp,ACC027,"[0, -3, -3]","[3, -3, 3]","[3, -3, 3]",match,1.3545027756320973,,-0.5468030043989177,0.4975938802336145,1.1852887744144684,2nd,3rd,4th,-0.3603747578095439,0.23303979041033993,1.2032385050117962
mem,resp,724,0,mem1.3.1.bmp,mem1.3.2.bmp,mem1.3.1.bmp,ACC027,"[-3, 3, -3]","[-3, 3, 0]","[-3, 3, -3]",match,1.7113248654051871,,0.05691691834989344,0.05338648122980184,1.256561638685922,3rd,3rd,4th,0.22796591130483054,0.23303979041033993,1.2032385050117962
mem,resp,657,1,mem1.1.1.bmp,mem3.2.3.bmp,mem2.1.3.bmp,ACC027,"[-3, -3, -3]","[3, 0, 3]","[0, -3, 3]",non-match,0.9462544851682343,3,-1.236644573606632,0.22707139891556938,1.3239699398424536,1st,3rd,4th,-1.2029122982919065,0.23303979041033993,1.2032385050117962
mem,resp,954,0,mem2.3.1.bmp,mem1.3.3.bmp,mem2.3.1.bmp,ACC027,"[0, 3, -3]","[-3, 3, 3]","[0, 3, -3]",match,1.3545027756320973,,-1.7867662434679008,-0.9380141029790547,0.6275626606584581,1st,1st,4th,-1.2029122982919065,-1.204937648703112,1.2032385050117962
mem,resp,980,1,mem3.2.1.bmp,mem2.1.1.bmp,mem3.2.1.bmp,ACC027,"[3, 0, -3]","[0, -3, -3]","[3, 0, -3]",match,1.591751709536137,,-0.9166294632663765,0.3592811947358594,0.6957687391106784,1st,3rd,4th,-1.2029122982919065,0.23303979041033993,1.2032385050117962
mem,resp,752,1,mem3.1.1.bmp,mem2.2.2.bmp,mem3.3.2.bmp,ACC027,"[3, -3, -3]","[0, 0, 0]","[3, 3, 0]",non-match,0.9462544851682343,3,0.2047048689380373,-1.1453622591578718,0.35895158261889243,3rd,1st,3rd,0.22796591130483054,-1.204937648703112,0.38519590988889485
mem,resp,565,1,mem3.1.3.bmp,mem2.1.2.bmp,mem3.3.1.bmp,ACC027,"[3, -3, 3]","[0, -3, 0]","[3, 3, -3]",non-match,0.4763966378857265,1,0.9699432233358181,0.5775290643244577,0.5218485143482444,4th,4th,3rd,1.333623595482457,1.2704271452119333,0.38519590988889485
mem,resp,989,1,mem2.3.3.bmp,mem3.3.3.bmp,mem2.3.3.bmp,ACC027,"[0, 3, 3]","[3, 3, 3]","[0, 3, 3]",match,1.7113248654051871,,-0.5775241834393328,0.11258623181138556,0.12339547444167255,2nd,3rd,3rd,-0.3603747578095439,0.23303979041033993,0.38519590988889485
mem,resp,661,1,mem1.2.3.bmp,mem2.2.3.bmp,mem3.1.2.bmp,ACC027,"[-3, 0, 3]","[0, 0, 3]","[3, -3, 0]",non-match,0.7928932188134524,2,0.7716544397578045,-0.09157327635711679,0.147680522871083,4th,2nd,3rd,1.333623595482457,-0.29937979986083546,0.38519590988889485
mem,resp,794,1,mem1.2.2.bmp,mem3.3.2.bmp,mem3.3.2.bmp,ACC027,"[-3, 0, 0]","[3, 3, 0]","[3, 3, 0]",match,1.3545027756320973,,-1.124141545457552,0.2840329122833055,-0.047510061651528025,1st,3rd,2nd,-1.2029122982919065,0.23303979041033993,-0.24622678257412164
mem,resp,703,1,mem2.2.1.bmp,mem1.3.3.bmp,mem2.2.1.bmp,ACC027,"[0, 0, -3]","[-3, 3, 3]","[0, 0, -3]",match,1.2928932188134525,,-0.09660204323105918,-0.2763877474025069,0.027249751417545282,2nd,2nd,2nd,-0.3603747578095439,-0.29937979986083546,-0.24622678257412164
mem,resp,647,1,mem3.2.2.bmp,mem2.3.3.bmp,mem1.1.1.bmp,ACC027,"[3, 0, 0]","[0, 3, 3]","[-3, -3, -3]",non-match,0.42686781502901383,1,0.8209554044559746,-1.216193807111162,0.2725466414371825,4th,1st,3rd,1.333623595482457,-1.204937648703112,0.38519590988889485
mem,resp,1122,0,mem3.2.3.bmp,mem1.3.1.bmp,mem2.1.1.bmp,ACC027,"[3, 0, 3]","[-3, 3, -3]","[0, -3, -3]",non-match,0.6473959944455496,1,-0.5202194790153742,-0.3048537372645791,-0.18922542831210706,2nd,2nd,2nd,-0.3603747578095439,-0.29937979986083546,-0.24622678257412164
mem,resp,445,1,mem1.1.2.bmp,mem1.2.2.bmp,mem2.3.2.bmp,ACC027,"[-3, -3, 0]","[-3, 0, 0]","[0, 3, 0]",non-match,0.9462544851682343,3,2.722424130833586,1.1311004841193137,-0.09214816208773566,4th,4th,2nd,1.333623595482457,1.2704271452119333,-0.24622678257412164
mem,resp,798,1,mem1.3.2.bmp,mem2.1.3.bmp,mem3.1.1.bmp,ACC027,"[-3, 3, 0]","[0, -3, 3]","[3, -3, -3]",non-match,0.4884773718476586,1,0.1057141043748803,-1.0501724632242544,-0.40615936425194815,3rd,1st,2nd,0.22796591130483054,-1.204937648703112,-0.24622678257412164
mem,resp,993,0,mem3.2.2.bmp,mem1.2.1.bmp,mem2.1.2.bmp,ACC027,"[3, 0, 0]","[-3, 0, -3]","[0, -3, 0]",non-match,1.091751709536137,4,-0.9339291584736175,-1.7804626473714489,-0.08415570227087024,1st,1st,2nd,-1.2029122982919065,-1.204937648703112,-0.24622678257412164
mem,resp,809,1,mem1.1.1.bmp,mem2.1.1.bmp,mem2.2.3.bmp,ACC027,"[-3, -3, -3]","[0, -3, -3]","[0, 0, 3]",non-match,0.6473959944455496,1,-1.764556485929757,-1.9058511853721958,-0.38646087441367766,1st,1st,2nd,-1.2029122982919065,-1.204937648703112,-0.24622678257412164
mem,resp,460,1,mem2.2.1.bmp,mem2.3.2.bmp,mem2.2.1.bmp,ACC027,"[0, 0, -3]","[0, 3, 0]","[0, 0, -3]",match,1.591751709536137,,0.669811255182255,-0.39909715824921155,-0.7303957386767218,3rd,2nd,1st,0.22796591130483054,-0.29937979986083546,-1.3404259768481772
mem,resp,277,1,mem2.3.3.bmp,mem1.1.2.bmp,mem1.1.2.bmp,ACC027,"[0, 3, 3]","[-3, -3, 0]","[-3, -3, 0]",match,1.2928932188134525,,0.006528560459534482,-0.8953700557687309,-0.5342011271472156,3rd,1st,2nd,0.22796591130483054,-1.204937648703112,-0.24622678257412164
mem,resp,468,1,mem2.2.2.bmp,mem1.3.2.bmp,mem1.3.2.bmp,ACC027,"[0, 0, 0]","[-3, 3, 0]","[-3, 3, 0]",match,1.591751709536137,,0.21652500041193745,-0.06172558751664948,-0.7121347310482217,3rd,3rd,1st,0.22796591130483054,0.23303979041033993,-1.3404259768481772
mem,resp,114,0,mem1.1.3.bmp,mem3.2.1.bmp,mem3.2.1.bmp,ACC027,"[-3, -3, 3]","[3, 0, -3]","[3, 0, -3]",match,1.1339745962155614,,-0.1870508392603396,0.16376797358536313,-0.41852965026256156,2nd,3rd,2nd,-0.3603747578095439,0.23303979041033993,-0.24622678257412164
mem,resp,525,1,mem2.2.3.bmp,mem2.3.1.bmp,mem1.3.1.bmp,ACC027,"[0, 0, 3]","[0, 3, -3]","[-3, 3, -3]",non-match,1.0042180842186395,3,0.5561527127027559,-0.6153677754278246,-0.41259780287105297,3rd,1st,2nd,0.22796591130483054,-1.204937648703112,-0.24622678257412164
mem,resp,626,1,mem2.3.2.bmp,mem3.3.3.bmp,mem2.1.1.bmp,ACC027,"[0, 3, 0]","[3, 3, 3]","[0, -3, -3]",non-match,0.4884773718476586,1,1.5485598505920866,0.16938111786368484,-0.026543234047252742,4th,3rd,2nd,1.333623595482457,0.23303979041033993,-0.24622678257412164
mem,resp,418,1,mem3.3.1.bmp,mem3.2.3.bmp,mem3.2.2.bmp,ACC027,"[3, 3, -3]","[3, 0, 3]","[3, 0, 0]",non-match,1.3030765749413242,4,-1.414156968286854,1.4254986011443247,-0.03709493343389155,1st,4th,2nd,-1.2029122982919065,1.2704271452119333,-0.24622678257412164
mem,resp,1111,1,mem2.1.2.bmp,mem3.1.2.bmp,mem2.1.2.bmp,ACC027,"[0, -3, 0]","[3, -3, 0]","[0, -3, 0]",match,1.7113248654051871,,-0.70578152878035,-0.14350556062026468,0.6080988191192761,1st,2nd,3rd,-1.2029122982919065,-0.29937979986083546,0.38519590988889485
mem,resp,434,1,mem1.2.1.bmp,mem1.1.3.bmp,mem1.1.3.bmp,ACC027,"[-3, 0, -3]","[-3, -3, 3]","[-3, -3, 3]",match,1.3545027756320973,,1.7089882536598084,0.3036571424524094,0.22149591771147986,4th,3rd,3rd,1.333623595482457,0.23303979041033993,0.38519590988889485
mem,resp,455,1,mem1.2.2.bmp,mem1.3.2.bmp,mem1.3.2.bmp,ACC027,"[-3, 0, 0]","[-3, 3, 0]","[-3, 3, 0]",match,1.7113248654051871,,0.6214736086278463,0.2689569257986769,0.045973817995130395,3rd,3rd,2nd,0.22796591130483054,0.23303979041033993,-0.24622678257412164
mem,resp,1012,1,mem1.1.1.bmp,mem1.2.3.bmp,mem2.1.3.bmp,ACC027,"[-3, -3, -3]","[-3, 0, 3]","[0, -3, 3]",non-match,0.9462544851682343,3,-0.1239861388303186,0.22914613737792036,0.4897853632278393,2nd,3rd,3rd,-0.3603747578095439,0.23303979041033993,0.38519590988889485
mem,resp,876,0,mem2.3.2.bmp,mem1.3.3.bmp,mem2.2.3.bmp,ACC027,"[0, 3, 0]","[-3, 3, 3]","[0, 0, 3]",non-match,1.1835034190722742,4,-0.019846838483511202,-0.7927375157219478,0.5215674966218589,3rd,1st,3rd,0.22796591130483054,-1.204937648703112,0.38519590988889485
mem,resp,868,0,mem1.1.3.bmp,mem2.2.2.bmp,mem2.2.2.bmp,ACC027,"[-3, -3, 3]","[0, 0, 0]","[0, 0, 0]",match,1.5,,-0.35314670370660745,-1.151884282546359,0.5624123696781561,2nd,1st,3rd,-0.3603747578095439,-1.204937648703112,0.38519590988889485
mem,resp,803,1,mem2.1.2.bmp,mem1.2.1.bmp,mem3.3.1.bmp,ACC027,"[0, -3, 0]","[-3, 0, -3]","[3, 3, -3]",non-match,0.6473959944455496,1,1.4632774075104593,-1.4713651056390191,0.11531801039278465,4th,1st,2nd,1.333623595482457,-1.204937648703112,-0.24622678257412164
mem,resp,716,1,mem3.2.2.bmp,mem1.1.1.bmp,mem1.1.1.bmp,ACC027,"[3, 0, 0]","[-3, -3, -3]","[-3, -3, -3]",match,1.2928932188134525,,-0.6785677823992043,-0.4462229984459283,-0.09597579164802705,2nd,2nd,2nd,-0.3603747578095439,-0.29937979986083546,-0.24622678257412164
mem,resp,788,1,mem3.3.2.bmp,mem2.2.3.bmp,mem2.3.1.bmp,ACC027,"[3, 3, 0]","[0, 0, 3]","[0, 3, -3]",non-match,0.9462544851682343,3,-0.6683044480438347,0.5029726950728413,0.5209065963059073,2nd,3rd,3rd,-0.3603747578095439,0.23303979041033993,0.38519590988889485
mem,resp,822,1,mem1.2.2.bmp,mem2.3.2.bmp,mem1.3.1.bmp,ACC027,"[-3, 0, 0]","[0, 3, 0]","[-3, 3, -3]",non-match,1.1835034190722742,4,0.7310512956498515,-0.5848221352580164,0.11591360053517154,4th,2nd,3rd,1.333623595482457,-0.29937979986083546,0.38519590988889485
mem,resp,616,1,mem3.2.3.bmp,mem2.1.1.bmp,mem2.2.2.bmp,ACC027,"[3, 0, 3]","[0, -3, -3]","[0, 0, 0]",non-match,1.1835034190722742,4,1.3164864561852045,-0.45427313760519594,0.2941732707940021,4th,2nd,3rd,1.333623595482457,-0.29937979986083546,0.38519590988889485
mem,resp,597,1,mem3.3.3.bmp,mem3.2.1.bmp,mem3.1.2.bmp,ACC027,"[3, 3, 3]","[3, 0, -3]","[3, -3, 0]",non-match,0.9462544851682343,3,1.5463803307208814,0.49887327517117674,0.20685284772917298,4th,3rd,3rd,1.333623595482457,0.23303979041033993,0.38519590988889485
mem,resp,882,1,mem1.3.2.bmp,mem2.3.1.bmp,mem2.3.3.bmp,ACC027,"[-3, 3, 0]","[0, 3, -3]","[0, 3, 3]",non-match,1.0144014403465114,3,0.3983470323583148,-0.3209565810055448,0.38224814658847645,3rd,2nd,3rd,0.22796591130483054,-0.29937979986083546,0.38519590988889485
mem,resp,524,1,mem1.1.2.bmp,mem3.1.3.bmp,mem1.1.2.bmp,ACC027,"[-3, -3, 0]","[3, -3, 3]","[-3, -3, 0]",match,1.3545027756320973,,-0.17425301294168644,-0.9306948589274149,0.6082906280231677,2nd,1st,3rd,-0.3603747578095439,-1.204937648703112,0.38519590988889485
mem,resp,891,1,mem1.2.3.bmp,mem3.2.2.bmp,mem3.2.2.bmp,ACC027,"[-3, 0, 3]","[3, 0, 0]","[3, 0, 0]",match,1.3545027756320973,,-0.4048431330395131,0.0620702484438078,0.8053389828640002,2nd,3rd,4th,-0.3603747578095439,0.23303979041033993,1.2032385050117962
mem,resp,531,1,mem3.1.2.bmp,mem3.1.1.bmp,mem3.3.1.bmp,ACC027,"[3, -3, 0]","[3, -3, -3]","[3, 3, -3]",non-match,0.7771525064424715,2,2.1144571206838356,-0.13081516671105076,0.8211410141055018,4th,2nd,4th,1.333623595482457,-0.29937979986083546,1.2032385050117962
mem,resp,503,0,mem2.2.3.bmp,mem2.3.3.bmp,mem2.3.3.bmp,ACC027,"[0, 0, 3]","[0, 3, 3]","[0, 3, 3]",match,1.7113248654051871,,1.4044723084273816,0.38803426162505167,0.9065227861150548,4th,3rd,4th,1.333623595482457,0.23303979041033993,1.2032385050117962
mem,resp,970,0,mem2.2.1.bmp,mem2.1.3.bmp,mem2.2.1.bmp,ACC027,"[0, 0, -3]","[0, -3, 3]","[0, 0, -3]",match,1.3545027756320973,,-0.28284163509113885,-0.3078222438732662,0.6174424845531667,2nd,2nd,3rd,-0.3603747578095439,-0.29937979986083546,0.38519590988889485
mem,resp,501,1,mem1.3.1.bmp,mem1.2.2.bmp,mem2.2.2.bmp,ACC027,"[-3, 3, -3]","[-3, 0, 0]","[0, 0, 0]",non-match,1.2113248654051871,4,1.5225689974145837,0.33191408167202024,0.15194651770388512,4th,3rd,3rd,1.333623595482457,0.23303979041033993,0.38519590988889485
mem,resp,703,1,mem1.3.3.bmp,mem2.1.2.bmp,mem3.1.3.bmp,ACC027,"[-3, 3, 3]","[0, -3, 0]","[3, -3, 3]",non-match,0.7752551286084112,2,0.7032003722495883,-0.14855800366928587,0.12116512755910563,4th,2nd,3rd,1.333623595482457,-0.29937979986083546,0.38519590988889485
mem,resp,860,1,mem2.3.1.bmp,mem3.2.3.bmp,mem2.1.1.bmp,ACC027,"[0, 3, -3]","[3, 0, 3]","[0, -3, -3]",non-match,0.7155429496238267,2,0.05901542987462638,-1.8394880900131236,0.1837166731576022,3rd,1st,3rd,0.22796591130483054,-1.204937648703112,0.38519590988889485
mem,resp,431,1,mem3.3.1.bmp,mem3.3.3.bmp,mem1.2.3.bmp,ACC027,"[3, 3, -3]","[3, 3, 3]","[-3, 0, 3]",non-match,0.4884773718476586,1,2.12360323446088,1.515644166509263,0.28040935375804615,4th,4th,3rd,1.333623595482457,1.2704271452119333,0.38519590988889485
mem,resp,826,0,mem3.1.1.bmp,mem2.2.1.bmp,mem3.2.1.bmp,ACC027,"[3, -3, -3]","[0, 0, -3]","[3, 0, -3]",non-match,1.4226497308103743,4,0.1027071457111726,-0.13667628096724474,1.0343381073010198,3rd,2nd,4th,0.22796591130483054,-0.29937979986083546,1.2032385050117962
mem,resp,1273,1,mem1.2.1.bmp,mem3.1.2.bmp,mem3.3.2.bmp,ACC027,"[-3, 0, -3]","[3, -3, 0]","[3, 3, 0]",non-match,0.7155429496238267,2,-0.9901845711521275,-2.2346239988167316,1.2642128812492999,1st,1st,4th,-1.2029122982919065,-1.204937648703112,1.2032385050117962
mem,resp,989,1,mem2.1.3.bmp,mem1.3.1.bmp,mem2.1.3.bmp,ACC027,"[0, -3, 3]","[-3, 3, -3]","[0, -3, 3]",match,1.1339745962155614,,-1.2589281753424282,0.7720413327280378,1.3065393774321432,1st,4th,4th,-1.2029122982919065,1.2704271452119333,1.2032385050117962
mem,resp,907,1,mem2.1.1.bmp,mem1.3.2.bmp,mem1.1.2.bmp,ACC027,"[0, -3, -3]","[-3, 3, 0]","[-3, -3, 0]",non-match,1.0144014403465114,3,-0.350887588684711,-0.7007829834013489,0.9231082264493867,2nd,1st,4th,-0.3603747578095439,-1.204937648703112,1.2032385050117962
mem,resp,508,1,mem3.2.1.bmp,mem3.3.3.bmp,mem1.1.1.bmp,ACC027,"[3, 0, -3]","[3, 3, 3]","[-3, -3, -3]",non-match,0.3545027756320972,1,2.2232336137502506,-0.18064355429592818,0.5922948468455042,4th,2nd,3rd,1.333623595482457,-0.29937979986083546,0.38519590988889485
mem,resp,740,0,mem3.1.3.bmp,mem3.3.2.bmp,mem3.3.2.bmp,ACC027,"[3, -3, 3]","[3, 3, 0]","[3, 3, 0]",match,1.3545027756320973,,0.5778960020590148,0.7869811641100041,0.2090358877650029,3rd,4th,3rd,0.22796591130483054,1.2704271452119333,0.38519590988889485
mem,resp,846,0,mem2.3.3.bmp,mem3.2.2.bmp,mem3.2.3.bmp,ACC027,"[0, 3, 3]","[3, 0, 0]","[3, 0, 3]",non-match,1.3030765749413242,4,-1.4386578172549422,0.5374159314845545,-0.1435915522177922,1st,3rd,2nd,-1.2029122982919065,0.23303979041033993,-0.24622678257412164
mem,resp,749,1,mem2.2.2.bmp,mem1.1.2.bmp,mem1.1.2.bmp,ACC027,"[0, 0, 0]","[-3, -3, 0]","[-3, -3, 0]",match,1.591751709536137,,2.130943197191064,1.2835201147069688,-0.14420438916891223,4th,4th,2nd,1.333623595482457,1.2704271452119333,-0.24622678257412164
mem,resp,723,1,mem1.2.2.bmp,mem2.2.3.bmp,mem2.2.3.bmp,ACC027,"[-3, 0, 0]","[0, 0, 3]","[0, 0, 3]",match,1.591751709536137,,0.11399072257877849,0.8845274100459366,0.3393843098396603,3rd,4th,3rd,0.22796591130483054,1.2704271452119333,0.38519590988889485
mem,resp,462,1,mem1.3.3.bmp,mem1.3.1.bmp,mem3.2.1.bmp,ACC027,"[-3, 3, 3]","[-3, 3, -3]","[3, 0, -3]",non-match,0.4884773718476586,1,1.9890363528129495,0.9334620294844779,0.16759535482773297,4th,4th,3rd,1.333623595482457,1.2704271452119333,0.38519590988889485
mem,resp,635,1,mem2.3.3.bmp,mem2.3.2.bmp,mem1.3.2.bmp,ACC027,"[0, 3, 3]","[0, 3, 0]","[-3, 3, 0]",non-match,1.3030765749413242,4,2.214271493977914,1.5786458105618308,-0.008177465181436003,4th,4th,2nd,1.333623595482457,1.2704271452119333,-0.24622678257412164
mem,resp,648,0,mem2.2.2.bmp,mem2.1.3.bmp,mem2.2.2.bmp,ACC027,"[0, 0, 0]","[0, -3, 3]","[0, 0, 0]",match,1.591751709536137,,-2.2929499914618696,2.2901251755214638,-0.2339894084987625,1st,4th,2nd,-1.2029122982919065,1.2704271452119333,-0.24622678257412164
mem,resp,378,0,mem1.1.1.bmp,mem3.2.3.bmp,mem2.1.2.bmp,ACC027,"[-3, -3, -3]","[3, 0, 3]","[0, -3, 0]",non-match,1.091751709536137,4,-0.11856658835072154,1.340085802165035,-0.01966522551452204,2nd,4th,2nd,-0.3603747578095439,1.2704271452119333,-0.24622678257412164
mem,resp,539,1,mem2.2.3.bmp,mem3.1.3.bmp,mem3.1.3.bmp,ACC027,"[0, 0, 3]","[3, -3, 3]","[3, -3, 3]",match,1.591751709536137,,0.03081450929061665,-1.593268942556852,0.07805449353561963,3rd,1st,2nd,0.22796591130483054,-1.204937648703112,-0.24622678257412164
mem,resp,503,0,mem3.2.2.bmp,mem1.3.2.bmp,mem1.3.3.bmp,ACC027,"[3, 0, 0]","[-3, 3, 0]","[-3, 3, 3]",non-match,1.0042180842186395,3,0.8579482657141148,1.05008294204784,0.4171556217509921,4th,4th,3rd,1.333623595482457,1.2704271452119333,0.38519590988889485
mem,resp,722,1,mem1.2.3.bmp,mem3.1.1.bmp,mem1.3.1.bmp,ACC027,"[-3, 0, 3]","[3, -3, -3]","[-3, 3, -3]",non-match,0.5380061947043713,1,-1.2825386869367936,-1.043060611676187,0.510680378996232,1st,1st,3rd,-1.2029122982919065,-1.204937648703112,0.38519590988889485
mem,resp,947,1,mem3.3.2.bmp,mem1.1.3.bmp,mem2.1.1.bmp,ACC027,"[3, 3, 0]","[-3, -3, 3]","[0, -3, -3]",non-match,0.6473959944455496,1,-1.673166253239131,-0.666325324309873,0.14505113898583782,1st,1st,3rd,-1.2029122982919065,-1.204937648703112,0.38519590988889485
mem,resp,1022,0,mem1.2.1.bmp,mem2.1.2.bmp,mem2.2.3.bmp,ACC027,"[-3, 0, -3]","[0, -3, 0]","[0, 0, 3]",non-match,0.9462544851682343,3,-1.507734706430029,-1.2639045949077126,0.4554672013675464,1st,1st,3rd,-1.2029122982919065,-1.204937648703112,0.38519590988889485
mem,resp,635,1,mem2.2.1.bmp,mem1.2.2.bmp,mem3.2.2.bmp,ACC027,"[0, 0, -3]","[-3, 0, 0]","[3, 0, 0]",non-match,1.0144014403465114,3,0.4498287495876822,-0.2597842708598858,-0.38798986220248877,3rd,2nd,2nd,0.22796591130483054,-0.29937979986083546,-0.24622678257412164
mem,resp,835,1,mem2.1.3.bmp,mem3.1.1.bmp,mem3.1.1.bmp,ACC027,"[0, -3, 3]","[3, -3, -3]","[3, -3, -3]",match,1.3545027756320973,,-0.9819688683588804,-1.4820280415084235,-0.5445534686011115,1st,1st,2nd,-1.2029122982919065,-1.204937648703112,-0.24622678257412164
mem,resp,678,1,mem3.1.2.bmp,mem2.1.1.bmp,mem2.1.1.bmp,ACC027,"[3, -3, 0]","[0, -3, -3]","[0, -3, -3]",match,1.591751709536137,,-0.4552136067546422,0.7367168424257475,-0.7395475101620829,2nd,4th,1st,-0.3603747578095439,1.2704271452119333,-1.3404259768481772
mem,resp,799,0,mem3.2.1.bmp,mem1.2.2.bmp,mem1.1.2.bmp,ACC027,"[3, 0, -3]","[-3, 0, 0]","[-3, -3, 0]",non-match,1.0042180842186395,3,0.10918980106476371,-0.07801996194201308,-0.42293720016557185,3rd,3rd,2nd,0.22796591130483054,0.23303979041033993,-0.24622678257412164
mem,resp,1006,0,mem2.1.2.bmp,mem1.3.3.bmp,mem2.1.2.bmp,ACC027,"[0, -3, 0]","[-3, 3, 3]","[0, -3, 0]",match,1.2928932188134525,,0.24967741364711152,-0.06380251597375784,-0.005526889588404159,3rd,3rd,2nd,0.22796591130483054,0.23303979041033993,-0.24622678257412164
mem,resp,899,1,mem3.2.2.bmp,mem3.1.3.bmp,mem3.1.1.bmp,ACC027,"[3, 0, 0]","[3, -3, 3]","[3, -3, -3]",non-match,1.0144014403465114,3,1.3661270532120542,0.4824339856641189,-0.7690821856298541,4th,3rd,1st,1.333623595482457,0.23303979041033993,-1.3404259768481772
mem,resp,393,1,mem1.3.2.bmp,mem1.2.3.bmp,mem1.2.3.bmp,ACC027,"[-3, 3, 0]","[-3, 0, 3]","[-3, 0, 3]",match,1.591751709536137,,0.7551139118258319,-0.18220889997759268,-0.5866080929946746,4th,2nd,2nd,1.333623595482457,-0.29937979986083546,-0.24622678257412164
mem,resp,996,0,mem2.1.1.bmp,mem3.3.2.bmp,mem3.3.2.bmp,ACC027,"[0, -3, -3]","[3, 3, 0]","[3, 3, 0]",match,1.2928932188134525,,-1.981292754212619,-0.1259882931220922,-0.3515971605313129,1st,2nd,2nd,-1.2029122982919065,-0.29937979986083546,-0.24622678257412164
mem,resp,780,1,mem2.3.2.bmp,mem3.2.3.bmp,mem3.1.2.bmp,ACC027,"[0, 3, 0]","[3, 0, 3]","[3, -3, 0]",non-match,0.9462544851682343,3,2.0022441572155687,0.09823006531803766,-0.0348510428557486,4th,3rd,2nd,1.333623595482457,0.23303979041033993,-0.24622678257412164
mem,resp,373,1,mem1.1.2.bmp,mem1.1.3.bmp,mem1.1.3.bmp,ACC027,"[-3, -3, 0]","[-3, -3, 3]","[-3, -3, 3]",match,1.7113248654051871,,1.4895612620475531,0.09003103780087222,-0.26895128241806615,4th,3rd,2nd,1.333623595482457,0.23303979041033993,-0.24622678257412164
mem,resp,603,0,mem2.3.3.bmp,mem2.1.3.bmp,mem2.3.3.bmp,ACC027,"[0, 3, 3]","[0, -3, 3]","[0, 3, 3]",match,1.4226497308103743,,-0.4809361735398674,-0.07400657754869443,-0.2797205795280719,2nd,3rd,2nd,-0.3603747578095439,0.23303979041033993,-0.24622678257412164
mem,resp,667,1,mem3.3.2.bmp,mem1.3.2.bmp,mem1.2.1.bmp,ACC027,"[3, 3, 0]","[-3, 3, 0]","[-3, 0, -3]",non-match,0.8846449283495895,2,1.3469810453235123,-1.6454870446001348,-1.0437901207694376,4th,1st,1st,1.333623595482457,-1.204937648703112,-1.3404259768481772
mem,resp,940,1,mem2.2.2.bmp,mem2.2.3.bmp,mem2.2.3.bmp,ACC027,"[0, 0, 0]","[0, 0, 3]","[0, 0, 3]",match,1.7113248654051871,,-1.030686621076466,1.1142460341774378,-0.7670712582974254,1st,4th,1st,-1.2029122982919065,1.2704271452119333,-1.3404259768481772
mem,resp,775,1,mem1.2.2.bmp,mem3.2.1.bmp,mem1.2.2.bmp,ACC027,"[-3, 0, 0]","[3, 0, -3]","[-3, 0, 0]",match,1.3545027756320973,,1.251027093681696,-0.9198735629727856,-0.7927385838781755,4th,1st,1st,1.333623595482457,-1.204937648703112,-1.3404259768481772
mem,resp,497,1,mem3.3.1.bmp,mem1.3.1.bmp,mem1.3.1.bmp,ACC027,"[3, 3, -3]","[-3, 3, -3]","[-3, 3, -3]",match,1.4226497308103743,,0.9467892939230113,1.218883608281992,-1.2362067938961665,4th,4th,1st,1.333623595482457,1.2704271452119333,-1.3404259768481772
mem,resp,346,1,mem3.2.3.bmp,mem3.1.2.bmp,mem3.2.3.bmp,ACC027,"[3, 0, 3]","[3, -3, 0]","[3, 0, 3]",match,1.591751709536137,,0.7058791928333006,0.8016829743474264,-1.3964998653590435,4th,4th,1st,1.333623595482457,1.2704271452119333,-1.3404259768481772
mem,resp,1113,1,mem3.1.1.bmp,mem3.3.3.bmp,mem3.1.1.bmp,ACC027,"[3, -3, -3]","[3, 3, 3]","[3, -3, -3]",match,1.1835034190722742,,-1.0413199846713193,-0.018199691988599515,-1.2888535193270731,1st,3rd,1st,-1.2029122982919065,0.23303979041033993,-1.3404259768481772
mem,resp,647,1,mem1.2.1.bmp,mem1.1.1.bmp,mem1.2.3.bmp,ACC027,"[-3, 0, -3]","[-3, -3, -3]","[-3, 0, 3]",non-match,0.7771525064424715,2,3.114815468723385,0.14029248120630355,-1.210100733892359,4th,3rd,1st,1.333623595482457,0.23303979041033993,-1.3404259768481772
mem,resp,657,1,mem2.3.1.bmp,mem1.1.2.bmp,mem1.1.2.bmp,ACC027,"[0, 3, -3]","[-3, -3, 0]","[-3, -3, 0]",match,1.2928932188134525,,0.20335627414107793,0.2737667799998025,-0.5423609893367002,3rd,3rd,2nd,0.22796591130483054,0.23303979041033993,-0.24622678257412164
mem,resp,935,1,mem3.1.3.bmp,mem3.3.1.bmp,mem3.1.3.bmp,ACC027,"[3, -3, 3]","[3, 3, -3]","[3, -3, 3]",match,1.1835034190722742,,-1.5305070586301601,-0.9765544754407562,-0.6909538658622777,1st,1st,1st,-1.2029122982919065,-1.204937648703112,-1.3404259768481772
mem,resp,576,1,mem2.2.1.bmp,mem2.3.3.bmp,mem1.3.1.bmp,ACC027,"[0, 0, -3]","[0, 3, 3]","[-3, 3, -3]",non-match,0.9462544851682343,3,0.8198333682856064,-0.4408741865348847,-0.8838155886519629,4th,2nd,1st,1.333623595482457,-0.29937979986083546,-1.3404259768481772
mem,resp,589,0,mem3.3.3.bmp,mem2.2.2.bmp,mem3.3.3.bmp,ACC027,"[3, 3, 3]","[0, 0, 0]","[3, 3, 3]",match,1.5,,-1.0529348242755692,0.31197173912151227,-0.5507461222965254,1st,3rd,2nd,-1.2029122982919065,0.23303979041033993,-0.24622678257412164
mem,resp,369,1,mem1.1.1.bmp,mem1.2.1.bmp,mem3.2.3.bmp,ACC027,"[-3, -3, -3]","[-3, 0, -3]","[3, 0, 3]",non-match,0.3174780152878355,1,0.8044127178440643,2.347997476423368,-0.7525952700880083,4th,4th,1st,1.333623595482457,1.2704271452119333,-1.3404259768481772
mem,resp,561,1,mem1.2.3.bmp,mem3.3.1.bmp,mem3.3.1.bmp,ACC027,"[-3, 0, 3]","[3, 3, -3]","[3, 3, -3]",match,1.1339745962155614,,0.8104175653749424,3.0591036662762554,-0.6673836702565561,4th,4th,1st,1.333623595482457,1.2704271452119333,-1.3404259768481772
mem,resp,682,1,mem1.1.3.bmp,mem3.3.2.bmp,mem1.1.3.bmp,ACC027,"[-3, -3, 3]","[3, 3, 0]","[-3, -3, 3]",match,1.1339745962155614,,0.3382303355247216,2.762527317893763,-0.7905051503787469,3rd,4th,1st,0.22796591130483054,1.2704271452119333,-1.3404259768481772
mem,resp,493,1,mem1.3.1.bmp,mem1.2.2.bmp,mem1.2.2.bmp,ACC027,"[-3, 3, -3]","[-3, 0, 0]","[-3, 0, 0]",match,1.591751709536137,,0.9985128492942152,4.001110264003283,-1.1609101908050223,4th,4th,1st,1.333623595482457,1.2704271452119333,-1.3404259768481772
mem,resp,1000,1,mem2.2.3.bmp,mem2.1.1.bmp,mem2.2.3.bmp,ACC027,"[0, 0, 3]","[0, -3, -3]","[0, 0, 3]",match,1.3545027756320973,,-1.2511515110171354,1.0944427250084172,-0.9944231039421961,1st,4th,1st,-1.2029122982919065,1.2704271452119333,-1.3404259768481772
mem,resp,820,0,mem1.3.3.bmp,mem2.3.1.bmp,mem1.3.2.bmp,ACC027,"[-3, 3, 3]","[0, 3, -3]","[-3, 3, 0]",non-match,1.3030765749413242,4,0.5008378577288877,1.1864740635737394,-1.128225030827781,3rd,4th,1st,0.22796591130483054,1.2704271452119333,-1.3404259768481772
mem,resp,493,1,mem1.3.3.bmp,mem1.1.1.bmp,mem1.1.1.bmp,ACC027,"[-3, 3, 3]","[-3, -3, -3]","[-3, -3, -3]",match,1.1835034190722742,,0.8442498975629912,0.8921535349344368,-1.6591400085344972,4th,4th,1st,1.333623595482457,1.2704271452119333,-1.3404259768481772
mem,resp,575,1,mem2.3.2.bmp,mem3.2.1.bmp,mem2.3.3.bmp,ACC027,"[0, 3, 0]","[3, 0, -3]","[0, 3, 3]",non-match,1.0042180842186395,3,0.9418590921919063,0.5857567494873122,-1.0893009509416742,4th,4th,1st,1.333623595482457,1.2704271452119333,-1.3404259768481772
mem,resp,859,1,mem1.3.1.bmp,mem3.1.1.bmp,mem1.1.3.bmp,ACC027,"[-3, 3, -3]","[3, -3, -3]","[-3, -3, 3]",non-match,0.36700683814454815,1,-0.1751325038613391,-0.18530095357626497,-0.709217478823658,2nd,2nd,1st,-0.3603747578095439,-0.29937979986083546,-1.3404259768481772
mem,resp,712,1,mem2.2.1.bmp,mem2.1.2.bmp,mem3.3.1.bmp,ACC027,"[0, 0, -3]","[0, -3, 0]","[3, 3, -3]",non-match,0.8846449283495895,2,-0.37282144160199354,0.4426859562359962,-0.6341590369713104,2nd,3rd,2nd,-0.3603747578095439,0.23303979041033993,-0.24622678257412164
mem,resp,756,1,mem3.2.2.bmp,mem1.1.2.bmp,mem2.3.1.bmp,ACC027,"[3, 0, 0]","[-3, -3, 0]","[0, 3, -3]",non-match,0.7928932188134524,2,-1.5284514058894694,-0.9109831853961923,-0.7954338577600462,1st,1st,1st,-1.2029122982919065,-1.204937648703112,-1.3404259768481772
mem,resp,649,1,mem3.3.2.bmp,mem1.2.3.bmp,mem1.2.3.bmp,ACC027,"[3, 3, 0]","[-3, 0, 3]","[-3, 0, 3]",match,1.2928932188134525,,1.1654677213826918,0.051146304306311535,-1.1543912254617488,4th,3rd,1st,1.333623595482457,0.23303979041033993,-1.3404259768481772
mem,resp,822,0,mem2.2.2.bmp,mem3.3.3.bmp,mem2.2.2.bmp,ACC027,"[0, 0, 0]","[3, 3, 3]","[0, 0, 0]",match,1.5,,-0.48187136113138795,1.7502298975619892,-1.2660187046014562,2nd,4th,1st,-0.3603747578095439,1.2704271452119333,-1.3404259768481772
mem,resp,928,1,mem1.2.1.bmp,mem2.1.3.bmp,mem1.1.1.bmp,ACC027,"[-3, 0, -3]","[0, -3, 3]","[-3, -3, -3]",non-match,1.0658276410372842,3,1.8509520056098363,0.3276824486582579,-1.2557862972176976,4th,3rd,1st,1.333623595482457,0.23303979041033993,-1.3404259768481772
mem,resp,550,1,mem3.2.3.bmp,mem3.1.2.bmp,mem1.3.1.bmp,ACC027,"[3, 0, 3]","[3, -3, 0]","[-3, 3, -3]",non-match,0.2679491924311228,1,1.4858851584175625,0.6566429378098116,-0.6677128398477287,4th,4th,1st,1.333623595482457,1.2704271452119333,-1.3404259768481772
mem,resp,662,1,mem3.2.1.bmp,mem3.1.3.bmp,mem3.1.3.bmp,ACC027,"[3, 0, -3]","[3, -3, 3]","[3, -3, 3]",match,1.3545027756320973,,-1.6527452771097804,0.40212412475583964,-0.2590715638274695,1st,3rd,2nd,-1.2029122982919065,0.23303979041033993,-0.24622678257412164
mem,resp,1067,1,mem1.2.2.bmp,mem2.2.3.bmp,mem2.2.1.bmp,ACC027,"[-3, 0, 0]","[0, 0, 3]","[0, 0, -3]",non-match,1.0144014403465114,3,-1.3618245062917476,-0.7429512698933398,0.07030322438237138,1st,1st,2nd,-1.2029122982919065,-1.204937648703112,-0.24622678257412164
mem,resp,701,1,mem2.1.2.bmp,mem1.3.2.bmp,mem1.1.2.bmp,ACC027,"[0, -3, 0]","[-3, 3, 0]","[-3, -3, 0]",non-match,1.1339745962155614,4,0.3436272084110843,0.08127018277138849,0.32488028565936655,3rd,3rd,3rd,0.22796591130483054,0.23303979041033993,0.38519590988889485
mem,resp,684,1,mem1.2.3.bmp,mem2.3.3.bmp,mem1.2.3.bmp,ACC027,"[-3, 0, 3]","[0, 3, 3]","[-3, 0, 3]",match,1.591751709536137,,-0.08100493831274871,-0.8539150818550258,0.24894430980721155,3rd,1st,3rd,0.22796591130483054,-1.204937648703112,0.38519590988889485
mem,resp,661,1,mem3.2.3.bmp,mem1.2.3.bmp,mem3.2.3.bmp,ACC027,"[3, 0, 3]","[-3, 0, 3]","[3, 0, 3]",match,1.4226497308103743,,0.04360934963614136,-1.61844843074998,-0.32341251045476893,3rd,1st,2nd,0.22796591130483054,-1.204937648703112,-0.24622678257412164
mem,resp,610,1,mem1.1.1.bmp,mem2.2.3.bmp,mem1.1.1.bmp,ACC027,"[-3, -3, -3]","[0, 0, 3]","[-3, -3, -3]",match,1.2928932188134525,,-0.13779316256002164,-1.581075732207549,0.1351868495778284,2nd,1st,3rd,-0.3603747578095439,-1.204937648703112,0.38519590988889485
mem,resp,763,1,mem1.3.3.bmp,mem3.2.2.bmp,mem2.2.2.bmp,ACC027,"[-3, 3, 3]","[3, 0, 0]","[0, 0, 0]",non-match,1.2113248654051871,4,-0.05885260803963484,1.349067033238441,0.44302282548696087,3rd,4th,3rd,0.22796591130483054,1.2704271452119333,0.38519590988889485
mem,resp,674,1,mem1.1.3.bmp,mem2.3.2.bmp,mem2.1.1.bmp,ACC027,"[-3, -3, 3]","[0, 3, 0]","[0, -3, -3]",non-match,0.7090055512641944,2,1.0931798395675667,0.7174552753885519,0.629787452651929,4th,4th,4th,1.333623595482457,1.2704271452119333,1.2032385050117962
mem,resp,1010,0,mem2.1.2.bmp,mem2.3.1.bmp,mem2.3.1.bmp,ACC027,"[0, -3, 0]","[0, 3, -3]","[0, 3, -3]",match,1.3545027756320973,,0.42708637126493193,0.1746155807627272,0.5939217549713351,3rd,3rd,3rd,0.22796591130483054,0.23303979041033993,0.38519590988889485
mem,resp,601,1,mem2.1.3.bmp,mem3.1.3.bmp,mem3.3.3.bmp,ACC027,"[0, -3, 3]","[3, -3, 3]","[3, 3, 3]",non-match,0.7771525064424715,2,0.7500744077177329,0.9742982985934383,0.6086455859583871,4th,4th,3rd,1.333623595482457,1.2704271452119333,0.38519590988889485
mem,resp,714,1,mem3.1.2.bmp,mem1.1.1.bmp,mem1.2.3.bmp,ACC027,"[3, -3, 0]","[-3, -3, -3]","[-3, 0, 3]",non-match,0.6473959944455496,1,-0.16032823699887278,-1.4134009579212503,0.6308324258612126,2nd,1st,4th,-0.3603747578095439,-1.204937648703112,1.2032385050117962
mem,resp,866,0,mem1.1.2.bmp,mem3.2.1.bmp,mem2.2.1.bmp,ACC027,"[-3, -3, 0]","[3, 0, -3]","[0, 0, -3]",non-match,1.2113248654051871,4,-0.8776412196581712,-0.6549564670944913,0.36737814078638914,1st,1st,3rd,-1.2029122982919065,-1.204937648703112,0.38519590988889485
mem,resp,698,1,mem2.2.2.bmp,mem1.3.3.bmp,mem1.3.3.bmp,ACC027,"[0, 0, 0]","[-3, 3, 3]","[-3, 3, 3]",match,1.5,,-0.3309788765527113,0.48306188844684705,1.003382749955107,2nd,3rd,4th,-0.3603747578095439,0.23303979041033993,1.2032385050117962
mem,resp,661,1,mem1.3.1.bmp,mem1.1.3.bmp,mem2.1.1.bmp,ACC027,"[-3, 3, -3]","[-3, -3, 3]","[0, -3, -3]",non-match,0.7090055512641944,2,-0.642997959925434,-1.4585493971011945,0.9410718792975489,2nd,1st,4th,-0.3603747578095439,-1.204937648703112,1.2032385050117962
mem,resp,533,0,mem2.2.3.bmp,mem3.3.1.bmp,mem2.3.2.bmp,ACC027,"[0, 0, 3]","[3, 3, -3]","[0, 3, 0]",non-match,1.1835034190722742,4,-0.03796335165841424,1.0261983586480055,1.3845539494599863,3rd,4th,4th,0.22796591130483054,1.2704271452119333,1.2032385050117962
mem,resp,1238,1,mem1.2.2.bmp,mem1.2.1.bmp,mem1.2.1.bmp,ACC027,"[-3, 0, 0]","[-3, 0, -3]","[-3, 0, -3]",match,1.7113248654051871,,0.20484619428204662,-0.10930553876923559,1.4022985155278103,3rd,2nd,4th,0.22796591130483054,-0.29937979986083546,1.2032385050117962
mem,resp,934,1,mem3.2.2.bmp,mem1.1.2.bmp,mem3.2.3.bmp,ACC027,"[3, 0, 0]","[-3, -3, 0]","[3, 0, 3]",non-match,1.0042180842186395,3,-0.20442866052146114,-0.14319332993906778,1.50695335996309,2nd,2nd,4th,-0.3603747578095439,-0.29937979986083546,1.2032385050117962
mem,resp,1474,1,mem1.3.2.bmp,mem2.3.3.bmp,mem3.3.2.bmp,ACC027,"[-3, 3, 0]","[0, 3, 3]","[3, 3, 0]",non-match,1.0144014403465114,3,-1.1122707781002363,-0.5079116780698596,1.281868869847475,1st,2nd,4th,-1.2029122982919065,-0.29937979986083546,1.2032385050117962
mem,resp,697,1,mem3.3.1.bmp,mem1.3.1.bmp,mem1.3.1.bmp,ACC027,"[3, 3, -3]","[-3, 3, -3]","[-3, 3, -3]",match,1.4226497308103743,,1.549450803674272,0.4495882565713724,1.6333040700423738,4th,3rd,4th,1.333623595482457,0.23303979041033993,1.2032385050117962
mem,resp,640,1,mem3.3.3.bmp,mem3.1.2.bmp,mem3.1.2.bmp,ACC027,"[3, 3, 3]","[3, -3, 0]","[3, -3, 0]",match,1.3545027756320973,,0.38010461953035946,0.6987520944433395,2.1326260325312685,3rd,4th,4th,0.22796591130483054,1.2704271452119333,1.2032385050117962
mem,resp,551,1,mem3.1.1.bmp,mem2.1.2.bmp,mem1.1.3.bmp,ACC027,"[3, -3, -3]","[0, -3, 0]","[-3, -3, 3]",non-match,0.7752551286084112,2,2.195769725394295,1.470898318758508,2.0992287131572542,4th,4th,4th,1.333623595482457,1.2704271452119333,1.2032385050117962
mem,resp,835,1,mem2.2.1.bmp,mem2.2.2.bmp,mem2.2.1.bmp,ACC027,"[0, 0, -3]","[0, 0, 0]","[0, 0, -3]",match,1.7113248654051871,,0.34650683678952354,0.22076371344260137,1.867580920276216,3rd,3rd,4th,0.22796591130483054,0.23303979041033993,1.2032385050117962
mem,resp,458,1,mem3.2.1.bmp,mem3.3.2.bmp,mem3.2.1.bmp,ACC027,"[3, 0, -3]","[3, 3, 0]","[3, 0, -3]",match,1.591751709536137,,1.3584480769878031,-0.3329477408742025,1.3931330402468987,4th,2nd,4th,1.333623595482457,-0.29937979986083546,1.2032385050117962
mem,resp,619,1,mem2.3.1.bmp,mem3.2.3.bmp,mem2.1.3.bmp,ACC027,"[0, 3, -3]","[3, 0, 3]","[0, -3, 3]",non-match,0.7752551286084112,2,2.4463735003636886,1.3388985747211408,1.2441375738672495,4th,4th,4th,1.333623595482457,1.2704271452119333,1.2032385050117962
mem,resp,550,1,mem1.2.3.bmp,mem2.1.1.bmp,mem2.1.1.bmp,ACC027,"[-3, 0, 3]","[0, -3, -3]","[0, -3, -3]",match,1.2928932188134525,,-0.5964027635180229,0.31529565059376646,0.9410703253790375,2nd,3rd,4th,-0.3603747578095439,0.23303979041033993,1.2032385050117962
mem,resp,421,1,mem1.2.1.bmp,mem1.3.2.bmp,mem1.2.1.bmp,ACC027,"[-3, 0, -3]","[-3, 3, 0]","[-3, 0, -3]",match,1.591751709536137,,0.8899743835894514,1.090068366907719,1.1077723128438193,4th,4th,4th,1.333623595482457,1.2704271452119333,1.2032385050117962
mem,resp,754,0,mem2.3.3.bmp,mem1.3.1.bmp,mem2.2.3.bmp,ACC027,"[0, 3, 3]","[-3, 3, -3]","[0, 0, 3]",non-match,1.0042180842186395,3,-1.007312525963696,0.02043988723563434,0.9998664547518731,1st,3rd,4th,-1.2029122982919065,0.23303979041033993,1.2032385050117962
mem,resp,879,0,mem3.3.2.bmp,mem2.2.1.bmp,mem3.3.3.bmp,ACC027,"[3, 3, 0]","[0, 0, -3]","[3, 3, 3]",non-match,1.0042180842186395,3,0.2106010668919444,-0.28864840176894324,1.2582915990577883,3rd,2nd,4th,0.22796591130483054,-0.29937979986083546,1.2032385050117962
mem,resp,613,0,mem2.1.1.bmp,mem1.1.3.bmp,mem1.2.3.bmp,ACC027,"[0, -3, -3]","[-3, -3, 3]","[-3, 0, 3]",non-match,1.0042180842186395,3,-0.12262628820970682,1.397832710224231,1.2066863192925166,2nd,4th,4th,-0.3603747578095439,1.2704271452119333,1.2032385050117962
mem,resp,674,1,mem3.1.3.bmp,mem3.1.1.bmp,mem3.1.3.bmp,ACC027,"[3, -3, 3]","[3, -3, -3]","[3, -3, 3]",match,1.4226497308103743,,-1.0438260166148292,0.5468870956709413,1.217467120073838,1st,3rd,4th,-1.2029122982919065,0.23303979041033993,1.2032385050117962
mem,resp,1213,0,mem3.2.2.bmp,mem2.2.2.bmp,mem2.2.3.bmp,ACC027,"[3, 0, 0]","[0, 0, 0]","[0, 0, 3]",non-match,1.3030765749413242,4,1.2063273255572473,-0.7003946660451347,1.7212410166502206,4th,1st,4th,1.333623595482457,-1.204937648703112,1.2032385050117962
mem,resp,662,1,mem2.2.1.bmp,mem3.2.3.bmp,mem1.2.2.bmp,ACC027,"[0, 0, -3]","[3, 0, 3]","[-3, 0, 0]",non-match,0.9462544851682343,3,-0.39104820327142753,-0.5981657420322316,1.9274388277094798,2nd,2nd,4th,-0.3603747578095439,-0.29937979986083546,1.2032385050117962
mem,resp,1168,1,mem2.1.3.bmp,mem2.3.1.bmp,mem2.3.1.bmp,ACC027,"[0, -3, 3]","[0, 3, -3]","[0, 3, -3]",match,1.1835034190722742,,-1.5930269583182384,-0.7901220988395119,1.298852423657908,1st,1st,4th,-1.2029122982919065,-1.204937648703112,1.2032385050117962
mem,resp,1003,1,mem2.1.1.bmp,mem2.3.2.bmp,mem3.1.3.bmp,ACC027,"[0, -3, -3]","[0, 3, 0]","[3, -3, 3]",non-match,0.6473959944455496,1,-1.1873314759519824,-0.5867096604542067,1.2159260859694165,1st,2nd,4th,-1.2029122982919065,-0.29937979986083546,1.2032385050117962
mem,resp,757,1,mem3.2.1.bmp,mem2.1.2.bmp,mem2.1.2.bmp,ACC027,"[3, 0, -3]","[0, -3, 0]","[0, -3, 0]",match,1.5,,1.933859348320867,3.5867801500548087,1.6595533778839988,4th,4th,4th,1.333623595482457,1.2704271452119333,1.2032385050117962
mem,resp,860,0,mem3.1.1.bmp,mem2.2.3.bmp,mem2.2.3.bmp,ACC027,"[3, -3, -3]","[0, 0, 3]","[0, 0, 3]",match,1.2928932188134525,,0.8476429981995472,2.1508619071562243,1.3186669260262853,4th,4th,4th,1.333623595482457,1.2704271452119333,1.2032385050117962
mem,resp,996,1,mem3.1.2.bmp,mem1.2.2.bmp,mem3.1.2.bmp,ACC027,"[3, -3, 0]","[-3, 0, 0]","[3, -3, 0]",match,1.3545027756320973,,1.0851681114808627,1.1623802418176081,1.3802247504842258,4th,4th,4th,1.333623595482457,1.2704271452119333,1.2032385050117962
mem,resp,929,1,mem2.3.2.bmp,mem3.2.2.bmp,mem2.3.2.bmp,ACC027,"[0, 3, 0]","[3, 0, 0]","[0, 3, 0]",match,1.591751709536137,,-0.5012715078057394,-0.2694919544801259,0.9780484364434664,2nd,2nd,4th,-0.3603747578095439,-0.29937979986083546,1.2032385050117962
mem,resp,1034,0,mem1.3.3.bmp,mem3.2.1.bmp,mem2.2.1.bmp,ACC027,"[-3, 3, 3]","[3, 0, -3]","[0, 0, -3]",non-match,1.0042180842186395,3,-0.17761728881545488,2.3646140303632572,0.8763377039702964,2nd,4th,4th,-0.3603747578095439,1.2704271452119333,1.2032385050117962
mem,resp,1151,0,mem2.2.3.bmp,mem1.1.2.bmp,mem1.1.2.bmp,ACC027,"[0, 0, 3]","[-3, -3, 0]","[-3, -3, 0]",match,1.5,,-0.2919332817849594,1.1787336209588772,0.9116265844782331,2nd,4th,4th,-0.3603747578095439,1.2704271452119333,1.2032385050117962
mem,resp,524,0,mem1.1.3.bmp,mem2.3.3.bmp,mem1.2.3.bmp,ACC027,"[-3, -3, 3]","[0, 3, 3]","[-3, 0, 3]",non-match,1.3030765749413242,4,-1.1122072651379549,0.17080868158943877,0.7310671596757924,1st,3rd,4th,-1.2029122982919065,0.23303979041033993,1.2032385050117962
mem,resp,837,1,mem1.2.2.bmp,mem3.3.1.bmp,mem1.2.2.bmp,ACC027,"[-3, 0, 0]","[3, 3, -3]","[-3, 0, 0]",match,1.2928932188134525,,-0.39242203069526066,0.8063545460224113,1.010189297163909,2nd,4th,4th,-0.3603747578095439,1.2704271452119333,1.2032385050117962
mem,resp,776,1,mem3.2.1.bmp,mem3.1.2.bmp,mem1.2.2.bmp,ACC027,"[3, 0, -3]","[3, -3, 0]","[-3, 0, 0]",non-match,0.7090055512641944,2,-0.3771916782458602,-0.08227199319266376,1.731625228148732,2nd,2nd,4th,-0.3603747578095439,-0.29937979986083546,1.2032385050117962
mem,resp,790,1,mem2.3.2.bmp,mem3.3.3.bmp,mem3.3.3.bmp,ACC027,"[0, 3, 0]","[3, 3, 3]","[3, 3, 3]",match,1.591751709536137,,-0.7388299268208541,0.9005518519745699,0.9863214531198142,1st,4th,4th,-1.2029122982919065,1.2704271452119333,1.2032385050117962
mem,resp,801,1,mem2.2.3.bmp,mem1.2.1.bmp,mem2.2.3.bmp,ACC027,"[0, 0, 3]","[-3, 0, -3]","[0, 0, 3]",match,1.3545027756320973,,-0.41214956106672235,0.27837940953015994,0.4702439645517861,2nd,3rd,3rd,-0.3603747578095439,0.23303979041033993,0.38519590988889485
mem,resp,1067,1,mem3.2.2.bmp,mem1.3.2.bmp,mem2.2.1.bmp,ACC027,"[3, 0, 0]","[-3, 3, 0]","[0, 0, -3]",non-match,1.091751709536137,4,0.11149090883911927,-0.2697815969296775,-0.2643383325460281,3rd,2nd,2nd,0.22796591130483054,-0.29937979986083546,-0.24622678257412164
mem,resp,1164,1,mem1.1.2.bmp,mem2.3.3.bmp,mem2.3.3.bmp,ACC027,"[-3, -3, 0]","[0, 3, 3]","[0, 3, 3]",match,1.2928932188134525,,-1.2312818087201458,0.0006097975592883208,-0.035461761677632736,1st,3rd,2nd,-1.2029122982919065,0.23303979041033993,-0.24622678257412164
mem,resp,827,1,mem1.1.3.bmp,mem1.2.2.bmp,mem1.1.3.bmp,ACC027,"[-3, -3, 3]","[-3, 0, 0]","[-3, -3, 3]",match,1.591751709536137,,-0.47714691259552755,1.5913345150465183,0.3859002321152563,2nd,4th,3rd,-0.3603747578095439,1.2704271452119333,0.38519590988889485
mem,resp,853,1,mem1.2.1.bmp,mem1.2.3.bmp,mem1.2.3.bmp,ACC027,"[-3, 0, -3]","[-3, 0, 3]","[-3, 0, 3]",match,1.4226497308103743,,-1.248377224811616,0.1024002533360216,0.9605615491558136,1st,3rd,4th,-1.2029122982919065,0.23303979041033993,1.2032385050117962
mem,resp,624,1,mem3.3.2.bmp,mem3.1.3.bmp,mem3.1.3.bmp,ACC027,"[3, 3, 0]","[3, -3, 3]","[3, -3, 3]",match,1.3545027756320973,,-0.6285614558394091,0.09414484909666035,0.5467968950215661,2nd,3rd,3rd,-0.3603747578095439,0.23303979041033993,0.38519590988889485
mem,resp,1129,1,mem2.1.2.bmp,mem2.2.2.bmp,mem2.1.2.bmp,ACC027,"[0, -3, 0]","[0, 0, 0]","[0, -3, 0]",match,1.7113248654051871,,2.5952986466705417,1.7358277411787262,0.4825886489720948,4th,4th,3rd,1.333623595482457,1.2704271452119333,0.38519590988889485
mem,resp,745,0,mem2.3.1.bmp,mem3.1.1.bmp,mem2.3.1.bmp,ACC027,"[0, 3, -3]","[3, -3, -3]","[0, 3, -3]",match,1.3545027756320973,,0.2551589447898657,0.5367101274597244,0.5484434449300861,3rd,3rd,3rd,0.22796591130483054,0.23303979041033993,0.38519590988889485
mem,resp,706,1,mem1.3.1.bmp,mem3.2.2.bmp,mem1.3.1.bmp,ACC027,"[-3, 3, -3]","[3, 0, 0]","[-3, 3, -3]",match,1.2928932188134525,,-0.020621460078392762,0.04104905190428211,0.5797993202151562,3rd,3rd,3rd,0.22796591130483054,0.23303979041033993,0.38519590988889485
mem,resp,648,1,mem2.1.3.bmp,mem3.2.3.bmp,mem1.3.3.bmp,ACC027,"[0, -3, 3]","[3, 0, 3]","[-3, 3, 3]",non-match,0.7090055512641944,2,0.4717358241296445,-0.9701815906952814,0.6076791201805168,3rd,1st,3rd,0.22796591130483054,-1.204937648703112,0.38519590988889485
mem,resp,802,1,mem3.1.3.bmp,mem1.1.1.bmp,mem1.2.1.bmp,ACC027,"[3, -3, 3]","[-3, -3, -3]","[-3, 0, -3]",non-match,0.8452994616207485,2,0.011263765875379965,-1.0529429004499096,0.8457287782497993,3rd,1st,4th,0.22796591130483054,-1.204937648703112,1.2032385050117962
mem,resp,1087,1,mem3.1.1.bmp,mem2.1.1.bmp,mem2.1.1.bmp,ACC027,"[3, -3, -3]","[0, -3, -3]","[0, -3, -3]",match,1.7113248654051871,,0.7454405440611103,0.41437301572186175,0.8787083197645456,4th,3rd,4th,1.333623595482457,0.23303979041033993,1.2032385050117962
mem,resp,1153,1,mem3.3.3.bmp,mem2.2.1.bmp,mem2.2.1.bmp,ACC027,"[3, 3, 3]","[0, 0, -3]","[0, 0, -3]",match,1.2928932188134525,,-0.6020316299728821,-0.09380619501226671,0.561432262369836,2nd,2nd,3rd,-0.3603747578095439,-0.29937979986083546,0.38519590988889485
mem,resp,1131,1,mem3.1.2.bmp,mem1.3.3.bmp,mem2.1.2.bmp,ACC027,"[3, -3, 0]","[-3, 3, 3]","[0, -3, 0]",non-match,1.0042180842186395,3,-1.1423630813456267,-0.9863600518266741,0.5298819291607748,1st,1st,3rd,-1.2029122982919065,-1.204937648703112,0.38519590988889485
mem,resp,887,1,mem1.3.2.bmp,mem3.2.2.bmp,mem1.1.1.bmp,ACC027,"[-3, 3, 0]","[3, 0, 0]","[-3, -3, -3]",non-match,0.6473959944455496,1,1.5879504308209564,0.08426984987691676,0.5654638712128166,4th,3rd,3rd,1.333623595482457,0.23303979041033993,0.38519590988889485
mem,resp,770,1,mem3.3.1.bmp,mem2.3.1.bmp,mem3.3.1.bmp,ACC027,"[3, 3, -3]","[0, 3, -3]","[3, 3, -3]",match,1.7113248654051871,,-1.1996678685825457,1.6944354636863757,0.6428308125962822,1st,4th,4th,-1.2029122982919065,1.2704271452119333,1.2032385050117962
mem,resp,703,1,mem2.3.3.bmp,mem3.1.3.bmp,mem3.1.3.bmp,ACC027,"[0, 3, 3]","[3, -3, 3]","[3, -3, 3]",match,1.3545027756320973,,0.5810827869202538,0.5703043341894409,0.5697397256699729,3rd,4th,3rd,0.22796591130483054,1.2704271452119333,0.38519590988889485
mem,resp,886,1,mem3.2.3.bmp,mem3.1.1.bmp,mem3.2.3.bmp,ACC027,"[3, 0, 3]","[3, -3, -3]","[3, 0, 3]",match,1.3545027756320973,,-0.4080180141930242,-0.08143372577061994,0.4406904089317083,2nd,2nd,3rd,-0.3603747578095439,-0.29937979986083546,0.38519590988889485
mem,resp,538,1,mem2.1.1.bmp,mem3.2.1.bmp,mem1.2.1.bmp,ACC027,"[0, -3, -3]","[3, 0, -3]","[-3, 0, -3]",non-match,1.0144014403465114,3,1.7216933462049695,-0.33331084200506145,0.617257297678179,4th,2nd,3rd,1.333623595482457,-0.29937979986083546,0.38519590988889485
mem,resp,993,0,mem1.3.3.bmp,mem1.1.2.bmp,mem1.3.2.bmp,ACC027,"[-3, 3, 3]","[-3, -3, 0]","[-3, 3, 0]",non-match,1.1339745962155614,4,-0.5412279806690514,1.2339656641806642,0.25711562677169236,2nd,4th,3rd,-0.3603747578095439,1.2704271452119333,0.38519590988889485
mem,resp,686,0,mem1.2.3.bmp,mem3.3.1.bmp,mem1.1.3.bmp,ACC027,"[-3, 0, 3]","[3, 3, -3]","[-3, -3, 3]",non-match,0.7113248654051871,2,-0.0759955386698767,2.3155749168891258,0.12046143552766893,3rd,4th,3rd,0.22796591130483054,1.2704271452119333,0.38519590988889485
mem,resp,567,1,mem2.2.1.bmp,mem1.3.1.bmp,mem2.2.3.bmp,ACC027,"[0, 0, -3]","[-3, 3, -3]","[0, 0, 3]",non-match,0.7155429496238267,2,0.2426890794185453,0.8428935448461511,0.012758702288754375,3rd,4th,2nd,0.22796591130483054,1.2704271452119333,-0.24622678257412164
mem,resp,788,0,mem1.1.1.bmp,mem3.3.2.bmp,mem3.2.3.bmp,ACC027,"[-3, -3, -3]","[3, 3, 0]","[3, 0, 3]",non-match,0.7257263057516985,2,-0.626653571957171,-1.4535561386605054,0.18489946183723577,2nd,1st,3rd,-0.3603747578095439,-1.204937648703112,0.38519590988889485
mem,resp,671,1,mem2.2.2.bmp,mem2.1.3.bmp,mem2.1.3.bmp,ACC027,"[0, 0, 0]","[0, -3, 3]","[0, -3, 3]",match,1.591751709536137,,-0.333659673653091,0.6604037219506266,-0.05661471239805708,2nd,4th,2nd,-0.3603747578095439,1.2704271452119333,-0.24622678257412164
mem,resp,853,1,mem1.2.2.bmp,mem2.3.2.bmp,mem1.2.2.bmp,ACC027,"[-3, 0, 0]","[0, 3, 0]","[-3, 0, 0]",match,1.591751709536137,,-0.5508074295556751,0.2746676812719214,0.024598865506877073,2nd,3rd,2nd,-0.3603747578095439,0.23303979041033993,-0.24622678257412164
mem,resp,596,1,mem3.3.3.bmp,mem1.1.3.bmp,mem3.3.3.bmp,ACC027,"[3, 3, 3]","[-3, -3, 3]","[3, 3, 3]",match,1.1835034190722742,,1.5488028713200486,-0.5007419480889049,-0.5583867055765162,4th,2nd,2nd,1.333623595482457,-0.29937979986083546,-0.24622678257412164
mem,resp,597,1,mem3.3.1.bmp,mem3.2.3.bmp,mem3.2.3.bmp,ACC027,"[3, 3, -3]","[3, 0, 3]","[3, 0, 3]",match,1.3545027756320973,,-0.4139544047956547,0.4790774745556118,-0.5643207717294756,2nd,3rd,2nd,-0.3603747578095439,0.23303979041033993,-0.24622678257412164
mem,resp,803,1,mem1.1.2.bmp,mem2.2.1.bmp,mem3.1.3.bmp,ACC027,"[-3, -3, 0]","[0, 0, -3]","[3, -3, 3]",non-match,0.6473959944455496,1,1.9930294786557623,0.9020063213502064,-0.33806438116037496,4th,4th,2nd,1.333623595482457,1.2704271452119333,-0.24622678257412164
mem,resp,885,1,mem1.3.2.bmp,mem2.2.3.bmp,mem2.2.3.bmp,ACC027,"[-3, 3, 0]","[0, 0, 3]","[0, 0, 3]",match,1.5,,0.7307866964450516,-0.5480328200334491,-0.6208008462525787,4th,2nd,2nd,1.333623595482457,-0.29937979986083546,-0.24622678257412164
mem,resp,529,1,mem1.1.3.bmp,mem2.1.2.bmp,mem1.1.3.bmp,ACC027,"[-3, -3, 3]","[0, -3, 0]","[-3, -3, 3]",match,1.591751709536137,,0.8411880220350421,0.5585590794464557,-0.2896472313994644,4th,4th,2nd,1.333623595482457,1.2704271452119333,-0.24622678257412164
mem,resp,790,1,mem3.2.3.bmp,mem1.3.3.bmp,mem2.2.2.bmp,ACC027,"[3, 0, 3]","[-3, 3, 3]","[0, 0, 0]",non-match,1.091751709536137,4,2.4167591742395236,-0.3870508730839338,-0.17056556750400273,4th,2nd,2nd,1.333623595482457,-0.29937979986083546,-0.24622678257412164
mem,resp,683,1,mem1.2.1.bmp,mem1.2.3.bmp,mem1.2.3.bmp,ACC027,"[-3, 0, -3]","[-3, 0, 3]","[-3, 0, 3]",match,1.4226497308103743,,0.9807964372463771,0.6668782850241465,0.30361778810952916,4th,4th,3rd,1.333623595482457,1.2704271452119333,0.38519590988889485
mem,resp,655,1,mem1.3.1.bmp,mem1.3.2.bmp,mem1.3.2.bmp,ACC027,"[-3, 3, -3]","[-3, 3, 0]","[-3, 3, 0]",match,1.7113248654051871,,-0.9224559813097112,-0.14819246225855406,0.3329630231159277,1st,2nd,3rd,-1.2029122982919065,-0.29937979986083546,0.38519590988889485
mem,resp,668,1,mem3.1.2.bmp,mem3.3.3.bmp,mem1.1.2.bmp,ACC027,"[3, -3, 0]","[3, 3, 3]","[-3, -3, 0]",non-match,0.5566243270259357,1,1.4171663343211627,0.14425662200320924,0.5704460082713587,4th,3rd,3rd,1.333623595482457,0.23303979041033993,0.38519590988889485
mem,resp,797,1,mem3.2.1.bmp,mem3.2.2.bmp,mem3.2.2.bmp,ACC027,"[3, 0, -3]","[3, 0, 0]","[3, 0, 0]",match,1.7113248654051871,,0.26066084981319704,0.711431100379812,0.48235353337616316,3rd,4th,3rd,0.22796591130483054,1.2704271452119333,0.38519590988889485
mem,resp,538,1,mem2.1.1.bmp,mem2.1.3.bmp,mem2.3.1.bmp,ACC027,"[0, -3, -3]","[0, -3, 3]","[0, 3, -3]",non-match,0.6061531498826483,1,0.7140787459497856,-0.615391583799407,0.9571268477017395,4th,1st,4th,1.333623595482457,-1.204937648703112,1.2032385050117962
mem,resp,763,1,mem3.1.1.bmp,mem2.3.2.bmp,mem3.1.1.bmp,ACC027,"[3, -3, -3]","[0, 3, 0]","[3, -3, -3]",match,1.2928932188134525,,-0.08528148342035698,0.23534006826603568,0.947472959811409,2nd,3rd,4th,-0.3603747578095439,0.23303979041033993,1.2032385050117962
