mode,type,rt,acc,item_1,item_2,item_cue,subj_idx,item_1_number,item_2_number,item_cue_number,trial_type,summed_similarity,similarity_bin,ams,pams,slps,ams_quantile,pams_quantile,slps_quantile,ams_bin,pam_bin,slp_bin
mem,resp,1234,0,mem2.1.3.bmp,mem1.1.1.bmp,mem2.1.3.bmp,ACC015,"[0, -3, 3]","[-3, -3, -3]","[0, -3, 3]",match,1.3545027756320973,,-0.9898447079751692,-0.2731974715554659,-1.1658085847696968,1st,2nd,1st,-1.2718801764532661,-0.3843457589774647,-1.209324600757658
mem,resp,936,1,mem3.1.2.bmp,mem3.1.1.bmp,mem1.1.2.bmp,ACC015,"[3, -3, 0]","[3, -3, -3]","[-3, -3, 0]",non-match,0.7771525064424715,2,-1.2119512726398407,-1.1332024977988076,-1.6745648671170468,1st,1st,1st,-1.2718801764532661,-1.2024579749957074,-1.209324600757658
mem,resp,1188,0,mem2.2.2.bmp,mem3.3.2.bmp,mem1.2.1.bmp,ACC015,"[0, 0, 0]","[3, 3, 0]","[-3, 0, -3]",non-match,0.8846449283495895,2,-1.272280248633764,-1.2094900684972276,-1.7611146984149277,1st,1st,1st,-1.2718801764532661,-1.2024579749957074,-1.209324600757658
mem,resp,1090,0,mem3.3.3.bmp,mem1.1.3.bmp,mem3.3.1.bmp,ACC015,"[3, 3, 3]","[-3, -3, 3]","[3, 3, -3]",non-match,0.42264973081037427,1,-3.502087319520415,-0.20539550511676521,-1.7781230033953401,1st,2nd,1st,-1.2718801764532661,-0.3843457589774647,-1.209324600757658
mem,resp,1012,1,mem2.1.2.bmp,mem2.3.3.bmp,mem2.3.3.bmp,ACC015,"[0, -3, 0]","[0, 3, 3]","[0, 3, 3]",match,1.3545027756320973,,-1.0600164551810813,-0.9651440711847976,-1.964242524285253,1st,1st,1st,-1.2718801764532661,-1.2024579749957074,-1.209324600757658
mem,resp,1206,1,mem2.2.3.bmp,mem2.2.1.bmp,mem3.1.2.bmp,ACC015,"[0, 0, 3]","[0, 0, -3]","[3, -3, 0]",non-match,1.0,3,-0.2556907776051703,0.4807545913177036,-1.8257770863844458,2nd,3rd,1st,-0.3042535782081131,0.253852332995441,-1.209324600757658
mem,resp,1050,1,mem2.3.2.bmp,mem2.3.1.bmp,mem1.3.1.bmp,ACC015,"[0, 3, 0]","[0, 3, -3]","[-3, 3, -3]",non-match,1.3030765749413242,4,-2.4060476542241926,-1.2112003826833164,-1.4881570246412346,1st,1st,1st,-1.2718801764532661,-1.2024579749957074,-1.209324600757658
mem,resp,768,1,mem1.3.2.bmp,mem3.2.1.bmp,mem1.3.2.bmp,ACC015,"[-3, 3, 0]","[3, 0, -3]","[-3, 3, 0]",match,1.2928932188134525,,-0.11376415945635984,-1.3557110587034176,-1.1158375163073897,2nd,1st,1st,-0.3042535782081131,-1.2024579749957074,-1.209324600757658
mem,resp,825,1,mem3.3.1.bmp,mem2.1.3.bmp,mem1.1.1.bmp,ACC015,"[3, 3, -3]","[0, -3, 3]","[-3, -3, -3]",non-match,0.5380061947043713,1,-1.039466450059821,0.4829409200594046,-1.016752355488057,1st,3rd,1st,-1.2718801764532661,0.253852332995441,-1.209324600757658
mem,resp,1036,1,mem1.3.3.bmp,mem1.2.2.bmp,mem1.2.2.bmp,ACC015,"[-3, 3, 3]","[-3, 0, 0]","[-3, 0, 0]",match,1.591751709536137,,-2.368599631453813,-0.6281374193359991,-1.2145695356599915,1st,2nd,1st,-1.2718801764532661,-0.3843457589774647,-1.209324600757658
mem,resp,1004,1,mem1.2.1.bmp,mem2.3.2.bmp,mem2.3.1.bmp,ACC015,"[-3, 0, -3]","[0, 3, 0]","[0, 3, -3]",non-match,1.3030765749413242,4,-0.9454418120363015,0.25257647338869926,-1.1841832256136557,1st,3rd,1st,-1.2718801764532661,0.253852332995441,-1.209324600757658
mem,resp,911,1,mem1.1.3.bmp,mem1.1.2.bmp,mem1.1.3.bmp,ACC015,"[-3, -3, 3]","[-3, -3, 0]","[-3, -3, 3]",match,1.7113248654051871,,-0.6930882514229711,-0.8740147719969834,-1.1044509953979893,1st,1st,1st,-1.2718801764532661,-1.2024579749957074,-1.209324600757658
mem,resp,1021,1,mem3.3.2.bmp,mem3.2.2.bmp,mem3.2.2.bmp,ACC015,"[3, 3, 0]","[3, 0, 0]","[3, 0, 0]",match,1.7113248654051871,,1.2337781402644228,0.15239552603463238,-1.0443760097973436,4th,3rd,1st,1.2467389823999189,0.253852332995441,-1.209324600757658
mem,resp,1243,1,mem2.1.1.bmp,mem3.1.3.bmp,mem3.1.3.bmp,ACC015,"[0, -3, -3]","[3, -3, 3]","[3, -3, 3]",match,1.3545027756320973,,-0.04764867970565548,-0.8744065251923555,-0.7660931845998453,2nd,1st,1st,-0.3042535782081131,-1.2024579749957074,-1.209324600757658
mem,resp,992,1,mem1.3.1.bmp,mem1.3.2.bmp,mem1.3.1.bmp,ACC015,"[-3, 3, -3]","[-3, 3, 0]","[-3, 3, -3]",match,1.7113248654051871,,-2.5143916096845254,-2.5301490209949353,-0.8836902250364574,1st,1st,1st,-1.2718801764532661,-1.2024579749957074,-1.209324600757658
mem,resp,920,1,mem1.1.1.bmp,mem3.2.3.bmp,mem2.1.3.bmp,ACC015,"[-3, -3, -3]","[3, 0, 3]","[0, -3, 3]",non-match,0.9462544851682343,3,-0.5904548615191353,-0.6345526507773206,-1.1266730717589004,2nd,2nd,1st,-0.3042535782081131,-0.3843457589774647,-1.209324600757658
mem,resp,574,1,mem2.3.1.bmp,mem1.3.3.bmp,mem2.3.1.bmp,ACC015,"[0, 3, -3]","[-3, 3, 3]","[0, 3, -3]",match,1.3545027756320973,,-0.8271899502036434,-0.9011270148936891,-0.8358651397402103,1st,1st,1st,-1.2718801764532661,-1.2024579749957074,-1.209324600757658
mem,resp,731,1,mem3.2.1.bmp,mem2.1.1.bmp,mem3.2.1.bmp,ACC015,"[3, 0, -3]","[0, -3, -3]","[3, 0, -3]",match,1.591751709536137,,-1.1517313299332899,-1.3332678993148837,-1.3467144714880557,1st,1st,1st,-1.2718801764532661,-1.2024579749957074,-1.209324600757658
mem,resp,808,0,mem3.1.1.bmp,mem2.2.2.bmp,mem3.3.2.bmp,ACC015,"[3, -3, -3]","[0, 0, 0]","[3, 3, 0]",non-match,0.9462544851682343,3,-0.19780405736885875,-0.8739924052907581,-1.4596936679233283,2nd,1st,1st,-0.3042535782081131,-1.2024579749957074,-1.209324600757658
mem,resp,581,1,mem3.1.3.bmp,mem2.1.2.bmp,mem3.3.1.bmp,ACC015,"[3, -3, 3]","[0, -3, 0]","[3, 3, -3]",non-match,0.4763966378857265,1,0.3393202791499756,-1.9640117015594427,-1.4166426672838779,3rd,1st,1st,0.32972128127514033,-1.2024579749957074,-1.209324600757658
mem,resp,534,1,mem2.3.3.bmp,mem3.3.3.bmp,mem2.3.3.bmp,ACC015,"[0, 3, 3]","[3, 3, 3]","[0, 3, 3]",match,1.7113248654051871,,-0.21377372585822704,-0.8805925818539753,-1.4743121331045768,2nd,1st,1st,-0.3042535782081131,-1.2024579749957074,-1.209324600757658
mem,resp,731,1,mem1.2.3.bmp,mem2.2.3.bmp,mem3.1.2.bmp,ACC015,"[-3, 0, 3]","[0, 0, 3]","[3, -3, 0]",non-match,0.7928932188134524,2,-0.610880824491653,-1.201940994497495,-1.4377977050487147,2nd,1st,1st,-0.3042535782081131,-1.2024579749957074,-1.209324600757658
mem,resp,554,1,mem1.2.2.bmp,mem3.3.2.bmp,mem3.3.2.bmp,ACC015,"[-3, 0, 0]","[3, 3, 0]","[3, 3, 0]",match,1.3545027756320973,,-0.23004515756008598,0.026621290372243925,-1.6610704312401805,2nd,3rd,1st,-0.3042535782081131,0.253852332995441,-1.209324600757658
mem,resp,799,0,mem2.2.1.bmp,mem1.3.3.bmp,mem2.2.1.bmp,ACC015,"[0, 0, -3]","[-3, 3, 3]","[0, 0, -3]",match,1.2928932188134525,,-0.054689994689729605,-0.09936485807735462,-1.5857732006715222,2nd,2nd,1st,-0.3042535782081131,-0.3843457589774647,-1.209324600757658
mem,resp,794,1,mem3.2.2.bmp,mem2.3.3.bmp,mem1.1.1.bmp,ACC015,"[3, 0, 0]","[0, 3, 3]","[-3, -3, -3]",non-match,0.42686781502901383,1,-0.3737305970630441,-1.1803101016919637,-1.2337028057968717,2nd,1st,1st,-0.3042535782081131,-1.2024579749957074,-1.209324600757658
mem,resp,520,0,mem3.2.3.bmp,mem1.3.1.bmp,mem2.1.1.bmp,ACC015,"[3, 0, 3]","[-3, 3, -3]","[0, -3, -3]",non-match,0.6473959944455496,1,0.2305616611577089,1.355866849935936,-1.4576566046056432,3rd,4th,1st,0.32972128127514033,1.3312784083369367,-1.209324600757658
mem,resp,675,1,mem1.1.2.bmp,mem1.2.2.bmp,mem2.3.2.bmp,ACC015,"[-3, -3, 0]","[-3, 0, 0]","[0, 3, 0]",non-match,0.9462544851682343,3,-1.030774125340658,-0.695099526031033,-1.3598396453658483,1st,2nd,1st,-1.2718801764532661,-0.3843457589774647,-1.209324600757658
mem,resp,830,1,mem1.3.2.bmp,mem2.1.3.bmp,mem3.1.1.bmp,ACC015,"[-3, 3, 0]","[0, -3, 3]","[3, -3, -3]",non-match,0.4884773718476586,1,0.7438537729560156,-0.248909999245349,-1.3597744800548028,3rd,2nd,1st,0.32972128127514033,-0.3843457589774647,-1.209324600757658
mem,resp,1299,1,mem3.2.2.bmp,mem1.2.1.bmp,mem2.1.2.bmp,ACC015,"[3, 0, 0]","[-3, 0, -3]","[0, -3, 0]",non-match,1.091751709536137,4,-0.06398790224935709,-0.825797996929141,-1.281423447340328,2nd,1st,1st,-0.3042535782081131,-1.2024579749957074,-1.209324600757658
mem,resp,1207,1,mem1.1.1.bmp,mem2.1.1.bmp,mem2.2.3.bmp,ACC015,"[-3, -3, -3]","[0, -3, -3]","[0, 0, 3]",non-match,0.6473959944455496,1,-0.34107271576071907,-1.9814205217387444,-1.6657647732393055,2nd,1st,1st,-0.3042535782081131,-1.2024579749957074,-1.209324600757658
mem,resp,997,1,mem2.2.1.bmp,mem2.3.2.bmp,mem2.2.1.bmp,ACC015,"[0, 0, -3]","[0, 3, 0]","[0, 0, -3]",match,1.591751709536137,,-0.23514798009349794,-0.906399722404889,-1.4569608956316895,2nd,1st,1st,-0.3042535782081131,-1.2024579749957074,-1.209324600757658
mem,resp,1044,1,mem2.3.3.bmp,mem1.1.2.bmp,mem1.1.2.bmp,ACC015,"[0, 3, 3]","[-3, -3, 0]","[-3, -3, 0]",match,1.2928932188134525,,0.09108884540104475,-1.1261760440552335,-1.3321690678878833,3rd,1st,1st,0.32972128127514033,-1.2024579749957074,-1.209324600757658
mem,resp,770,1,mem2.2.2.bmp,mem1.3.2.bmp,mem1.3.2.bmp,ACC015,"[0, 0, 0]","[-3, 3, 0]","[-3, 3, 0]",match,1.591751709536137,,-0.642153726047884,-2.0882079677768197,-0.9209541818121665,2nd,1st,1st,-0.3042535782081131,-1.2024579749957074,-1.209324600757658
mem,resp,563,1,mem1.1.3.bmp,mem3.2.1.bmp,mem3.2.1.bmp,ACC015,"[-3, -3, 3]","[3, 0, -3]","[3, 0, -3]",match,1.1339745962155614,,0.6462949096836602,-0.152843417576517,-0.7192229299744799,3rd,2nd,1st,0.32972128127514033,-0.3843457589774647,-1.209324600757658
mem,resp,787,1,mem2.2.3.bmp,mem2.3.1.bmp,mem1.3.1.bmp,ACC015,"[0, 0, 3]","[0, 3, -3]","[-3, 3, -3]",non-match,1.0042180842186395,3,-0.22673284042062639,-0.826408413223962,-0.877659543971685,2nd,1st,1st,-0.3042535782081131,-1.2024579749957074,-1.209324600757658
mem,resp,693,1,mem2.3.2.bmp,mem3.3.3.bmp,mem2.1.1.bmp,ACC015,"[0, 3, 0]","[3, 3, 3]","[0, -3, -3]",non-match,0.4884773718476586,1,-0.57902232236557,-0.7773464721968625,-0.7877590098723624,2nd,1st,1st,-0.3042535782081131,-1.2024579749957074,-1.209324600757658
mem,resp,1062,1,mem3.3.1.bmp,mem3.2.3.bmp,mem3.2.2.bmp,ACC015,"[3, 3, -3]","[3, 0, 3]","[3, 0, 0]",non-match,1.3030765749413242,4,0.4127883554193945,-1.6324847416094461,-0.6749856233387408,3rd,1st,2nd,0.32972128127514033,-1.2024579749957074,-0.3039955996531794
mem,resp,1017,0,mem2.1.2.bmp,mem3.1.2.bmp,mem2.1.2.bmp,ACC015,"[0, -3, 0]","[3, -3, 0]","[0, -3, 0]",match,1.7113248654051871,,-2.4625905759962703,-2.523117591100011,-0.7259866307347506,1st,1st,1st,-1.2718801764532661,-1.2024579749957074,-1.209324600757658
mem,resp,684,1,mem1.1.3.bmp,mem1.1.1.bmp,mem1.3.3.bmp,ACC015,"[-3, -3, 3]","[-3, -3, -3]","[-3, 3, 3]",non-match,0.6061531498826483,1,1.5001249161225705,0.4280622249007245,-0.20818729568179234,4th,3rd,2nd,1.2467389823999189,0.253852332995441,-0.3039955996531794
mem,resp,620,1,mem2.3.3.bmp,mem1.3.1.bmp,mem3.1.3.bmp,ACC015,"[0, 3, 3]","[-3, 3, -3]","[3, -3, 3]",non-match,0.3545027756320972,1,0.3126312370128105,-0.04193797042385466,0.03048371378095401,3rd,3rd,3rd,0.32972128127514033,0.253852332995441,0.2301770448961853
mem,resp,623,1,mem2.1.2.bmp,mem2.2.2.bmp,mem1.2.1.bmp,ACC015,"[0, -3, 0]","[0, 0, 0]","[-3, 0, -3]",non-match,1.091751709536137,4,0.8440070267933051,-0.6550518713673688,0.09523618596736749,4th,2nd,3rd,1.2467389823999189,-0.3843457589774647,0.2301770448961853
mem,resp,596,0,mem2.3.2.bmp,mem2.2.1.bmp,mem1.2.3.bmp,ACC015,"[0, 3, 0]","[0, 0, -3]","[-3, 0, 3]",non-match,0.8545027756320972,2,0.02848585361330296,0.40903729265389505,0.16070820645245587,3rd,3rd,3rd,0.32972128127514033,0.253852332995441,0.2301770448961853
mem,resp,1010,1,mem3.3.2.bmp,mem1.3.3.bmp,mem3.2.1.bmp,ACC015,"[3, 3, 0]","[-3, 3, 3]","[3, 0, -3]",non-match,0.7257263057516985,2,-1.0373466761420331,-2.060633101802141,0.2755886488943382,1st,1st,3rd,-1.2718801764532661,-1.2024579749957074,0.2301770448961853
mem,resp,1160,1,mem1.2.2.bmp,mem3.3.1.bmp,mem2.1.3.bmp,ACC015,"[-3, 0, 0]","[3, 3, -3]","[0, -3, 3]",non-match,0.6339745962155614,1,0.5346227461366975,-0.9431049062295025,0.07673660260613135,3rd,1st,3rd,0.32972128127514033,-1.2024579749957074,0.2301770448961853
mem,resp,817,1,mem1.1.1.bmp,mem3.1.2.bmp,mem3.1.2.bmp,ACC015,"[-3, -3, -3]","[3, -3, 0]","[3, -3, 0]",match,1.3545027756320973,,-1.0911236411124865,0.2761089350291403,-0.30662443007955065,1st,3rd,2nd,-1.2718801764532661,0.253852332995441,-0.3039955996531794
mem,resp,780,1,mem1.3.1.bmp,mem2.2.3.bmp,mem2.2.2.bmp,ACC015,"[-3, 3, -3]","[0, 0, 3]","[0, 0, 0]",non-match,1.2113248654051871,4,-0.46968296076663635,-1.1569731850107337,-0.10702687356683394,2nd,1st,2nd,-0.3042535782081131,-1.2024579749957074,-0.3039955996531794
mem,resp,868,1,mem3.2.3.bmp,mem1.2.3.bmp,mem1.2.3.bmp,ACC015,"[3, 0, 3]","[-3, 0, 3]","[-3, 0, 3]",match,1.4226497308103743,,0.2044891702826838,0.7491482485416346,-0.1136168650618863,3rd,4th,2nd,0.32972128127514033,1.3312784083369367,-0.3039955996531794
mem,resp,1097,1,mem1.3.3.bmp,mem2.3.1.bmp,mem3.1.2.bmp,ACC015,"[-3, 3, 3]","[0, 3, -3]","[3, -3, 0]",non-match,0.42686781502901383,1,-0.4903657858016718,-1.235707038639348,-0.31956562659765564,2nd,1st,2nd,-0.3042535782081131,-1.2024579749957074,-0.3039955996531794
mem,resp,843,1,mem2.1.1.bmp,mem1.2.1.bmp,mem2.1.1.bmp,ACC015,"[0, -3, -3]","[-3, 0, -3]","[0, -3, -3]",match,1.591751709536137,,-1.0349841533985502,-1.4769401512920555,-0.3253931326855914,1st,1st,2nd,-1.2718801764532661,-1.2024579749957074,-0.3039955996531794
mem,resp,840,0,mem2.2.2.bmp,mem3.2.1.bmp,mem2.2.2.bmp,ACC015,"[0, 0, 0]","[3, 0, -3]","[0, 0, 0]",match,1.591751709536137,,-0.3660062812872594,-0.3391127089314988,-0.3858998274372429,2nd,2nd,2nd,-0.3042535782081131,-0.3843457589774647,-0.3039955996531794
mem,resp,856,1,mem1.2.3.bmp,mem1.1.2.bmp,mem1.3.2.bmp,ACC015,"[-3, 0, 3]","[-3, -3, 0]","[-3, 3, 0]",non-match,1.0144014403465114,3,-0.1378064467240364,0.14946414417340043,-0.5230173227589006,2nd,3rd,2nd,-0.3042535782081131,0.253852332995441,-0.3039955996531794
mem,resp,559,1,mem2.2.1.bmp,mem1.2.2.bmp,mem1.2.2.bmp,ACC015,"[0, 0, -3]","[-3, 0, 0]","[-3, 0, 0]",match,1.591751709536137,,-1.5637253262613897,-0.5135907832358818,-0.9692569172358929,1st,2nd,1st,-1.2718801764532661,-0.3843457589774647,-1.209324600757658
mem,resp,764,0,mem3.3.3.bmp,mem3.1.3.bmp,mem3.1.3.bmp,ACC015,"[3, 3, 3]","[3, -3, 3]","[3, -3, 3]",match,1.4226497308103743,,0.5404752448002437,-0.9699296059750059,-0.9228612863137737,3rd,1st,1st,0.32972128127514033,-1.2024579749957074,-1.209324600757658
mem,resp,608,1,mem2.2.3.bmp,mem3.1.1.bmp,mem3.1.1.bmp,ACC015,"[0, 0, 3]","[3, -3, -3]","[3, -3, -3]",match,1.2928932188134525,,0.8623051045565046,-0.4128485524566751,-0.8032058979186498,4th,2nd,1st,1.2467389823999189,-0.3843457589774647,-1.209324600757658
mem,resp,652,1,mem3.2.1.bmp,mem3.3.2.bmp,mem1.2.3.bmp,ACC015,"[3, 0, -3]","[3, 3, 0]","[-3, 0, 3]",non-match,0.4763966378857265,1,-0.29341859134871967,-0.5247440454044149,-0.8575754430413768,2nd,2nd,1st,-0.3042535782081131,-0.3843457589774647,-1.209324600757658
mem,resp,837,1,mem1.2.1.bmp,mem2.1.2.bmp,mem2.3.2.bmp,ACC015,"[-3, 0, -3]","[0, -3, 0]","[0, 3, 0]",non-match,0.9226497308103743,2,-1.1142303376812597,-1.305829122657474,-0.9188843610252286,1st,1st,1st,-1.2718801764532661,-1.2024579749957074,-1.209324600757658
mem,resp,592,1,mem1.3.2.bmp,mem2.1.1.bmp,mem2.1.1.bmp,ACC015,"[-3, 3, 0]","[0, -3, -3]","[0, -3, -3]",match,1.2928932188134525,,-0.1099717930554304,1.2351033609735855,-0.980170803025811,2nd,4th,1st,-0.3042535782081131,1.3312784083369367,-1.209324600757658
mem,resp,668,1,mem3.1.2.bmp,mem3.2.3.bmp,mem3.1.2.bmp,ACC015,"[3, -3, 0]","[3, 0, 3]","[3, -3, 0]",match,1.591751709536137,,0.7580580486593204,0.4330026474523606,-1.426364742409309,4th,3rd,1st,1.2467389823999189,0.253852332995441,-1.209324600757658
mem,resp,691,1,mem1.1.2.bmp,mem2.1.3.bmp,mem2.1.3.bmp,ACC015,"[-3, -3, 0]","[0, -3, 3]","[0, -3, 3]",match,1.591751709536137,,0.774103841834668,-0.06954218010658815,-1.6310134120326183,4th,2nd,1st,1.2467389823999189,-0.3843457589774647,-1.209324600757658
mem,resp,576,1,mem3.2.2.bmp,mem3.3.3.bmp,mem3.2.2.bmp,ACC015,"[3, 0, 0]","[3, 3, 3]","[3, 0, 0]",match,1.591751709536137,,0.23662915969326143,-0.5056019398272255,-1.7945315376926745,3rd,2nd,1st,0.32972128127514033,-0.3843457589774647,-1.209324600757658
mem,resp,1133,0,mem3.1.3.bmp,mem1.2.1.bmp,mem3.2.1.bmp,ACC015,"[3, -3, 3]","[-3, 0, -3]","[3, 0, -3]",non-match,0.7771525064424715,2,-1.353102631253635,-0.9051158617132827,-1.5243968853104124,1st,1st,1st,-1.2718801764532661,-1.2024579749957074,-1.209324600757658
mem,resp,841,1,mem3.1.1.bmp,mem1.2.2.bmp,mem3.3.2.bmp,ACC015,"[3, -3, -3]","[-3, 0, 0]","[3, 3, 0]",non-match,0.7090055512641944,2,0.34219650830322434,0.07865467854665194,-1.475494630437182,3rd,3rd,1st,0.32972128127514033,0.253852332995441,-1.209324600757658
mem,resp,1392,0,mem2.3.1.bmp,mem1.3.3.bmp,mem2.1.3.bmp,ACC015,"[0, 3, -3]","[-3, 3, 3]","[0, -3, 3]",non-match,0.5380061947043713,1,-0.5371920844220174,-2.3336567007983486,-1.4644905171193345,2nd,1st,1st,-0.3042535782081131,-1.2024579749957074,-1.209324600757658
mem,resp,698,0,mem2.3.3.bmp,mem3.1.2.bmp,mem1.3.1.bmp,ACC015,"[0, 3, 3]","[3, -3, 0]","[-3, 3, -3]",non-match,0.4884773718476586,1,0.26386866327410086,-0.20164864523667067,-1.4263414259226486,3rd,2nd,1st,0.32972128127514033,-0.3843457589774647,-1.209324600757658
mem,resp,821,0,mem1.3.2.bmp,mem2.2.2.bmp,mem2.2.3.bmp,ACC015,"[-3, 3, 0]","[0, 0, 0]","[0, 0, 3]",non-match,1.2113248654051871,4,1.019761895139298,0.6287978383879491,-1.5374135517524699,4th,4th,1st,1.2467389823999189,1.3312784083369367,-1.209324600757658
mem,resp,699,1,mem3.1.3.bmp,mem3.2.3.bmp,mem3.2.3.bmp,ACC015,"[3, -3, 3]","[3, 0, 3]","[3, 0, 3]",match,1.7113248654051871,,1.165324133539032,0.15217038129208874,-1.2884724744564326,4th,3rd,1st,1.2467389823999189,0.253852332995441,-1.209324600757658
mem,resp,671,1,mem3.2.2.bmp,mem2.1.3.bmp,mem3.2.2.bmp,ACC015,"[3, 0, 0]","[0, -3, 3]","[3, 0, 0]",match,1.5,,-1.2783527202546439,0.22773028680213045,-1.2719754397093566,1st,3rd,1st,-1.2718801764532661,0.253852332995441,-1.209324600757658
mem,resp,632,1,mem3.3.3.bmp,mem1.3.1.bmp,mem3.3.3.bmp,ACC015,"[3, 3, 3]","[-3, 3, -3]","[3, 3, 3]",match,1.1835034190722742,,-0.904333192678662,-0.2095372750546724,-1.5301151591880635,1st,2nd,1st,-1.2718801764532661,-0.3843457589774647,-1.209324600757658
mem,resp,919,0,mem1.2.3.bmp,mem3.3.1.bmp,mem3.3.1.bmp,ACC015,"[-3, 0, 3]","[3, 3, -3]","[3, 3, -3]",match,1.1339745962155614,,-0.6227129023242876,-0.920754269777381,-0.8860906675870001,2nd,1st,1st,-0.3042535782081131,-1.2024579749957074,-1.209324600757658
mem,resp,631,1,mem2.2.1.bmp,mem3.2.1.bmp,mem2.2.1.bmp,ACC015,"[0, 0, -3]","[3, 0, -3]","[0, 0, -3]",match,1.7113248654051871,,-0.13955882559954744,-0.5721451409515363,-0.9556446139289994,2nd,2nd,1st,-0.3042535782081131,-0.3843457589774647,-1.209324600757658
mem,resp,656,1,mem1.3.3.bmp,mem2.3.3.bmp,mem2.1.1.bmp,ACC015,"[-3, 3, 3]","[0, 3, 3]","[0, -3, -3]",non-match,0.3174780152878355,1,0.7486716939437412,-0.29593499157472775,-0.6102951188100162,4th,2nd,2nd,1.2467389823999189,-0.3843457589774647,-0.3039955996531794
mem,resp,801,1,mem2.3.2.bmp,mem3.1.1.bmp,mem3.2.2.bmp,ACC015,"[0, 3, 0]","[3, -3, -3]","[3, 0, 0]",non-match,1.1835034190722742,4,-0.8494114007739645,-0.5736393443950434,-0.7459026576457055,1st,2nd,1st,-1.2718801764532661,-0.3843457589774647,-1.209324600757658
mem,resp,1281,1,mem1.2.2.bmp,mem2.2.3.bmp,mem1.2.2.bmp,ACC015,"[-3, 0, 0]","[0, 0, 3]","[-3, 0, 0]",match,1.591751709536137,,-0.32155195817233717,0.039893747580158394,-0.6590789294100556,2nd,3rd,2nd,-0.3042535782081131,0.253852332995441,-0.3039955996531794
mem,resp,736,0,mem3.1.2.bmp,mem1.1.1.bmp,mem1.1.1.bmp,ACC015,"[3, -3, 0]","[-3, -3, -3]","[-3, -3, -3]",match,1.3545027756320973,,-0.8137728633914018,0.3103988420219419,0.05721953163670369,1st,3rd,3rd,-1.2718801764532661,0.253852332995441,0.2301770448961853
mem,resp,1428,1,mem2.2.2.bmp,mem1.3.2.bmp,mem1.3.2.bmp,ACC015,"[0, 0, 0]","[-3, 3, 0]","[-3, 3, 0]",match,1.591751709536137,,-1.2309625053424056,-0.1598992737995208,0.225778786547341,1st,2nd,3rd,-1.2718801764532661,-0.3843457589774647,0.2301770448961853
mem,resp,555,1,mem2.1.3.bmp,mem3.1.1.bmp,mem3.1.1.bmp,ACC015,"[0, -3, 3]","[3, -3, -3]","[3, -3, -3]",match,1.3545027756320973,,1.330450873936464,0.49961372111913616,-0.004834569285967852,4th,3rd,3rd,1.2467389823999189,0.253852332995441,0.2301770448961853
mem,resp,568,1,mem3.1.2.bmp,mem2.1.1.bmp,mem2.1.1.bmp,ACC015,"[3, -3, 0]","[0, -3, -3]","[0, -3, -3]",match,1.591751709536137,,0.790552875953464,-0.6663463191709939,0.5435027071074402,4th,2nd,4th,1.2467389823999189,-0.3843457589774647,1.2821967637869982
mem,resp,762,1,mem3.2.1.bmp,mem1.2.2.bmp,mem1.1.2.bmp,ACC015,"[3, 0, -3]","[-3, 0, 0]","[-3, -3, 0]",non-match,1.0042180842186395,3,0.9602445482832422,-0.24190119370616145,0.4607050813453897,4th,2nd,3rd,1.2467389823999189,-0.3843457589774647,0.2301770448961853
mem,resp,777,1,mem2.1.2.bmp,mem1.3.3.bmp,mem2.1.2.bmp,ACC015,"[0, -3, 0]","[-3, 3, 3]","[0, -3, 0]",match,1.2928932188134525,,-0.4554308267722337,-1.7887928665448967,0.42229463645296866,2nd,1st,3rd,-0.3042535782081131,-1.2024579749957074,0.2301770448961853
mem,resp,600,0,mem3.2.2.bmp,mem3.1.3.bmp,mem3.1.1.bmp,ACC015,"[3, 0, 0]","[3, -3, 3]","[3, -3, -3]",non-match,1.0144014403465114,3,0.4496504825299385,0.03316506320707449,0.2321505831715277,3rd,3rd,3rd,0.32972128127514033,0.253852332995441,0.2301770448961853
mem,resp,553,1,mem1.3.2.bmp,mem1.2.3.bmp,mem1.2.3.bmp,ACC015,"[-3, 3, 0]","[-3, 0, 3]","[-3, 0, 3]",match,1.591751709536137,,1.2838956044531205,0.6898554536841153,0.6629474136988515,4th,4th,4th,1.2467389823999189,1.3312784083369367,1.2821967637869982
mem,resp,879,0,mem2.1.1.bmp,mem3.3.2.bmp,mem3.3.2.bmp,ACC015,"[0, -3, -3]","[3, 3, 0]","[3, 3, 0]",match,1.2928932188134525,,-0.7870391974375336,-0.978501495009454,0.5886212451462413,1st,1st,4th,-1.2718801764532661,-1.2024579749957074,1.2821967637869982
mem,resp,886,0,mem2.3.2.bmp,mem3.2.3.bmp,mem3.1.2.bmp,ACC015,"[0, 3, 0]","[3, 0, 3]","[3, -3, 0]",non-match,0.9462544851682343,3,-0.05825638089910253,-0.35911539536007414,0.6322898544280984,2nd,2nd,4th,-0.3042535782081131,-0.3843457589774647,1.2821967637869982
mem,resp,590,1,mem1.1.2.bmp,mem1.1.3.bmp,mem1.1.3.bmp,ACC015,"[-3, -3, 0]","[-3, -3, 3]","[-3, -3, 3]",match,1.7113248654051871,,0.454361224608129,0.38587734078139824,0.9598953793090113,3rd,3rd,4th,0.32972128127514033,0.253852332995441,1.2821967637869982
mem,resp,491,0,mem2.3.3.bmp,mem2.1.3.bmp,mem2.3.3.bmp,ACC015,"[0, 3, 3]","[0, -3, 3]","[0, 3, 3]",match,1.4226497308103743,,0.4445985515196469,1.5746980691014223,0.7477037963253118,3rd,4th,4th,0.32972128127514033,1.3312784083369367,1.2821967637869982
mem,resp,583,0,mem3.3.2.bmp,mem1.3.2.bmp,mem1.2.1.bmp,ACC015,"[3, 3, 0]","[-3, 3, 0]","[-3, 0, -3]",non-match,0.8846449283495895,2,-0.8080063460565456,-0.3062551107281902,1.0056262657456552,1st,2nd,4th,-1.2718801764532661,-0.3843457589774647,1.2821967637869982
mem,resp,960,1,mem2.2.2.bmp,mem2.2.3.bmp,mem2.2.3.bmp,ACC015,"[0, 0, 0]","[0, 0, 3]","[0, 0, 3]",match,1.7113248654051871,,0.5651050936138561,1.0826998487841994,0.9722422895983046,3rd,4th,4th,0.32972128127514033,1.3312784083369367,1.2821967637869982
mem,resp,896,0,mem1.2.2.bmp,mem3.2.1.bmp,mem1.2.2.bmp,ACC015,"[-3, 0, 0]","[3, 0, -3]","[-3, 0, 0]",match,1.3545027756320973,,-0.8255711113654252,-0.09245952374219105,0.9631618502645959,1st,2nd,4th,-1.2718801764532661,-0.3843457589774647,1.2821967637869982
mem,resp,601,1,mem3.3.1.bmp,mem1.3.1.bmp,mem1.3.1.bmp,ACC015,"[3, 3, -3]","[-3, 3, -3]","[-3, 3, -3]",match,1.4226497308103743,,0.16803492655663374,1.6782544412442149,1.0266195059331107,3rd,4th,4th,0.32972128127514033,1.3312784083369367,1.2821967637869982
mem,resp,772,1,mem3.2.3.bmp,mem3.1.2.bmp,mem3.2.3.bmp,ACC015,"[3, 0, 3]","[3, -3, 0]","[3, 0, 3]",match,1.591751709536137,,0.17979814268006447,0.5267358711905215,0.7781689007142512,3rd,3rd,4th,0.32972128127514033,0.253852332995441,1.2821967637869982
mem,resp,706,1,mem3.1.1.bmp,mem3.3.3.bmp,mem3.1.1.bmp,ACC015,"[3, -3, -3]","[3, 3, 3]","[3, -3, -3]",match,1.1835034190722742,,0.18034141346317714,-0.22542371511400627,0.4293057570185942,3rd,2nd,3rd,0.32972128127514033,-0.3843457589774647,0.2301770448961853
mem,resp,681,1,mem1.2.1.bmp,mem1.1.1.bmp,mem1.2.3.bmp,ACC015,"[-3, 0, -3]","[-3, -3, -3]","[-3, 0, 3]",non-match,0.7771525064424715,2,-1.3960607784908623,0.2792221387334712,0.30585130644293723,1st,3rd,3rd,-1.2718801764532661,0.253852332995441,0.2301770448961853
mem,resp,766,1,mem2.3.1.bmp,mem1.1.2.bmp,mem1.1.2.bmp,ACC015,"[0, 3, -3]","[-3, -3, 0]","[-3, -3, 0]",match,1.2928932188134525,,-1.4334910064371487,0.05332807794724112,0.24608341893766236,1st,3rd,3rd,-1.2718801764532661,0.253852332995441,0.2301770448961853
mem,resp,719,1,mem3.1.3.bmp,mem3.3.1.bmp,mem3.1.3.bmp,ACC015,"[3, -3, 3]","[3, 3, -3]","[3, -3, 3]",match,1.1835034190722742,,0.2753549313289674,-0.40076737423257963,0.01047446312930219,3rd,2nd,3rd,0.32972128127514033,-0.3843457589774647,0.2301770448961853
mem,resp,1245,0,mem2.2.1.bmp,mem2.3.3.bmp,mem1.3.1.bmp,ACC015,"[0, 0, -3]","[0, 3, 3]","[-3, 3, -3]",non-match,0.9462544851682343,3,-1.5992038931675003,-1.1519909508235864,0.2533690621439542,1st,1st,3rd,-1.2718801764532661,-1.2024579749957074,0.2301770448961853
mem,resp,621,1,mem3.3.3.bmp,mem2.2.2.bmp,mem3.3.3.bmp,ACC015,"[3, 3, 3]","[0, 0, 0]","[3, 3, 3]",match,1.5,,-0.26717529032277004,-0.26734392654300043,0.611570333959556,2nd,2nd,4th,-0.3042535782081131,-0.3843457589774647,1.2821967637869982
mem,resp,594,1,mem1.1.1.bmp,mem1.2.1.bmp,mem3.2.3.bmp,ACC015,"[-3, -3, -3]","[-3, 0, -3]","[3, 0, 3]",non-match,0.3174780152878355,1,0.6640688346150131,-0.6274376873426707,0.4756235820325941,3rd,2nd,3rd,0.32972128127514033,-0.3843457589774647,0.2301770448961853
mem,resp,636,1,mem1.2.3.bmp,mem3.3.1.bmp,mem3.3.1.bmp,ACC015,"[-3, 0, 3]","[3, 3, -3]","[3, 3, -3]",match,1.1339745962155614,,-0.08818914893588048,-0.7552312067065725,0.5059251763069779,2nd,1st,3rd,-0.3042535782081131,-1.2024579749957074,0.2301770448961853
mem,resp,669,0,mem1.1.3.bmp,mem3.3.2.bmp,mem1.1.3.bmp,ACC015,"[-3, -3, 3]","[3, 3, 0]","[-3, -3, 3]",match,1.1339745962155614,,0.9375030643607095,1.818632725558711,0.757563761949027,4th,4th,4th,1.2467389823999189,1.3312784083369367,1.2821967637869982
mem,resp,602,1,mem1.3.1.bmp,mem1.2.2.bmp,mem1.2.2.bmp,ACC015,"[-3, 3, -3]","[-3, 0, 0]","[-3, 0, 0]",match,1.591751709536137,,-0.9799444748874648,0.1125451752734814,0.5452487972248655,1st,3rd,4th,-1.2718801764532661,0.253852332995441,1.2821967637869982
mem,resp,648,1,mem2.2.3.bmp,mem2.1.1.bmp,mem2.2.3.bmp,ACC015,"[0, 0, 3]","[0, -3, -3]","[0, 0, 3]",match,1.3545027756320973,,1.795426397070194,2.13469174801638,0.4899011619775959,4th,4th,3rd,1.2467389823999189,1.3312784083369367,0.2301770448961853
mem,resp,851,0,mem1.3.3.bmp,mem2.3.1.bmp,mem1.3.2.bmp,ACC015,"[-3, 3, 3]","[0, 3, -3]","[-3, 3, 0]",non-match,1.3030765749413242,4,-1.574490071988221,-1.1006722393636337,0.535205674987492,1st,1st,4th,-1.2718801764532661,-1.2024579749957074,1.2821967637869982
mem,resp,1030,0,mem2.3.2.bmp,mem3.2.1.bmp,mem2.3.3.bmp,ACC015,"[0, 3, 0]","[3, 0, -3]","[0, 3, 3]",non-match,1.0042180842186395,3,0.29994575317304173,0.13264797454178306,0.9371529217601322,3rd,3rd,4th,0.32972128127514033,0.253852332995441,1.2821967637869982
mem,resp,936,1,mem1.3.1.bmp,mem3.1.1.bmp,mem1.1.3.bmp,ACC015,"[-3, 3, -3]","[3, -3, -3]","[-3, -3, 3]",non-match,0.36700683814454815,1,-0.5072843653710637,-1.3257340135176896,1.38492212936937,2nd,1st,4th,-0.3042535782081131,-1.2024579749957074,1.2821967637869982
mem,resp,831,1,mem2.2.1.bmp,mem2.1.2.bmp,mem3.3.1.bmp,ACC015,"[0, 0, -3]","[0, -3, 0]","[3, 3, -3]",non-match,0.8846449283495895,2,-0.31174178374256006,-0.5032332519041386,1.400797611727346,2nd,2nd,4th,-0.3042535782081131,-0.3843457589774647,1.2821967637869982
mem,resp,835,1,mem3.2.2.bmp,mem1.1.2.bmp,mem2.3.1.bmp,ACC015,"[3, 0, 0]","[-3, -3, 0]","[0, 3, -3]",non-match,0.7928932188134524,2,-2.5963247351881837,-0.24512381291932384,1.2749173174820012,1st,2nd,4th,-1.2718801764532661,-0.3843457589774647,1.2821967637869982
mem,resp,800,0,mem3.3.2.bmp,mem1.2.3.bmp,mem1.2.3.bmp,ACC015,"[3, 3, 0]","[-3, 0, 3]","[-3, 0, 3]",match,1.2928932188134525,,0.22352486667428367,1.2105250375234324,1.6572881324538289,3rd,4th,4th,0.32972128127514033,1.3312784083369367,1.2821967637869982
mem,resp,463,1,mem2.2.2.bmp,mem3.3.3.bmp,mem2.2.2.bmp,ACC015,"[0, 0, 0]","[3, 3, 3]","[0, 0, 0]",match,1.5,,-1.0345321179740186,1.259011757913556,1.7679907698571204,1st,4th,4th,-1.2718801764532661,1.3312784083369367,1.2821967637869982
mem,resp,584,0,mem1.2.1.bmp,mem2.1.3.bmp,mem1.1.1.bmp,ACC015,"[-3, 0, -3]","[0, -3, 3]","[-3, -3, -3]",non-match,1.0658276410372842,4,-0.8375425279764455,0.5792883617344862,2.1693393321789975,1st,3rd,4th,-1.2718801764532661,0.253852332995441,1.2821967637869982
mem,resp,931,1,mem3.2.3.bmp,mem3.1.2.bmp,mem1.3.1.bmp,ACC015,"[3, 0, 3]","[3, -3, 0]","[-3, 3, -3]",non-match,0.2679491924311228,1,-1.3494632000074194,-0.2513560638818639,2.145212658760731,1st,2nd,4th,-1.2718801764532661,-0.3843457589774647,1.2821967637869982
mem,resp,502,1,mem3.2.1.bmp,mem3.1.3.bmp,mem3.1.3.bmp,ACC015,"[3, 0, -3]","[3, -3, 3]","[3, -3, 3]",match,1.3545027756320973,,-0.4743385087183346,-0.7113443035609733,2.4241046116924894,2nd,1st,4th,-0.3042535782081131,-1.2024579749957074,1.2821967637869982
mem,resp,707,1,mem1.2.2.bmp,mem2.2.3.bmp,mem2.2.1.bmp,ACC015,"[-3, 0, 0]","[0, 0, 3]","[0, 0, -3]",non-match,1.0144014403465114,3,-0.2646407226514069,1.5141816877955363,2.664452894141265,2nd,4th,4th,-0.3042535782081131,1.3312784083369367,1.2821967637869982
mem,resp,660,1,mem2.1.2.bmp,mem1.3.2.bmp,mem1.1.2.bmp,ACC015,"[0, -3, 0]","[-3, 3, 0]","[-3, -3, 0]",non-match,1.1339745962155614,4,0.8288723501341897,1.8998107043684582,2.6613573437781786,4th,4th,4th,1.2467389823999189,1.3312784083369367,1.2821967637869982
mem,resp,844,1,mem1.2.3.bmp,mem2.3.3.bmp,mem1.2.3.bmp,ACC015,"[-3, 0, 3]","[0, 3, 3]","[-3, 0, 3]",match,1.591751709536137,,0.030019856936976813,1.2268589796254872,2.673337727848429,3rd,4th,4th,0.32972128127514033,1.3312784083369367,1.2821967637869982
mem,resp,509,1,mem2.1.2.bmp,mem2.1.1.bmp,mem2.1.1.bmp,ACC015,"[0, -3, 0]","[0, -3, -3]","[0, -3, -3]",match,1.7113248654051871,,0.7209960838600366,0.7251260030519587,2.7359222499020697,3rd,4th,4th,0.32972128127514033,1.3312784083369367,1.2821967637869982
mem,resp,538,1,mem1.2.2.bmp,mem1.1.3.bmp,mem1.1.3.bmp,ACC015,"[-3, 0, 0]","[-3, -3, 3]","[-3, -3, 3]",match,1.591751709536137,,-0.04432913916726034,0.09566287944883442,2.673185878867791,2nd,3rd,4th,-0.3042535782081131,0.253852332995441,1.2821967637869982
mem,resp,791,0,mem1.2.3.bmp,mem3.1.2.bmp,mem1.2.3.bmp,ACC015,"[-3, 0, 3]","[3, -3, 0]","[-3, 0, 3]",match,1.2928932188134525,,-1.127262234276477,0.5247236064703914,2.767482109329921,1st,3rd,4th,-1.2718801764532661,0.253852332995441,1.2821967637869982
mem,resp,364,0,mem3.2.2.bmp,mem1.2.1.bmp,mem2.3.3.bmp,ACC015,"[3, 0, 0]","[-3, 0, -3]","[0, 3, 3]",non-match,0.7928932188134524,2,-0.35665408246947444,0.14631480446922232,3.2209846121392807,2nd,3rd,4th,-0.3042535782081131,0.253852332995441,1.2821967637869982
mem,resp,777,0,mem3.2.1.bmp,mem1.1.2.bmp,mem2.1.3.bmp,ACC015,"[3, 0, -3]","[-3, -3, 0]","[0, -3, 3]",non-match,0.8846449283495895,2,-1.0824702626938898,-0.2678448601617036,2.965117837551328,1st,2nd,4th,-1.2718801764532661,-0.3843457589774647,1.2821967637869982
mem,resp,703,1,mem1.3.1.bmp,mem1.3.2.bmp,mem3.2.3.bmp,ACC015,"[-3, 3, -3]","[-3, 3, 0]","[3, 0, 3]",non-match,0.42686781502901383,1,0.9916673777941912,0.4142573997842762,2.7527096552568717,4th,3rd,4th,1.2467389823999189,0.253852332995441,1.2821967637869982
mem,resp,635,1,mem3.3.2.bmp,mem3.3.1.bmp,mem3.3.2.bmp,ACC015,"[3, 3, 0]","[3, 3, -3]","[3, 3, 0]",match,1.7113248654051871,,-0.4772950805037546,0.038078148673324465,2.7912772780360533,2nd,3rd,4th,-0.3042535782081131,0.253852332995441,1.2821967637869982
mem,resp,668,0,mem3.1.3.bmp,mem3.3.3.bmp,mem2.2.3.bmp,ACC015,"[3, -3, 3]","[3, 3, 3]","[0, 0, 3]",non-match,1.1835034190722742,4,0.009926983807625881,0.1804306138568108,2.4110537369465486,3rd,3rd,4th,0.32972128127514033,0.253852332995441,1.2821967637869982
mem,resp,651,1,mem2.2.2.bmp,mem1.2.2.bmp,mem2.2.2.bmp,ACC015,"[0, 0, 0]","[-3, 0, 0]","[0, 0, 0]",match,1.7113248654051871,,-0.5508350233974901,-0.7391577393394776,2.232896453887266,2nd,1st,4th,-0.3042535782081131,-1.2024579749957074,1.2821967637869982
mem,resp,475,1,mem2.1.3.bmp,mem1.3.3.bmp,mem2.1.3.bmp,ACC015,"[0, -3, 3]","[-3, 3, 3]","[0, -3, 3]",match,1.3545027756320973,,1.884395816846341,0.09656695111788034,2.1103000986708094,4th,3rd,4th,1.2467389823999189,0.253852332995441,1.2821967637869982
mem,resp,688,1,mem2.3.1.bmp,mem2.3.2.bmp,mem2.3.1.bmp,ACC015,"[0, 3, -3]","[0, 3, 0]","[0, 3, -3]",match,1.7113248654051871,,-1.8330702307058928,-1.0757833511750146,1.8579146151603532,1st,1st,4th,-1.2718801764532661,-1.2024579749957074,1.2821967637869982
mem,resp,479,1,mem1.3.2.bmp,mem2.3.3.bmp,mem1.3.2.bmp,ACC015,"[-3, 3, 0]","[0, 3, 3]","[-3, 3, 0]",match,1.591751709536137,,0.6773419816766342,0.974711644779074,1.3957956999251475,3rd,4th,4th,0.32972128127514033,1.3312784083369367,1.2821967637869982
mem,resp,614,1,mem3.3.1.bmp,mem2.2.3.bmp,mem2.2.3.bmp,ACC015,"[3, 3, -3]","[0, 0, 3]","[0, 0, 3]",match,1.2928932188134525,,0.7143775152728071,-0.2593156223538411,1.0628483200931802,3rd,2nd,4th,0.32972128127514033,-0.3843457589774647,1.2821967637869982
mem,resp,647,1,mem1.2.1.bmp,mem2.2.2.bmp,mem1.1.1.bmp,ACC015,"[-3, 0, -3]","[0, 0, 0]","[-3, -3, -3]",non-match,1.2113248654051871,4,1.2448579760498033,1.1962156517548392,0.7333883725877514,4th,4th,4th,1.2467389823999189,1.3312784083369367,1.2821967637869982
mem,resp,641,1,mem1.1.3.bmp,mem3.3.2.bmp,mem3.3.2.bmp,ACC015,"[-3, -3, 3]","[3, 3, 0]","[3, 3, 0]",match,1.1339745962155614,,0.8037213783764598,1.1923792578825576,0.9461767316818801,4th,4th,4th,1.2467389823999189,1.3312784083369367,1.2821967637869982
mem,resp,816,1,mem2.1.1.bmp,mem3.2.1.bmp,mem3.2.1.bmp,ACC015,"[0, -3, -3]","[3, 0, -3]","[3, 0, -3]",match,1.591751709536137,,-0.1188056725575296,0.23184475323829365,0.9579600269959433,2nd,3rd,4th,-0.3042535782081131,0.253852332995441,1.2821967637869982
mem,resp,689,1,mem3.1.2.bmp,mem1.2.3.bmp,mem1.3.3.bmp,ACC015,"[3, -3, 0]","[-3, 0, 3]","[-3, 3, 3]",non-match,0.8452994616207485,2,-0.45133802789551536,-1.0001499814459522,1.163297267095781,2nd,1st,4th,-0.3042535782081131,-1.2024579749957074,1.2821967637869982
mem,resp,563,1,mem3.3.3.bmp,mem2.3.1.bmp,mem3.3.3.bmp,ACC015,"[3, 3, 3]","[0, 3, -3]","[3, 3, 3]",match,1.3545027756320973,,-0.6260161713852034,0.315847922430167,0.7598940395857441,2nd,3rd,4th,-0.3042535782081131,0.253852332995441,1.2821967637869982
mem,resp,663,1,mem3.2.3.bmp,mem3.1.3.bmp,mem3.2.3.bmp,ACC015,"[3, 0, 3]","[3, -3, 3]","[3, 0, 3]",match,1.7113248654051871,,-0.7670392086910237,-1.5893084305677252,0.8758988675248879,1st,1st,4th,-1.2718801764532661,-1.2024579749957074,1.2821967637869982
mem,resp,596,1,mem2.2.1.bmp,mem3.1.1.bmp,mem1.2.1.bmp,ACC015,"[0, 0, -3]","[3, -3, -3]","[-3, 0, -3]",non-match,1.0658276410372842,4,1.0874605176081258,1.5494360498474637,0.6867048323403767,4th,4th,4th,1.2467389823999189,1.3312784083369367,1.2821967637869982
mem,resp,597,1,mem1.1.1.bmp,mem2.2.2.bmp,mem1.1.1.bmp,ACC015,"[-3, -3, -3]","[0, 0, 0]","[-3, -3, -3]",match,1.5,,-0.8015637685828578,1.335983586941801,0.6289545727259548,1st,4th,4th,-1.2718801764532661,1.3312784083369367,1.2821967637869982
mem,resp,470,1,mem1.1.2.bmp,mem1.2.3.bmp,mem1.1.2.bmp,ACC015,"[-3, -3, 0]","[-3, 0, 3]","[-3, -3, 0]",match,1.591751709536137,,-1.8525319787270578,0.8169131890139485,0.7529263223258646,1st,4th,4th,-1.2718801764532661,1.3312784083369367,1.2821967637869982
mem,resp,441,1,mem2.3.2.bmp,mem2.2.3.bmp,mem2.3.2.bmp,ACC015,"[0, 3, 0]","[0, 0, 3]","[0, 3, 0]",match,1.591751709536137,,1.071560449505758,-0.4415207555698446,0.7517665486229465,4th,2nd,4th,1.2467389823999189,-0.3843457589774647,1.2821967637869982
mem,resp,554,0,mem1.3.3.bmp,mem2.1.2.bmp,mem1.2.2.bmp,ACC015,"[-3, 3, 3]","[0, -3, 0]","[-3, 0, 0]",non-match,1.1835034190722742,4,0.7730184079735408,0.1040239303726482,0.5226106797406925,4th,3rd,4th,1.2467389823999189,0.253852332995441,1.2821967637869982
mem,resp,680,1,mem3.1.1.bmp,mem3.2.2.bmp,mem3.1.1.bmp,ACC015,"[3, -3, -3]","[3, 0, 0]","[3, -3, -3]",match,1.591751709536137,,-1.4536924406501577,-0.7108273841282112,0.34224444179395735,1st,1st,3rd,-1.2718801764532661,-1.2024579749957074,0.2301770448961853
mem,resp,1047,1,mem2.3.3.bmp,mem2.3.1.bmp,mem1.1.1.bmp,ACC015,"[0, 3, 3]","[0, 3, -3]","[-3, -3, -3]",non-match,0.4884773718476586,1,0.7044539064904081,-0.5135784916225508,0.6195162329347531,3rd,2nd,4th,0.32972128127514033,-0.3843457589774647,1.2821967637869982
mem,resp,659,1,mem2.2.3.bmp,mem2.1.3.bmp,mem2.1.1.bmp,ACC015,"[0, 0, 3]","[0, -3, 3]","[0, -3, -3]",non-match,0.7771525064424715,2,-0.3079830098466505,0.3858112481720117,0.4606476884519032,2nd,3rd,3rd,-0.3042535782081131,0.253852332995441,0.2301770448961853
mem,resp,432,0,mem1.3.2.bmp,mem3.3.3.bmp,mem3.2.3.bmp,ACC015,"[-3, 3, 0]","[3, 3, 3]","[3, 0, 3]",non-match,1.0042180842186395,3,0.07643297109871441,0.1970166347830802,0.5435129109315933,3rd,3rd,4th,0.32972128127514033,0.253852332995441,1.2821967637869982
mem,resp,717,1,mem2.2.2.bmp,mem3.2.1.bmp,mem1.2.1.bmp,ACC015,"[0, 0, 0]","[3, 0, -3]","[-3, 0, -3]",non-match,1.0144014403465114,3,-0.19646600526882754,-0.5213034347646636,0.8947226647127325,2nd,2nd,4th,-0.3042535782081131,-0.3843457589774647,1.2821967637869982
mem,resp,550,1,mem3.1.2.bmp,mem3.1.3.bmp,mem3.1.3.bmp,ACC015,"[3, -3, 0]","[3, -3, 3]","[3, -3, 3]",match,1.7113248654051871,,0.17153219028657266,0.0875410112303303,0.9489374858161029,3rd,3rd,4th,0.32972128127514033,0.253852332995441,1.2821967637869982
mem,resp,501,1,mem2.1.2.bmp,mem3.3.2.bmp,mem2.1.2.bmp,ACC015,"[0, -3, 0]","[3, 3, 0]","[0, -3, 0]",match,1.3545027756320973,,-0.9501731719162824,1.3627409514831275,0.835426690155395,1st,4th,4th,-1.2718801764532661,1.3312784083369367,1.2821967637869982
mem,resp,592,0,mem3.1.1.bmp,mem1.3.3.bmp,mem1.3.2.bmp,ACC015,"[3, -3, -3]","[-3, 3, 3]","[-3, 3, 0]",non-match,0.8452994616207485,2,0.3463779450724071,0.9800773705854207,1.309073246329322,3rd,4th,4th,0.32972128127514033,1.3312784083369367,1.2821967637869982
mem,resp,645,0,mem3.2.1.bmp,mem2.1.1.bmp,mem3.2.2.bmp,ACC015,"[3, 0, -3]","[0, -3, -3]","[3, 0, 0]",non-match,1.2113248654051871,4,-1.919055509014825,-0.7016614676167165,1.2481869216701869,1st,1st,4th,-1.2718801764532661,-1.2024579749957074,1.2821967637869982
mem,resp,850,1,mem1.3.1.bmp,mem1.2.2.bmp,mem1.2.3.bmp,ACC015,"[-3, 3, -3]","[-3, 0, 0]","[-3, 0, 3]",non-match,1.0658276410372842,4,-1.2056443302500421,-0.20682882141554787,1.3253016903399906,1st,2nd,4th,-1.2718801764532661,-0.3843457589774647,1.2821967637869982
mem,resp,795,1,mem3.1.3.bmp,mem1.2.1.bmp,mem2.3.3.bmp,ACC015,"[3, -3, 3]","[-3, 0, -3]","[0, 3, 3]",non-match,0.6473959944455496,1,-2.1127691725440414,0.819713997671271,1.3613723034530276,1st,4th,4th,-1.2718801764532661,1.3312784083369367,1.2821967637869982
mem,resp,759,0,mem3.3.3.bmp,mem1.1.2.bmp,mem3.3.2.bmp,ACC015,"[3, 3, 3]","[-3, -3, 0]","[3, 3, 0]",non-match,0.8948282844774612,2,-0.3814341588122786,0.6483881176807194,1.115855734444016,2nd,4th,4th,-0.3042535782081131,1.3312784083369367,1.2821967637869982
mem,resp,976,1,mem2.3.2.bmp,mem1.1.3.bmp,mem3.1.1.bmp,ACC015,"[0, 3, 0]","[-3, -3, 3]","[3, -3, -3]",non-match,0.4763966378857265,1,-0.7438347105065702,-0.49488281341150653,1.1959729546490756,1st,2nd,4th,-1.2718801764532661,-0.3843457589774647,1.2821967637869982
mem,resp,820,1,mem1.2.3.bmp,mem2.2.1.bmp,mem1.3.3.bmp,ACC015,"[-3, 0, 3]","[0, 0, -3]","[-3, 3, 3]",non-match,1.0042180842186395,3,-1.8104568842036457,0.2371353860189352,1.471180200953268,1st,3rd,4th,-1.2718801764532661,0.253852332995441,1.2821967637869982
mem,resp,735,1,mem3.2.3.bmp,mem3.3.1.bmp,mem3.2.3.bmp,ACC015,"[3, 0, 3]","[3, 3, -3]","[3, 0, 3]",match,1.3545027756320973,,1.0142513759968166,1.1452702056947974,1.3399784368429835,4th,4th,4th,1.2467389823999189,1.3312784083369367,1.2821967637869982
mem,resp,758,1,mem1.1.1.bmp,mem1.3.2.bmp,mem3.2.2.bmp,ACC015,"[-3, -3, -3]","[-3, 3, 0]","[3, 0, 0]",non-match,0.6473959944455496,1,-0.26651880228903907,-1.2527587555469233,0.9275364168205316,2nd,1st,4th,-0.3042535782081131,-1.2024579749957074,1.2821967637869982
mem,resp,548,1,mem3.2.1.bmp,mem3.1.2.bmp,mem1.2.2.bmp,ACC015,"[3, 0, -3]","[3, -3, 0]","[-3, 0, 0]",non-match,0.7090055512641944,2,2.6429535516833793,0.7687421548678459,1.0245214670910106,4th,4th,4th,1.2467389823999189,1.3312784083369367,1.2821967637869982
mem,resp,390,1,mem2.3.2.bmp,mem3.3.3.bmp,mem3.3.3.bmp,ACC015,"[0, 3, 0]","[3, 3, 3]","[3, 3, 3]",match,1.591751709536137,,0.36738086936559394,0.2855130939039416,1.0599540202541455,3rd,3rd,4th,0.32972128127514033,0.253852332995441,1.2821967637869982
mem,resp,481,1,mem2.2.3.bmp,mem1.2.1.bmp,mem2.2.3.bmp,ACC015,"[0, 0, 3]","[-3, 0, -3]","[0, 0, 3]",match,1.3545027756320973,,-0.5452215654136928,-0.35919230190250045,1.1235784448545,2nd,2nd,4th,-0.3042535782081131,-0.3843457589774647,1.2821967637869982
mem,resp,434,0,mem3.2.2.bmp,mem1.3.2.bmp,mem2.2.1.bmp,ACC015,"[3, 0, 0]","[-3, 3, 0]","[0, 0, -3]",non-match,1.091751709536137,4,1.4462960172730661,0.006213719543890377,1.0700185727131184,4th,3rd,4th,1.2467389823999189,0.253852332995441,1.2821967637869982
mem,resp,505,1,mem1.1.2.bmp,mem2.3.3.bmp,mem2.3.3.bmp,ACC015,"[-3, -3, 0]","[0, 3, 3]","[0, 3, 3]",match,1.2928932188134525,,0.1387714639928346,-0.11577600897462194,0.9167628363939367,3rd,2nd,4th,0.32972128127514033,-0.3843457589774647,1.2821967637869982
mem,resp,516,1,mem1.1.3.bmp,mem1.2.2.bmp,mem1.1.3.bmp,ACC015,"[-3, -3, 3]","[-3, 0, 0]","[-3, -3, 3]",match,1.591751709536137,,0.7968535576728388,-0.7364558009270915,0.8778711128123813,4th,1st,4th,1.2467389823999189,-1.2024579749957074,1.2821967637869982
mem,resp,499,1,mem1.2.1.bmp,mem1.2.3.bmp,mem1.2.3.bmp,ACC015,"[-3, 0, -3]","[-3, 0, 3]","[-3, 0, 3]",match,1.4226497308103743,,0.09757198075562694,0.36817654441001996,0.8591180190296357,3rd,3rd,4th,0.32972128127514033,0.253852332995441,1.2821967637869982
mem,resp,742,1,mem3.3.2.bmp,mem3.1.3.bmp,mem3.1.3.bmp,ACC015,"[3, 3, 0]","[3, -3, 3]","[3, -3, 3]",match,1.3545027756320973,,0.20473703703125368,0.5138417673044305,0.9359260569576594,3rd,3rd,4th,0.32972128127514033,0.253852332995441,1.2821967637869982
mem,resp,807,1,mem2.1.2.bmp,mem2.2.2.bmp,mem2.1.2.bmp,ACC015,"[0, -3, 0]","[0, 0, 0]","[0, -3, 0]",match,1.7113248654051871,,-1.0041688129701825,-1.4399226983590947,0.35315637022431356,1st,1st,3rd,-1.2718801764532661,-1.2024579749957074,0.2301770448961853
mem,resp,601,0,mem2.3.1.bmp,mem3.1.1.bmp,mem2.3.1.bmp,ACC015,"[0, 3, -3]","[3, -3, -3]","[0, 3, -3]",match,1.3545027756320973,,0.5167276176005732,-0.36663376551421123,0.22668940668923623,3rd,2nd,3rd,0.32972128127514033,-0.3843457589774647,0.2301770448961853
mem,resp,470,1,mem1.3.1.bmp,mem3.2.2.bmp,mem1.3.1.bmp,ACC015,"[-3, 3, -3]","[3, 0, 0]","[-3, 3, -3]",match,1.2928932188134525,,1.7675581106485525,-0.4259638717990822,0.19029013536661854,4th,2nd,3rd,1.2467389823999189,-0.3843457589774647,0.2301770448961853
mem,resp,632,1,mem2.1.3.bmp,mem3.2.3.bmp,mem1.3.3.bmp,ACC015,"[0, -3, 3]","[3, 0, 3]","[-3, 3, 3]",non-match,0.7090055512641944,2,0.5660652158009548,-0.8142367270820328,-0.12356298462761148,3rd,1st,2nd,0.32972128127514033,-1.2024579749957074,-0.3039955996531794
mem,resp,1069,0,mem3.1.3.bmp,mem1.1.1.bmp,mem1.2.1.bmp,ACC015,"[3, -3, 3]","[-3, -3, -3]","[-3, 0, -3]",non-match,0.8452994616207485,2,-2.0216056052032125,0.8667999443126597,-0.29187877889234076,1st,4th,2nd,-1.2718801764532661,1.3312784083369367,-0.3039955996531794
mem,resp,451,1,mem3.1.1.bmp,mem2.1.1.bmp,mem2.1.1.bmp,ACC015,"[3, -3, -3]","[0, -3, -3]","[0, -3, -3]",match,1.7113248654051871,,0.286579288705641,1.3929110186568887,-0.5316284394535351,3rd,4th,2nd,0.32972128127514033,1.3312784083369367,-0.3039955996531794
mem,resp,452,1,mem3.3.3.bmp,mem2.2.1.bmp,mem2.2.1.bmp,ACC015,"[3, 3, 3]","[0, 0, -3]","[0, 0, -3]",match,1.2928932188134525,,0.7675555543080785,2.417833695639022,-0.6743821126295115,4th,4th,2nd,1.2467389823999189,1.3312784083369367,-0.3039955996531794
mem,resp,897,1,mem3.1.2.bmp,mem1.3.3.bmp,mem2.1.2.bmp,ACC015,"[3, -3, 0]","[-3, 3, 3]","[0, -3, 0]",non-match,1.0042180842186395,3,-1.1557824572829565,1.2687781499615487,-0.4955745263895329,1st,4th,2nd,-1.2718801764532661,1.3312784083369367,-0.3039955996531794
mem,resp,720,1,mem1.3.2.bmp,mem3.2.2.bmp,mem1.1.1.bmp,ACC015,"[-3, 3, 0]","[3, 0, 0]","[-3, -3, -3]",non-match,0.6473959944455496,1,-1.194767267470153,-0.8477989604905454,-0.6247707704008058,1st,1st,2nd,-1.2718801764532661,-1.2024579749957074,-0.3039955996531794
mem,resp,776,1,mem3.3.1.bmp,mem2.3.1.bmp,mem3.3.1.bmp,ACC015,"[3, 3, -3]","[0, 3, -3]","[3, 3, -3]",match,1.7113248654051871,,-0.17170544925966452,1.3993645186593866,-0.1694509444945531,2nd,4th,2nd,-0.3042535782081131,1.3312784083369367,-0.3039955996531794
mem,resp,597,0,mem2.3.3.bmp,mem3.1.3.bmp,mem3.1.3.bmp,ACC015,"[0, 3, 3]","[3, -3, 3]","[3, -3, 3]",match,1.3545027756320973,,0.21665998286879376,0.0011313053497305097,-0.3120733588147013,3rd,3rd,2nd,0.32972128127514033,0.253852332995441,-0.3039955996531794
mem,resp,498,1,mem3.2.3.bmp,mem3.1.1.bmp,mem3.2.3.bmp,ACC015,"[3, 0, 3]","[3, -3, -3]","[3, 0, 3]",match,1.3545027756320973,,-0.9101585248648,1.3490667667378748,0.20781441731862996,1st,4th,3rd,-1.2718801764532661,1.3312784083369367,0.2301770448961853
mem,resp,723,1,mem2.1.1.bmp,mem3.2.1.bmp,mem1.2.1.bmp,ACC015,"[0, -3, -3]","[3, 0, -3]","[-3, 0, -3]",non-match,1.0144014403465114,3,-0.7219599409196217,0.05645414418683308,0.13506702460639028,1st,3rd,3rd,-1.2718801764532661,0.253852332995441,0.2301770448961853
mem,resp,445,0,mem1.3.3.bmp,mem1.1.2.bmp,mem1.3.2.bmp,ACC015,"[-3, 3, 3]","[-3, -3, 0]","[-3, 3, 0]",non-match,1.1339745962155614,4,-0.43148928851200585,0.6334795997213462,-0.32762586325650106,2nd,4th,2nd,-0.3042535782081131,1.3312784083369367,-0.3039955996531794
mem,resp,416,0,mem1.2.3.bmp,mem3.3.1.bmp,mem1.1.3.bmp,ACC015,"[-3, 0, 3]","[3, 3, -3]","[-3, -3, 3]",non-match,0.7113248654051871,2,-0.05729727523950137,1.656640747461845,-0.22883991061529319,2nd,4th,2nd,-0.3042535782081131,1.3312784083369367,-0.3039955996531794
mem,resp,1103,1,mem2.2.1.bmp,mem1.3.1.bmp,mem2.2.3.bmp,ACC015,"[0, 0, -3]","[-3, 3, -3]","[0, 0, 3]",non-match,0.7155429496238267,2,-0.32833918441856885,-1.9969490609148308,0.05691204266665239,2nd,1st,3rd,-0.3042535782081131,-1.2024579749957074,0.2301770448961853
mem,resp,1197,1,mem1.1.1.bmp,mem3.3.2.bmp,mem3.2.3.bmp,ACC015,"[-3, -3, -3]","[3, 3, 0]","[3, 0, 3]",non-match,0.7257263057516985,2,-0.7244710026640128,-0.9044420646882456,-0.3247007001958203,1st,1st,2nd,-1.2718801764532661,-1.2024579749957074,-0.3039955996531794
mem,resp,895,1,mem2.2.2.bmp,mem2.1.3.bmp,mem2.1.3.bmp,ACC015,"[0, 0, 0]","[0, -3, 3]","[0, -3, 3]",match,1.591751709536137,,-2.5887105726128135,-0.8255190176068987,-0.5314353737210974,1st,1st,2nd,-1.2718801764532661,-1.2024579749957074,-0.3039955996531794
mem,resp,840,1,mem1.2.2.bmp,mem2.3.2.bmp,mem1.2.2.bmp,ACC015,"[-3, 0, 0]","[0, 3, 0]","[-3, 0, 0]",match,1.591751709536137,,-1.1282971642602364,-0.6929549249657364,-0.22632990904377953,1st,2nd,2nd,-1.2718801764532661,-0.3843457589774647,-0.3039955996531794
mem,resp,674,1,mem3.3.3.bmp,mem1.1.3.bmp,mem3.3.3.bmp,ACC015,"[3, 3, 3]","[-3, -3, 3]","[3, 3, 3]",match,1.1835034190722742,,0.11866253780124042,-1.4022798340347218,-0.3742392738268687,3rd,1st,2nd,0.32972128127514033,-1.2024579749957074,-0.3039955996531794
mem,resp,435,1,mem3.3.1.bmp,mem3.2.3.bmp,mem3.2.3.bmp,ACC015,"[3, 3, -3]","[3, 0, 3]","[3, 0, 3]",match,1.3545027756320973,,1.2841258628041818,1.3662435239441788,-0.01234568239910082,4th,4th,2nd,1.2467389823999189,1.3312784083369367,-0.3039955996531794
mem,resp,648,0,mem1.1.2.bmp,mem2.2.1.bmp,mem3.1.3.bmp,ACC015,"[-3, -3, 0]","[0, 0, -3]","[3, -3, 3]",non-match,0.6473959944455496,1,-0.3521660566401663,-1.120200791920605,-0.31476426229746923,2nd,1st,2nd,-0.3042535782081131,-1.2024579749957074,-0.3039955996531794
mem,resp,519,1,mem1.3.2.bmp,mem2.2.3.bmp,mem2.2.3.bmp,ACC015,"[-3, 3, 0]","[0, 0, 3]","[0, 0, 3]",match,1.5,,-0.3165843812978189,0.5318958635999669,-0.2591362107709484,2nd,3rd,2nd,-0.3042535782081131,0.253852332995441,-0.3039955996531794
mem,resp,704,1,mem1.1.3.bmp,mem2.1.2.bmp,mem1.1.3.bmp,ACC015,"[-3, -3, 3]","[0, -3, 0]","[-3, -3, 3]",match,1.591751709536137,,-0.10318421865133073,-1.1176050701750564,-0.1703480146225338,2nd,1st,2nd,-0.3042535782081131,-1.2024579749957074,-0.3039955996531794
mem,resp,748,0,mem3.2.3.bmp,mem1.3.3.bmp,mem2.2.2.bmp,ACC015,"[3, 0, 3]","[-3, 3, 3]","[0, 0, 0]",non-match,1.091751709536137,4,0.036338813715580155,-0.5378172172748809,-0.10821025092130777,3rd,2nd,2nd,0.32972128127514033,-0.3843457589774647,-0.3039955996531794
mem,resp,1225,1,mem1.2.1.bmp,mem1.2.3.bmp,mem1.2.3.bmp,ACC015,"[-3, 0, -3]","[-3, 0, 3]","[-3, 0, 3]",match,1.4226497308103743,,-0.8999841941219683,-0.29649049861327514,-0.2441189967673462,1st,2nd,2nd,-1.2718801764532661,-0.3843457589774647,-0.3039955996531794
mem,resp,487,1,mem1.3.1.bmp,mem1.3.2.bmp,mem1.3.2.bmp,ACC015,"[-3, 3, -3]","[-3, 3, 0]","[-3, 3, 0]",match,1.7113248654051871,,1.2899647912245538,0.9256779140120781,-0.11111995177763331,4th,4th,2nd,1.2467389823999189,1.3312784083369367,-0.3039955996531794
mem,resp,638,1,mem3.1.2.bmp,mem3.3.3.bmp,mem1.1.2.bmp,ACC015,"[3, -3, 0]","[3, 3, 3]","[-3, -3, 0]",non-match,0.5566243270259357,1,1.2673370526447474,0.7026482021356909,0.1300922775151081,4th,4th,3rd,1.2467389823999189,1.3312784083369367,0.2301770448961853
mem,resp,501,1,mem3.2.1.bmp,mem3.2.2.bmp,mem3.2.2.bmp,ACC015,"[3, 0, -3]","[3, 0, 0]","[3, 0, 0]",match,1.7113248654051871,,0.5089657260618372,0.17767279226250413,-0.00878365633049662,3rd,3rd,2nd,0.32972128127514033,0.253852332995441,-0.3039955996531794
mem,resp,611,1,mem2.1.1.bmp,mem2.1.3.bmp,mem2.3.1.bmp,ACC015,"[0, -3, -3]","[0, -3, 3]","[0, 3, -3]",non-match,0.6061531498826483,1,1.0945370249077302,0.7761836184795569,0.02734165929491873,4th,4th,3rd,1.2467389823999189,1.3312784083369367,0.2301770448961853
mem,resp,886,0,mem3.1.1.bmp,mem2.3.2.bmp,mem3.1.1.bmp,ACC015,"[3, -3, -3]","[0, 3, 0]","[3, -3, -3]",match,1.2928932188134525,,-2.3217297399600243,-0.14185179348165103,0.4241434935363202,1st,2nd,3rd,-1.2718801764532661,-0.3843457589774647,0.2301770448961853
mem,resp,822,1,mem3.1.3.bmp,mem3.1.2.bmp,mem3.3.1.bmp,ACC015,"[3, -3, 3]","[3, -3, 0]","[3, 3, -3]",non-match,0.5380061947043713,1,-0.8133801593742112,0.0053910546254298435,0.2707675032367899,1st,3rd,3rd,-1.2718801764532661,0.253852332995441,0.2301770448961853
mem,resp,514,1,mem2.3.2.bmp,mem2.2.1.bmp,mem2.3.2.bmp,ACC015,"[0, 3, 0]","[0, 0, -3]","[0, 3, 0]",match,1.591751709536137,,1.6554898694570184,0.6942544407436133,0.3236887445430657,4th,4th,3rd,1.2467389823999189,1.3312784083369367,0.2301770448961853
mem,resp,385,1,mem3.2.3.bmp,mem1.2.3.bmp,mem3.2.3.bmp,ACC015,"[3, 0, 3]","[-3, 0, 3]","[3, 0, 3]",match,1.4226497308103743,,1.4963534625461867,1.9149409415387908,0.5769633391774694,4th,4th,4th,1.2467389823999189,1.3312784083369367,1.2821967637869982
mem,resp,646,0,mem1.1.1.bmp,mem2.2.3.bmp,mem1.1.1.bmp,ACC015,"[-3, -3, -3]","[0, 0, 3]","[-3, -3, -3]",match,1.2928932188134525,,-0.00368968438460106,0.6955452616452275,0.3029141631607544,3rd,4th,3rd,0.32972128127514033,1.3312784083369367,0.2301770448961853
mem,resp,569,0,mem1.3.3.bmp,mem3.2.2.bmp,mem2.2.2.bmp,ACC015,"[-3, 3, 3]","[3, 0, 0]","[0, 0, 0]",non-match,1.2113248654051871,4,1.0588166218900654,-0.6398954053718682,0.42837150731868995,4th,2nd,3rd,1.2467389823999189,-0.3843457589774647,0.2301770448961853
mem,resp,1057,1,mem1.1.3.bmp,mem2.3.2.bmp,mem2.1.1.bmp,ACC015,"[-3, -3, 3]","[0, 3, 0]","[0, -3, -3]",non-match,0.7090055512641944,2,-0.35550651503449143,1.5279534666072916,0.3369366203035423,2nd,4th,3rd,-0.3042535782081131,1.3312784083369367,0.2301770448961853
mem,resp,1412,1,mem2.1.2.bmp,mem2.3.1.bmp,mem2.3.1.bmp,ACC015,"[0, -3, 0]","[0, 3, -3]","[0, 3, -3]",match,1.3545027756320973,,0.03069205637019815,0.29311582616924686,0.26920453831648716,3rd,3rd,3rd,0.32972128127514033,0.253852332995441,0.2301770448961853
mem,resp,828,1,mem2.1.3.bmp,mem3.1.3.bmp,mem3.3.3.bmp,ACC015,"[0, -3, 3]","[3, -3, 3]","[3, 3, 3]",non-match,0.7771525064424715,2,-0.3293126745971943,-0.3548861064485589,0.41680697843138304,2nd,2nd,3rd,-0.3042535782081131,-0.3843457589774647,0.2301770448961853
mem,resp,729,1,mem3.1.2.bmp,mem1.1.1.bmp,mem1.2.3.bmp,ACC015,"[3, -3, 0]","[-3, -3, -3]","[-3, 0, 3]",non-match,0.6473959944455496,1,-0.5570130949514952,-0.5270284383836196,0.41151053313366387,2nd,2nd,3rd,-0.3042535782081131,-0.3843457589774647,0.2301770448961853
mem,resp,700,0,mem1.1.2.bmp,mem3.2.1.bmp,mem2.2.1.bmp,ACC015,"[-3, -3, 0]","[3, 0, -3]","[0, 0, -3]",non-match,1.2113248654051871,4,-0.04488525962378658,-0.6954106448996081,0.29559842990169066,2nd,2nd,3rd,-0.3042535782081131,-0.3843457589774647,0.2301770448961853
mem,resp,523,1,mem2.2.2.bmp,mem1.3.3.bmp,mem1.3.3.bmp,ACC015,"[0, 0, 0]","[-3, 3, 3]","[-3, 3, 3]",match,1.5,,0.16405164666925948,1.7101417072508756,0.2561363582835022,3rd,4th,3rd,0.32972128127514033,1.3312784083369367,0.2301770448961853
mem,resp,586,1,mem1.3.1.bmp,mem1.1.3.bmp,mem2.1.1.bmp,ACC015,"[-3, 3, -3]","[-3, -3, 3]","[0, -3, -3]",non-match,0.7090055512641944,2,0.2910419311400904,-0.4689677938034271,0.34682815626072533,3rd,2nd,3rd,0.32972128127514033,-0.3843457589774647,0.2301770448961853
mem,resp,657,0,mem2.2.3.bmp,mem3.3.1.bmp,mem2.3.2.bmp,ACC015,"[0, 0, 3]","[3, 3, -3]","[0, 3, 0]",non-match,1.1835034190722742,4,-0.6803117236570939,0.42677576987269755,0.046404597237700476,2nd,3rd,3rd,-0.3042535782081131,0.253852332995441,0.2301770448961853
mem,resp,883,1,mem1.2.2.bmp,mem1.2.1.bmp,mem1.2.1.bmp,ACC015,"[-3, 0, 0]","[-3, 0, -3]","[-3, 0, -3]",match,1.7113248654051871,,1.2260846875144458,2.237216161977655,-0.024635095328362104,4th,4th,2nd,1.2467389823999189,1.3312784083369367,-0.3039955996531794
mem,resp,928,0,mem3.2.2.bmp,mem1.1.2.bmp,mem3.2.3.bmp,ACC015,"[3, 0, 0]","[-3, -3, 0]","[3, 0, 3]",non-match,1.0042180842186395,3,0.21930747933189035,-1.0037837819919515,0.0696929469424248,3rd,1st,3rd,0.32972128127514033,-1.2024579749957074,0.2301770448961853
mem,resp,629,1,mem1.3.2.bmp,mem2.3.3.bmp,mem3.3.2.bmp,ACC015,"[-3, 3, 0]","[0, 3, 3]","[3, 3, 0]",non-match,1.0144014403465114,3,0.042804964566273924,0.0047081648290558985,0.00026244898956859165,3rd,3rd,3rd,0.32972128127514033,0.253852332995441,0.2301770448961853
mem,resp,701,1,mem3.3.1.bmp,mem1.3.1.bmp,mem1.3.1.bmp,ACC015,"[3, 3, -3]","[-3, 3, -3]","[-3, 3, -3]",match,1.4226497308103743,,1.008634029543887,-0.02591024397850006,-0.1549548029152383,4th,3rd,2nd,1.2467389823999189,0.253852332995441,-0.3039955996531794
mem,resp,1178,1,mem3.3.3.bmp,mem3.1.2.bmp,mem3.1.2.bmp,ACC015,"[3, 3, 3]","[3, -3, 0]","[3, -3, 0]",match,1.3545027756320973,,-0.2660344869013491,2.2128310788092143,-0.2854089903745387,2nd,4th,2nd,-0.3042535782081131,1.3312784083369367,-0.3039955996531794
mem,resp,784,1,mem3.1.1.bmp,mem2.1.2.bmp,mem1.1.3.bmp,ACC015,"[3, -3, -3]","[0, -3, 0]","[-3, -3, 3]",non-match,0.7752551286084112,2,-0.810268880394063,-0.21365899555771992,-0.1549452842543856,1st,2nd,2nd,-1.2718801764532661,-0.3843457589774647,-0.3039955996531794
mem,resp,643,1,mem2.2.1.bmp,mem2.2.2.bmp,mem2.2.1.bmp,ACC015,"[0, 0, -3]","[0, 0, 0]","[0, 0, -3]",match,1.7113248654051871,,-0.02904260538932989,0.3168024367309703,-0.46743510324251164,2nd,3rd,2nd,-0.3042535782081131,0.253852332995441,-0.3039955996531794
mem,resp,456,1,mem3.2.1.bmp,mem3.3.2.bmp,mem3.2.1.bmp,ACC015,"[3, 0, -3]","[3, 3, 0]","[3, 0, -3]",match,1.591751709536137,,0.10406935081072229,-0.31073436269441246,-0.3728956877433131,3rd,2nd,2nd,0.32972128127514033,-0.3843457589774647,-0.3039955996531794
mem,resp,689,1,mem2.3.1.bmp,mem3.2.3.bmp,mem2.1.3.bmp,ACC015,"[0, 3, -3]","[3, 0, 3]","[0, -3, 3]",non-match,0.7752551286084112,2,1.0135731902456935,2.2535558132990157,-0.28733485967705547,4th,4th,2nd,1.2467389823999189,1.3312784083369367,-0.3039955996531794
mem,resp,622,1,mem1.2.3.bmp,mem2.1.1.bmp,mem2.1.1.bmp,ACC015,"[-3, 0, 3]","[0, -3, -3]","[0, -3, -3]",match,1.2928932188134525,,1.0457150388970409,1.2618077976935742,-0.15486816450420507,4th,4th,2nd,1.2467389823999189,1.3312784083369367,-0.3039955996531794
mem,resp,503,1,mem1.2.1.bmp,mem1.3.2.bmp,mem1.2.1.bmp,ACC015,"[-3, 0, -3]","[-3, 3, 0]","[-3, 0, -3]",match,1.591751709536137,,0.7788393264777719,1.136766625790173,0.33914813789375914,4th,4th,3rd,1.2467389823999189,1.3312784083369367,0.2301770448961853
mem,resp,458,0,mem3.3.2.bmp,mem2.2.1.bmp,mem3.3.3.bmp,ACC015,"[3, 3, 0]","[0, 0, -3]","[3, 3, 3]",non-match,1.0042180842186395,3,2.007356640667897,2.030933336677415,0.41955899216204257,4th,4th,3rd,1.2467389823999189,1.3312784083369367,0.2301770448961853
mem,resp,971,0,mem2.1.1.bmp,mem1.1.3.bmp,mem1.2.3.bmp,ACC015,"[0, -3, -3]","[-3, -3, 3]","[-3, 0, 3]",non-match,1.0042180842186395,3,-1.172644234590376,-0.2494881080756224,0.3710036131105144,1st,2nd,3rd,-1.2718801764532661,-0.3843457589774647,0.2301770448961853
mem,resp,563,1,mem3.1.3.bmp,mem3.1.1.bmp,mem3.1.3.bmp,ACC015,"[3, -3, 3]","[3, -3, -3]","[3, -3, 3]",match,1.4226497308103743,,2.513184453393645,2.3641431226017207,0.0920292652942305,4th,4th,3rd,1.2467389823999189,1.3312784083369367,0.2301770448961853
mem,resp,586,0,mem3.2.2.bmp,mem2.2.2.bmp,mem2.2.3.bmp,ACC015,"[3, 0, 0]","[0, 0, 0]","[0, 0, 3]",non-match,1.3030765749413242,4,1.4668140335883297,-0.20359485093105764,0.05436933242635892,4th,2nd,3rd,1.2467389823999189,-0.3843457589774647,0.2301770448961853
mem,resp,609,0,mem2.2.1.bmp,mem3.2.3.bmp,mem1.2.2.bmp,ACC015,"[0, 0, -3]","[3, 0, 3]","[-3, 0, 0]",non-match,0.9462544851682343,3,-0.9243944206426397,-1.2911983918010181,0.21760582864124,1st,1st,3rd,-1.2718801764532661,-1.2024579749957074,0.2301770448961853
mem,resp,884,0,mem2.1.3.bmp,mem2.3.1.bmp,mem2.3.1.bmp,ACC015,"[0, -3, 3]","[0, 3, -3]","[0, 3, -3]",match,1.1835034190722742,,0.35520612710816024,0.6103158864808352,0.04876292386553026,3rd,3rd,3rd,0.32972128127514033,0.253852332995441,0.2301770448961853
mem,resp,526,0,mem2.1.1.bmp,mem2.3.2.bmp,mem3.1.3.bmp,ACC015,"[0, -3, -3]","[0, 3, 0]","[3, -3, 3]",non-match,0.6473959944455496,1,1.8066542585147498,0.49480776747399596,-0.18579703244483492,4th,3rd,2nd,1.2467389823999189,0.253852332995441,-0.3039955996531794
mem,resp,1071,1,mem3.2.1.bmp,mem2.1.2.bmp,mem2.1.2.bmp,ACC015,"[3, 0, -3]","[0, -3, 0]","[0, -3, 0]",match,1.5,,-0.2838512510803018,0.06086313917193978,-0.22086982716336687,2nd,3rd,2nd,-0.3042535782081131,0.253852332995441,-0.3039955996531794
mem,resp,807,1,mem3.1.1.bmp,mem2.2.3.bmp,mem2.2.3.bmp,ACC015,"[3, -3, -3]","[0, 0, 3]","[0, 0, 3]",match,1.2928932188134525,,-1.3510677188545333,1.0032933399744102,-0.1692773764363146,1st,4th,2nd,-1.2718801764532661,1.3312784083369367,-0.3039955996531794
mem,resp,530,1,mem3.1.2.bmp,mem1.2.2.bmp,mem3.1.2.bmp,ACC015,"[3, -3, 0]","[-3, 0, 0]","[3, -3, 0]",match,1.3545027756320973,,1.0392438893044758,1.0912842309338366,0.030509674286443494,4th,4th,3rd,1.2467389823999189,1.3312784083369367,0.2301770448961853
mem,resp,496,1,mem2.3.2.bmp,mem3.2.2.bmp,mem2.3.2.bmp,ACC015,"[0, 3, 0]","[3, 0, 0]","[0, 3, 0]",match,1.591751709536137,,0.2623957491782588,0.42808150191179545,0.013075840072785491,3rd,3rd,3rd,0.32972128127514033,0.253852332995441,0.2301770448961853
mem,resp,841,1,mem1.3.3.bmp,mem3.2.1.bmp,mem2.2.1.bmp,ACC015,"[-3, 3, 3]","[3, 0, -3]","[0, 0, -3]",non-match,1.0042180842186395,3,1.283806961054381,0.7199770932446982,-0.10635216007807309,4th,4th,2nd,1.2467389823999189,1.3312784083369367,-0.3039955996531794
mem,resp,412,1,mem2.2.3.bmp,mem1.1.2.bmp,mem1.1.2.bmp,ACC015,"[0, 0, 3]","[-3, -3, 0]","[-3, -3, 0]",match,1.5,,0.4450179425028589,2.9304611388282717,0.49917344964928734,3rd,4th,3rd,0.32972128127514033,1.3312784083369367,0.2301770448961853
mem,resp,596,0,mem1.1.3.bmp,mem2.3.3.bmp,mem1.2.3.bmp,ACC015,"[-3, -3, 3]","[0, 3, 3]","[-3, 0, 3]",non-match,1.3030765749413242,4,0.626094127951619,-1.210176845600276,0.3959418502200926,3rd,1st,3rd,0.32972128127514033,-1.2024579749957074,0.2301770448961853
mem,resp,727,1,mem1.2.2.bmp,mem3.3.1.bmp,mem1.2.2.bmp,ACC015,"[-3, 0, 0]","[3, 3, -3]","[-3, 0, 0]",match,1.2928932188134525,,-1.036108874231006,-0.9405942098720711,0.12005542790480611,1st,1st,3rd,-1.2718801764532661,-1.2024579749957074,0.2301770448961853
mem,resp,708,1,mem1.2.1.bmp,mem1.3.3.bmp,mem2.2.1.bmp,ACC015,"[-3, 0, -3]","[-3, 3, 3]","[0, 0, -3]",non-match,1.0042180842186395,3,0.27116255201543527,1.2252270832457586,0.14905536797251936,3rd,4th,3rd,0.32972128127514033,1.3312784083369367,0.2301770448961853
mem,resp,707,0,mem2.3.1.bmp,mem3.1.1.bmp,mem2.2.1.bmp,ACC015,"[0, 3, -3]","[3, -3, -3]","[0, 0, -3]",non-match,1.3030765749413242,4,-0.1904389183151826,-0.38662419391309866,0.018734604830939142,2nd,2nd,3rd,-0.3042535782081131,-0.3843457589774647,0.2301770448961853
mem,resp,721,1,mem1.2.1.bmp,mem3.1.2.bmp,mem3.1.2.bmp,ACC015,"[-3, 0, -3]","[3, -3, 0]","[3, -3, 0]",match,1.2928932188134525,,0.6977496517911922,0.83997460647794,0.3712886379288193,3rd,4th,3rd,0.32972128127514033,1.3312784083369367,0.2301770448961853
mem,resp,614,1,mem1.2.3.bmp,mem3.3.3.bmp,mem3.2.1.bmp,ACC015,"[-3, 0, 3]","[3, 3, 3]","[3, 0, -3]",non-match,0.5380061947043713,1,0.7568581889183835,0.5154903883383631,0.5798123389441247,4th,3rd,4th,1.2467389823999189,0.253852332995441,1.2821967637869982
mem,resp,807,1,mem1.1.2.bmp,mem1.2.2.bmp,mem1.1.2.bmp,ACC015,"[-3, -3, 0]","[-3, 0, 0]","[-3, -3, 0]",match,1.7113248654051871,,-0.8869391393040578,-0.558793359178901,0.3338257221987574,1st,2nd,3rd,-1.2718801764532661,-0.3843457589774647,0.2301770448961853
mem,resp,546,1,mem3.2.2.bmp,mem1.3.2.bmp,mem1.3.2.bmp,ACC015,"[3, 0, 0]","[-3, 3, 0]","[-3, 3, 0]",match,1.3545027756320973,,-0.01563044044443922,0.7259312716433556,-0.05860159973227945,2nd,4th,2nd,-0.3042535782081131,1.3312784083369367,-0.3039955996531794
mem,resp,608,1,mem2.1.2.bmp,mem1.1.3.bmp,mem3.1.1.bmp,ACC015,"[0, -3, 0]","[-3, -3, 3]","[3, -3, -3]",non-match,0.7752551286084112,2,0.4701867977855522,1.4902837017848916,-0.284031385652866,3rd,4th,2nd,0.32972128127514033,1.3312784083369367,-0.3039955996531794
mem,resp,639,0,mem2.2.3.bmp,mem2.3.3.bmp,mem3.1.3.bmp,ACC015,"[0, 0, 3]","[0, 3, 3]","[3, -3, 3]",non-match,0.9462544851682343,3,-0.7773942901740053,0.001759722477189674,-0.13556202130805248,1st,3rd,2nd,-1.2718801764532661,0.253852332995441,-0.3039955996531794
mem,resp,802,0,mem3.2.1.bmp,mem3.3.1.bmp,mem3.3.3.bmp,ACC015,"[3, 0, -3]","[3, 3, -3]","[3, 3, 3]",non-match,0.7771525064424715,2,-0.4385919114325052,-1.1028759308487552,-0.13777702276290493,2nd,1st,2nd,-0.3042535782081131,-1.2024579749957074,-0.3039955996531794
mem,resp,643,0,mem2.1.1.bmp,mem1.2.1.bmp,mem2.2.2.bmp,ACC015,"[0, -3, -3]","[-3, 0, -3]","[0, 0, 0]",non-match,1.1835034190722742,4,-0.020896423058393693,1.5215339532514904,-0.12440421491394703,2nd,4th,2nd,-0.3042535782081131,1.3312784083369367,-0.3039955996531794
mem,resp,750,0,mem1.3.2.bmp,mem3.1.3.bmp,mem3.1.3.bmp,ACC015,"[-3, 3, 0]","[3, -3, 3]","[3, -3, 3]",match,1.1339745962155614,,-0.5318220347396221,-0.9724765726668569,0.13408576305198167,2nd,1st,3rd,-0.3042535782081131,-1.2024579749957074,0.2301770448961853
mem,resp,1036,1,mem3.1.2.bmp,mem2.1.3.bmp,mem3.2.2.bmp,ACC015,"[3, -3, 0]","[0, -3, 3]","[3, 0, 0]",non-match,1.2113248654051871,4,-0.8686506551479368,-1.9575987286181116,-0.10336884927742748,1st,1st,2nd,-1.2718801764532661,-1.2024579749957074,-0.3039955996531794
mem,resp,791,1,mem1.1.1.bmp,mem2.1.2.bmp,mem1.1.1.bmp,ACC015,"[-3, -3, -3]","[0, -3, 0]","[-3, -3, -3]",match,1.591751709536137,,0.8438615021506172,-0.5644571734003458,-0.09872860208467316,4th,2nd,2nd,1.2467389823999189,-0.3843457589774647,-0.3039955996531794
mem,resp,582,1,mem3.3.1.bmp,mem2.3.1.bmp,mem2.3.1.bmp,ACC015,"[3, 3, -3]","[0, 3, -3]","[0, 3, -3]",match,1.7113248654051871,,-0.7680068732512181,-0.814715159659939,-0.2665764244078784,1st,1st,2nd,-1.2718801764532661,-1.2024579749957074,-0.3039955996531794
mem,resp,574,1,mem3.1.3.bmp,mem1.2.3.bmp,mem3.1.3.bmp,ACC015,"[3, -3, 3]","[-3, 0, 3]","[3, -3, 3]",match,1.3545027756320973,,0.7731007828252302,0.02106662299048649,-0.41529268780879397,4th,3rd,2nd,1.2467389823999189,0.253852332995441,-0.3039955996531794
mem,resp,639,0,mem3.3.3.bmp,mem3.3.2.bmp,mem2.3.3.bmp,ACC015,"[3, 3, 3]","[3, 3, 0]","[0, 3, 3]",non-match,1.3030765749413242,4,-0.10895648488708964,-0.9014718349479957,-0.421016505326683,2nd,1st,2nd,-0.3042535782081131,-1.2024579749957074,-0.3039955996531794
mem,resp,922,1,mem2.1.3.bmp,mem2.2.1.bmp,mem1.3.3.bmp,ACC015,"[0, -3, 3]","[0, 0, -3]","[-3, 3, 3]",non-match,0.6473959944455496,1,-0.3493887538499244,0.014782854719614434,-0.6893459963216801,2nd,3rd,2nd,-0.3042535782081131,0.253852332995441,-0.3039955996531794
mem,resp,595,1,mem3.2.3.bmp,mem1.1.2.bmp,mem3.1.2.bmp,ACC015,"[3, 0, 3]","[-3, -3, 0]","[3, -3, 0]",non-match,1.0144014403465114,3,-0.36908769053924456,2.039949470141215,-0.7020762466119431,2nd,4th,1st,-0.3042535782081131,1.3312784083369367,-1.209324600757658
mem,resp,385,1,mem3.1.1.bmp,mem2.1.1.bmp,mem2.1.1.bmp,ACC015,"[3, -3, -3]","[0, -3, -3]","[0, -3, -3]",match,1.7113248654051871,,1.260520592935306,0.2546049254247463,-0.7887694611904809,4th,3rd,1st,1.2467389823999189,0.253852332995441,-1.209324600757658
mem,resp,777,0,mem1.3.1.bmp,mem3.3.2.bmp,mem3.1.3.bmp,ACC015,"[-3, 3, -3]","[3, 3, 0]","[3, -3, 3]",non-match,0.3545027756320972,1,-1.7133201869928285,-0.4617830099750196,-1.0243949954291418,1st,2nd,1st,-1.2718801764532661,-0.3843457589774647,-1.209324600757658
mem,resp,661,1,mem2.2.2.bmp,mem2.3.3.bmp,mem3.3.1.bmp,ACC015,"[0, 0, 0]","[0, 3, 3]","[3, 3, -3]",non-match,0.8545027756320972,2,0.3813415401901936,-0.9116589796670751,-1.1254849250379777,3rd,1st,1st,0.32972128127514033,-1.2024579749957074,-1.209324600757658
mem,resp,836,0,mem1.2.2.bmp,mem3.2.2.bmp,mem2.3.2.bmp,ACC015,"[-3, 0, 0]","[3, 0, 0]","[0, 3, 0]",non-match,1.1835034190722742,4,0.7045716281391077,1.041766895707916,-1.047371297744443,3rd,4th,1st,0.32972128127514033,1.3312784083369367,-1.209324600757658
mem,resp,829,1,mem1.3.3.bmp,mem2.1.3.bmp,mem1.1.2.bmp,ACC015,"[-3, 3, 3]","[0, -3, 3]","[-3, -3, 0]",non-match,0.9462544851682343,3,0.7494146519568909,-0.04625595373648244,-0.9265174989258794,4th,3rd,1st,1.2467389823999189,0.253852332995441,-1.209324600757658
mem,resp,1276,1,mem3.3.2.bmp,mem3.1.2.bmp,mem1.1.1.bmp,ACC015,"[3, 3, 0]","[3, -3, 0]","[-3, -3, -3]",non-match,0.4884773718476586,1,0.3951062029816225,1.2065897734062156,-0.6555553876333206,3rd,4th,2nd,0.32972128127514033,1.3312784083369367,-0.3039955996531794
mem,resp,596,1,mem1.1.3.bmp,mem2.2.3.bmp,mem1.1.3.bmp,ACC015,"[-3, -3, 3]","[0, 0, 3]","[-3, -3, 3]",match,1.591751709536137,,1.7932481043025017,1.2888727884046063,-0.7078053058028132,4th,4th,1st,1.2467389823999189,1.3312784083369367,-1.209324600757658
mem,resp,547,1,mem2.3.3.bmp,mem1.3.2.bmp,mem3.2.2.bmp,ACC015,"[0, 3, 3]","[-3, 3, 0]","[3, 0, 0]",non-match,0.8545027756320972,2,1.4872525134188295,2.8803836284374302,-0.8710592065295047,4th,4th,1st,1.2467389823999189,1.3312784083369367,-1.209324600757658
mem,resp,466,1,mem3.2.1.bmp,mem1.2.3.bmp,mem3.2.1.bmp,ACC015,"[3, 0, -3]","[-3, 0, 3]","[3, 0, -3]",match,1.1835034190722742,,-0.16057038661629375,-0.12358884051041572,-0.9139808731703558,2nd,2nd,1st,-0.3042535782081131,-0.3843457589774647,-1.209324600757658
mem,resp,599,0,mem2.1.1.bmp,mem2.3.2.bmp,mem2.1.2.bmp,ACC015,"[0, -3, -3]","[0, 3, 0]","[0, -3, 0]",non-match,1.1339745962155614,4,0.8829611456201143,-0.1951606212491884,-0.9018463643833162,4th,2nd,1st,1.2467389823999189,-0.3843457589774647,-1.209324600757658
mem,resp,662,1,mem3.3.3.bmp,mem1.1.3.bmp,mem3.3.3.bmp,ACC015,"[3, 3, 3]","[-3, -3, 3]","[3, 3, 3]",match,1.1835034190722742,,1.1836496230576035,1.14229335158097,-0.45548945925106166,4th,4th,2nd,1.2467389823999189,1.3312784083369367,-0.3039955996531794
mem,resp,636,0,mem1.3.3.bmp,mem3.3.1.bmp,mem3.2.2.bmp,ACC015,"[-3, 3, 3]","[3, 3, -3]","[3, 0, 0]",non-match,0.8846449283495895,2,1.450612885182433,0.27521843115185823,-0.49895595028907946,4th,3rd,2nd,1.2467389823999189,0.253852332995441,-0.3039955996531794
mem,resp,619,1,mem3.1.1.bmp,mem2.2.2.bmp,mem1.2.1.bmp,ACC015,"[3, -3, -3]","[0, 0, 0]","[-3, 0, -3]",non-match,0.9462544851682343,3,1.3154535361562305,-0.6534861347643128,-0.7178630146540376,4th,2nd,1st,1.2467389823999189,-0.3843457589774647,-1.209324600757658
mem,resp,872,1,mem1.3.1.bmp,mem1.2.2.bmp,mem1.2.2.bmp,ACC015,"[-3, 3, -3]","[-3, 0, 0]","[-3, 0, 0]",match,1.591751709536137,,0.0773075448579245,-1.524694429220586,-0.8445657651430225,3rd,1st,1st,0.32972128127514033,-1.2024579749957074,-1.209324600757658
mem,resp,847,1,mem2.3.2.bmp,mem3.3.3.bmp,mem2.3.2.bmp,ACC015,"[0, 3, 0]","[3, 3, 3]","[0, 3, 0]",match,1.591751709536137,,1.2433450534565,-0.45636821846627773,-0.7940719948111955,4th,2nd,1st,1.2467389823999189,-0.3843457589774647,-1.209324600757658
mem,resp,525,1,mem3.3.1.bmp,mem3.1.3.bmp,mem3.1.3.bmp,ACC015,"[3, 3, -3]","[3, -3, 3]","[3, -3, 3]",match,1.1835034190722742,,0.6783863485565913,-1.0562889195993124,-0.6032745097932827,3rd,1st,2nd,0.32972128127514033,-1.2024579749957074,-0.3039955996531794
mem,resp,598,1,mem2.2.2.bmp,mem2.1.2.bmp,mem2.1.2.bmp,ACC015,"[0, 0, 0]","[0, -3, 0]","[0, -3, 0]",match,1.7113248654051871,,-0.05523010413037027,-0.5842553018595249,-0.9669662241546277,2nd,2nd,1st,-0.3042535782081131,-0.3843457589774647,-1.209324600757658
mem,resp,710,1,mem1.1.3.bmp,mem1.1.1.bmp,mem1.1.3.bmp,ACC015,"[-3, -3, 3]","[-3, -3, -3]","[-3, -3, 3]",match,1.4226497308103743,,0.28347956434198257,0.5983595722413427,-1.5382802411857837,3rd,3rd,1st,0.32972128127514033,0.253852332995441,-1.209324600757658
mem,resp,673,1,mem2.2.1.bmp,mem2.1.1.bmp,mem2.2.1.bmp,ACC015,"[0, 0, -3]","[0, -3, -3]","[0, 0, -3]",match,1.7113248654051871,,1.6453840903400963,0.008911627919118871,-1.5073517395681433,4th,3rd,1st,1.2467389823999189,0.253852332995441,-1.209324600757658
mem,resp,557,1,mem1.2.2.bmp,mem1.1.2.bmp,mem3.3.2.bmp,ACC015,"[-3, 0, 0]","[-3, -3, 0]","[3, 3, 0]",non-match,0.5380061947043713,1,2.0216095645292333,1.485293844110787,-1.5332720303042056,4th,4th,1st,1.2467389823999189,1.3312784083369367,-1.209324600757658
mem,resp,548,0,mem3.1.2.bmp,mem3.2.3.bmp,mem3.2.1.bmp,ACC015,"[3, -3, 0]","[3, 0, 3]","[3, 0, -3]",non-match,1.0144014403465114,3,2.5615147638581837,-0.2428184637468992,-1.6439200848836384,4th,2nd,1st,1.2467389823999189,-0.3843457589774647,-1.209324600757658
mem,resp,521,0,mem1.1.1.bmp,mem1.2.3.bmp,mem2.1.3.bmp,ACC015,"[-3, -3, -3]","[-3, 0, 3]","[0, -3, 3]",non-match,0.9462544851682343,3,0.9124747345296296,-0.7004389558449252,-1.4016037436893358,4th,1st,1st,1.2467389823999189,-1.2024579749957074,-1.209324600757658
mem,resp,442,0,mem2.3.2.bmp,mem1.3.3.bmp,mem2.2.3.bmp,ACC015,"[0, 3, 0]","[-3, 3, 3]","[0, 0, 3]",non-match,1.1835034190722742,4,1.076924259236091,-0.5134075172961349,-1.1978907507712,4th,2nd,1st,1.2467389823999189,-0.3843457589774647,-1.209324600757658
mem,resp,1311,1,mem1.1.3.bmp,mem2.2.2.bmp,mem2.2.2.bmp,ACC015,"[-3, -3, 3]","[0, 0, 0]","[0, 0, 0]",match,1.5,,2.3256313704063576,-0.3037353299953325,-1.2508673298974797,4th,2nd,1st,1.2467389823999189,-0.3843457589774647,-1.209324600757658
mem,resp,612,1,mem2.1.2.bmp,mem1.2.1.bmp,mem3.3.1.bmp,ACC015,"[0, -3, 0]","[-3, 0, -3]","[3, 3, -3]",non-match,0.6473959944455496,1,0.9134130427381542,0.47895051160041224,-0.6964193736488532,4th,3rd,2nd,1.2467389823999189,0.253852332995441,-0.3039955996531794
mem,resp,786,0,mem3.2.2.bmp,mem1.1.1.bmp,mem1.1.1.bmp,ACC015,"[3, 0, 0]","[-3, -3, -3]","[-3, -3, -3]",match,1.2928932188134525,,1.1758383894985298,1.558577248797725,-0.5739131339483429,4th,4th,2nd,1.2467389823999189,1.3312784083369367,-0.3039955996531794
mem,resp,536,0,mem3.3.2.bmp,mem2.2.3.bmp,mem2.3.1.bmp,ACC015,"[3, 3, 0]","[0, 0, 3]","[0, 3, -3]",non-match,0.9462544851682343,3,0.39686608581646066,-1.6439982765060126,-0.4977749430320407,3rd,1st,2nd,0.32972128127514033,-1.2024579749957074,-0.3039955996531794
mem,resp,629,0,mem1.2.2.bmp,mem2.3.2.bmp,mem1.3.1.bmp,ACC015,"[-3, 0, 0]","[0, 3, 0]","[-3, 3, -3]",non-match,1.1835034190722742,4,0.579677666396975,0.24666232669247454,-0.4038598449481376,3rd,3rd,2nd,0.32972128127514033,0.253852332995441,-0.3039955996531794
mem,resp,862,1,mem3.3.3.bmp,mem3.2.1.bmp,mem3.1.2.bmp,ACC015,"[3, 3, 3]","[3, 0, -3]","[3, -3, 0]",non-match,0.9462544851682343,3,0.35247043963743613,-0.9200302736019984,-0.5658720539170106,3rd,1st,2nd,0.32972128127514033,-1.2024579749957074,-0.3039955996531794
mem,resp,726,0,mem1.3.2.bmp,mem2.3.1.bmp,mem2.3.3.bmp,ACC015,"[-3, 3, 0]","[0, 3, -3]","[0, 3, 3]",non-match,1.0144014403465114,3,1.0182756708502012,-0.15201040889601863,-0.31614924182709975,4th,2nd,2nd,1.2467389823999189,-0.3843457589774647,-0.3039955996531794
mem,resp,567,1,mem1.1.2.bmp,mem3.1.3.bmp,mem1.1.2.bmp,ACC015,"[-3, -3, 0]","[3, -3, 3]","[-3, -3, 0]",match,1.3545027756320973,,1.2527344026752025,-0.41842461261901126,-0.6100688977214224,4th,2nd,2nd,1.2467389823999189,-0.3843457589774647,-0.3039955996531794
mem,resp,1356,0,mem1.2.3.bmp,mem3.2.2.bmp,mem3.2.2.bmp,ACC015,"[-3, 0, 3]","[3, 0, 0]","[3, 0, 0]",match,1.3545027756320973,,-0.296981265861969,-1.086235055239632,0.029052094969546666,2nd,1st,3rd,-0.3042535782081131,-1.2024579749957074,0.2301770448961853
mem,resp,1002,1,mem3.1.2.bmp,mem3.1.1.bmp,mem3.3.1.bmp,ACC015,"[3, -3, 0]","[3, -3, -3]","[3, 3, -3]",non-match,0.7771525064424715,2,-1.2842754352109347,-0.2814425413682454,0.14248689335211406,1st,2nd,3rd,-1.2718801764532661,-0.3843457589774647,0.2301770448961853
mem,resp,696,1,mem2.2.3.bmp,mem2.3.3.bmp,mem2.3.3.bmp,ACC015,"[0, 0, 3]","[0, 3, 3]","[0, 3, 3]",match,1.7113248654051871,,-0.4704253353837082,-0.7656496251830402,0.2590238006749119,2nd,1st,3rd,-0.3042535782081131,-1.2024579749957074,0.2301770448961853
mem,resp,437,1,mem2.2.1.bmp,mem2.1.3.bmp,mem2.2.1.bmp,ACC015,"[0, 0, -3]","[0, -3, 3]","[0, 0, -3]",match,1.3545027756320973,,1.6335330473770358,1.1057777222332517,0.09574949412239181,4th,4th,3rd,1.2467389823999189,1.3312784083369367,0.2301770448961853
mem,resp,780,1,mem1.3.1.bmp,mem1.2.2.bmp,mem2.2.2.bmp,ACC015,"[-3, 3, -3]","[-3, 0, 0]","[0, 0, 0]",non-match,1.2113248654051871,4,-0.16286240533151358,1.37981077837018,-0.0035701425498250376,2nd,4th,3rd,-0.3042535782081131,1.3312784083369367,0.2301770448961853
mem,resp,773,1,mem1.3.3.bmp,mem2.1.2.bmp,mem3.1.3.bmp,ACC015,"[-3, 3, 3]","[0, -3, 0]","[3, -3, 3]",non-match,0.7752551286084112,2,-0.06464093489113468,-1.3213443878986726,-0.2110098297991397,2nd,1st,2nd,-0.3042535782081131,-1.2024579749957074,-0.3039955996531794
mem,resp,596,1,mem2.3.1.bmp,mem3.2.3.bmp,mem2.1.1.bmp,ACC015,"[0, 3, -3]","[3, 0, 3]","[0, -3, -3]",non-match,0.7155429496238267,2,0.12109818489118092,-1.4107083440023962,-0.2345628423429193,3rd,1st,2nd,0.32972128127514033,-1.2024579749957074,-0.3039955996531794
mem,resp,579,1,mem3.3.1.bmp,mem3.3.3.bmp,mem1.2.3.bmp,ACC015,"[3, 3, -3]","[3, 3, 3]","[-3, 0, 3]",non-match,0.4884773718476586,1,0.7750121049312668,-0.6909766972677673,0.13858540987697204,4th,2nd,3rd,1.2467389823999189,-0.3843457589774647,0.2301770448961853
mem,resp,792,0,mem3.1.1.bmp,mem2.2.1.bmp,mem3.2.1.bmp,ACC015,"[3, -3, -3]","[0, 0, -3]","[3, 0, -3]",non-match,1.4226497308103743,4,-0.883725582560689,-1.6838946242641812,0.33691820664559863,1st,1st,3rd,-1.2718801764532661,-1.2024579749957074,0.2301770448961853
mem,resp,767,1,mem1.2.1.bmp,mem3.1.2.bmp,mem3.3.2.bmp,ACC015,"[-3, 0, -3]","[3, -3, 0]","[3, 3, 0]",non-match,0.7155429496238267,2,0.25387526704260394,-0.42620349109175093,0.44054335826416896,3rd,2nd,3rd,0.32972128127514033,-0.3843457589774647,0.2301770448961853
mem,resp,769,1,mem2.1.3.bmp,mem1.3.1.bmp,mem2.1.3.bmp,ACC015,"[0, -3, 3]","[-3, 3, -3]","[0, -3, 3]",match,1.1339745962155614,,-1.0268339435734584,-0.5147068348594235,0.29743765267297284,1st,2nd,3rd,-1.2718801764532661,-0.3843457589774647,0.2301770448961853
mem,resp,682,1,mem2.1.1.bmp,mem1.3.2.bmp,mem1.1.2.bmp,ACC015,"[0, -3, -3]","[-3, 3, 0]","[-3, -3, 0]",non-match,1.0144014403465114,3,0.39666751752771906,1.0093064912501424,0.18977547942559625,3rd,4th,3rd,0.32972128127514033,1.3312784083369367,0.2301770448961853
mem,resp,585,1,mem3.2.1.bmp,mem3.3.3.bmp,mem1.1.1.bmp,ACC015,"[3, 0, -3]","[3, 3, 3]","[-3, -3, -3]",non-match,0.3545027756320972,1,0.8443744966042704,-0.15830294249770938,-0.0058037406114492965,4th,2nd,3rd,1.2467389823999189,-0.3843457589774647,0.2301770448961853
mem,resp,579,1,mem3.1.3.bmp,mem3.3.2.bmp,mem3.3.2.bmp,ACC015,"[3, -3, 3]","[3, 3, 0]","[3, 3, 0]",match,1.3545027756320973,,0.1110264868747167,0.027303306993900156,-0.1795013223513277,3rd,3rd,2nd,0.32972128127514033,0.253852332995441,-0.3039955996531794
mem,resp,742,1,mem2.3.3.bmp,mem3.2.2.bmp,mem3.2.3.bmp,ACC015,"[0, 3, 3]","[3, 0, 0]","[3, 0, 3]",non-match,1.3030765749413242,4,-0.7947451521744141,0.23905455688072189,-0.1406383084765708,1st,3rd,2nd,-1.2718801764532661,0.253852332995441,-0.3039955996531794
mem,resp,783,1,mem2.2.2.bmp,mem1.1.2.bmp,mem1.1.2.bmp,ACC015,"[0, 0, 0]","[-3, -3, 0]","[-3, -3, 0]",match,1.591751709536137,,0.6127683628000211,1.6064010280754042,-0.17089638632709558,3rd,4th,2nd,0.32972128127514033,1.3312784083369367,-0.3039955996531794
mem,resp,542,1,mem1.2.2.bmp,mem2.2.3.bmp,mem2.2.3.bmp,ACC015,"[-3, 0, 0]","[0, 0, 3]","[0, 0, 3]",match,1.591751709536137,,1.000975560747805,0.4112586491352249,-0.07401312054330089,4th,3rd,2nd,1.2467389823999189,0.253852332995441,-0.3039955996531794
mem,resp,653,1,mem1.3.3.bmp,mem1.3.1.bmp,mem3.2.1.bmp,ACC015,"[-3, 3, 3]","[-3, 3, -3]","[3, 0, -3]",non-match,0.4884773718476586,1,-0.2988728284566477,-0.4448968856150728,-0.19615248784558725,2nd,2nd,2nd,-0.3042535782081131,-0.3843457589774647,-0.3039955996531794
mem,resp,455,0,mem2.3.3.bmp,mem2.3.2.bmp,mem1.3.2.bmp,ACC015,"[0, 3, 3]","[0, 3, 0]","[-3, 3, 0]",non-match,1.3030765749413242,4,1.7091752022366227,2.19506452566488,-0.12676623865949382,4th,4th,2nd,1.2467389823999189,1.3312784083369367,-0.3039955996531794
mem,resp,1231,1,mem2.2.2.bmp,mem2.1.3.bmp,mem2.2.2.bmp,ACC015,"[0, 0, 0]","[0, -3, 3]","[0, 0, 0]",match,1.591751709536137,,-0.5715844206549845,0.3804332979196201,-0.10798005516350641,2nd,3rd,2nd,-0.3042535782081131,0.253852332995441,-0.3039955996531794
mem,resp,1178,0,mem1.1.1.bmp,mem3.2.3.bmp,mem2.1.2.bmp,ACC015,"[-3, -3, -3]","[3, 0, 3]","[0, -3, 0]",non-match,1.091751709536137,4,1.1506018412942296,0.12880684537584117,0.07853042750102865,4th,3rd,3rd,1.2467389823999189,0.253852332995441,0.2301770448961853
mem,resp,490,1,mem2.2.3.bmp,mem3.1.3.bmp,mem3.1.3.bmp,ACC015,"[0, 0, 3]","[3, -3, 3]","[3, -3, 3]",match,1.591751709536137,,1.3245927329570837,0.6903954786632486,0.5077206341994577,4th,4th,4th,1.2467389823999189,1.3312784083369367,1.2821967637869982
mem,resp,591,1,mem3.2.2.bmp,mem1.3.2.bmp,mem1.3.3.bmp,ACC015,"[3, 0, 0]","[-3, 3, 0]","[-3, 3, 3]",non-match,1.0042180842186395,3,0.09127024472830195,0.8818028994760944,0.5707933707480201,3rd,4th,4th,0.32972128127514033,1.3312784083369367,1.2821967637869982
mem,resp,412,1,mem3.1.2.bmp,mem2.3.1.bmp,mem3.1.2.bmp,ACC015,"[3, -3, 0]","[0, 3, -3]","[3, -3, 0]",match,1.2928932188134525,,0.5052298756708596,1.4238606293515224,0.37716886971956454,3rd,4th,3rd,0.32972128127514033,1.3312784083369367,0.2301770448961853
mem,resp,443,0,mem1.2.3.bmp,mem3.1.1.bmp,mem1.3.1.bmp,ACC015,"[-3, 0, 3]","[3, -3, -3]","[-3, 3, -3]",non-match,0.5380061947043713,1,1.436264981175837,0.32133347467466966,0.33900697219289805,4th,3rd,3rd,1.2467389823999189,0.253852332995441,0.2301770448961853
mem,resp,556,1,mem3.3.2.bmp,mem1.1.3.bmp,mem2.1.1.bmp,ACC015,"[3, 3, 0]","[-3, -3, 3]","[0, -3, -3]",non-match,0.6473959944455496,1,1.2652699897691964,0.9860504901587197,-0.07031707433978336,4th,4th,2nd,1.2467389823999189,1.3312784083369367,-0.3039955996531794
mem,resp,910,1,mem1.2.1.bmp,mem2.1.2.bmp,mem2.2.3.bmp,ACC015,"[-3, 0, -3]","[0, -3, 0]","[0, 0, 3]",non-match,0.9462544851682343,3,-0.00125536746240936,0.5960674886078955,0.025026287864972057,3rd,3rd,3rd,0.32972128127514033,0.253852332995441,0.2301770448961853
mem,resp,471,0,mem2.2.1.bmp,mem1.2.2.bmp,mem3.2.2.bmp,ACC015,"[0, 0, -3]","[-3, 0, 0]","[3, 0, 0]",non-match,1.0144014403465114,3,0.1305497765086179,0.6245367457665307,0.2973531422918316,3rd,3rd,3rd,0.32972128127514033,0.253852332995441,0.2301770448961853
mem,resp,562,1,mem3.1.1.bmp,mem3.3.1.bmp,mem3.1.1.bmp,ACC015,"[3, -3, -3]","[3, 3, -3]","[3, -3, -3]",match,1.4226497308103743,,-0.7951827282126837,0.37688068583052736,0.5234254377212789,1st,3rd,4th,-1.2718801764532661,0.253852332995441,1.2821967637869982
