mode,type,rt,acc,item_1,item_2,item_cue,subj_idx,item_1_number,item_2_number,item_cue_number,trial_type,summed_similarity,similarity_bin,ams,pams,slps,ams_quantile,pams_quantile,slps_quantile,ams_bin,pam_bin,slp_bin
mem,resp,1278,1,mem2.3.3.bmp,mem1.3.1.bmp,mem3.1.3.bmp,ACC022,"[0, 3, 3]","[-3, 3, -3]","[3, -3, 3]",non-match,0.3545027756320972,1,-0.9516807462362304,0.169071739363319,-1.6065745159814264,1st,3rd,1st,-1.1954797944843416,0.15780465576326086,-1.3854525992868068
mem,resp,1507,1,mem2.1.2.bmp,mem2.2.2.bmp,mem1.2.1.bmp,ACC022,"[0, -3, 0]","[0, 0, 0]","[-3, 0, -3]",non-match,1.091751709536137,4,-1.0764249132426655,-0.43531650976987807,-1.5351837607258045,1st,2nd,1st,-1.1954797944843416,-0.3197801505003682,-1.3854525992868068
mem,resp,1041,1,mem2.3.2.bmp,mem2.2.1.bmp,mem1.2.3.bmp,ACC022,"[0, 3, 0]","[0, 0, -3]","[-3, 0, 3]",non-match,0.8545027756320972,2,-0.8256940209883467,-0.45461365318649993,-1.2620669128056747,1st,2nd,1st,-1.1954797944843416,-0.3197801505003682,-1.3854525992868068
mem,resp,1365,0,mem3.3.2.bmp,mem1.3.3.bmp,mem3.2.1.bmp,ACC022,"[3, 3, 0]","[-3, 3, 3]","[3, 0, -3]",non-match,0.7257263057516985,2,-0.1658021755077546,1.400723488503167,-1.1693819921686874,2nd,4th,1st,-0.39174609635662544,1.233476803751534,-1.3854525992868068
mem,resp,1045,1,mem1.1.1.bmp,mem3.1.2.bmp,mem3.1.2.bmp,ACC022,"[-3, -3, -3]","[3, -3, 0]","[3, -3, 0]",match,1.3545027756320973,,-1.56004045207208,-1.0627992469354088,-0.9495653160488005,1st,1st,1st,-1.1954797944843416,-1.0575857075986566,-1.3854525992868068
mem,resp,1445,1,mem3.2.3.bmp,mem1.2.3.bmp,mem1.2.3.bmp,ACC022,"[3, 0, 3]","[-3, 0, 3]","[-3, 0, 3]",match,1.4226497308103743,,-1.4977739385643876,-0.8205203968220927,-0.4986005245785674,1st,1st,1st,-1.1954797944843416,-1.0575857075986566,-1.3854525992868068
mem,resp,1433,1,mem2.1.3.bmp,mem3.2.2.bmp,mem2.1.3.bmp,ACC022,"[0, -3, 3]","[3, 0, 0]","[0, -3, 3]",match,1.5,,-0.13699635174962843,1.2007620064811562,-0.2688604566647845,2nd,4th,1st,-0.39174609635662544,1.233476803751534,-1.3854525992868068
mem,resp,1129,1,mem2.1.1.bmp,mem1.2.1.bmp,mem2.1.1.bmp,ACC022,"[0, -3, -3]","[-3, 0, -3]","[0, -3, -3]",match,1.591751709536137,,-2.5194037708974175,0.06884835668259129,-0.21091902764212428,1st,3rd,2nd,-1.1954797944843416,0.15780465576326086,0.005023762327690217
mem,resp,1175,1,mem2.2.2.bmp,mem3.2.1.bmp,mem2.2.2.bmp,ACC022,"[0, 0, 0]","[3, 0, -3]","[0, 0, 0]",match,1.591751709536137,,-1.6336275213176479,0.19964916133008534,-0.3490655307882917,1st,3rd,1st,-1.1954797944843416,0.15780465576326086,-1.3854525992868068
mem,resp,1107,1,mem1.2.3.bmp,mem1.1.2.bmp,mem1.3.2.bmp,ACC022,"[-3, 0, 3]","[-3, -3, 0]","[-3, 3, 0]",non-match,1.0144014403465114,3,-0.4044121245188451,-0.1963530253913657,-0.24895893774771655,2nd,2nd,1st,-0.39174609635662544,-0.3197801505003682,-1.3854525992868068
mem,resp,984,1,mem2.2.1.bmp,mem1.2.2.bmp,mem1.2.2.bmp,ACC022,"[0, 0, -3]","[-3, 0, 0]","[-3, 0, 0]",match,1.591751709536137,,-1.9026837146802942,0.8852039062240328,-0.2838705050323597,1st,4th,1st,-1.1954797944843416,1.233476803751534,-1.3854525992868068
mem,resp,1125,1,mem3.3.3.bmp,mem3.1.3.bmp,mem3.1.3.bmp,ACC022,"[3, 3, 3]","[3, -3, 3]","[3, -3, 3]",match,1.4226497308103743,,-1.1221294209253505,0.47444907616879184,-0.30821299942544655,1st,3rd,1st,-1.1954797944843416,0.15780465576326086,-1.3854525992868068
mem,resp,1485,1,mem2.2.3.bmp,mem3.1.1.bmp,mem3.1.1.bmp,ACC022,"[0, 0, 3]","[3, -3, -3]","[3, -3, -3]",match,1.2928932188134525,,-0.4560574418404916,1.1449285830699618,-0.11888126104643151,2nd,4th,2nd,-0.39174609635662544,1.233476803751534,0.005023762327690217
mem,resp,741,1,mem3.2.1.bmp,mem3.3.2.bmp,mem1.2.3.bmp,ACC022,"[3, 0, -3]","[3, 3, 0]","[-3, 0, 3]",non-match,0.4763966378857265,1,1.0359696925898023,2.197882519117274,0.09039233953563916,4th,4th,2nd,1.3578858647453997,1.233476803751534,0.005023762327690217
mem,resp,1340,1,mem1.2.1.bmp,mem2.1.2.bmp,mem2.3.2.bmp,ACC022,"[-3, 0, -3]","[0, -3, 0]","[0, 3, 0]",non-match,0.9226497308103743,2,-0.9290071575545463,-0.5947307451176812,0.05501273583436342,1st,1st,2nd,-1.1954797944843416,-1.0575857075986566,0.005023762327690217
mem,resp,866,1,mem1.3.2.bmp,mem2.1.1.bmp,mem2.1.1.bmp,ACC022,"[-3, 3, 0]","[0, -3, -3]","[0, -3, -3]",match,1.2928932188134525,,-0.40789892006252704,-0.0010934648754267352,0.11372963185348012,2nd,3rd,2nd,-0.39174609635662544,0.15780465576326086,0.005023762327690217
mem,resp,904,1,mem3.1.2.bmp,mem3.2.3.bmp,mem3.1.2.bmp,ACC022,"[3, -3, 0]","[3, 0, 3]","[3, -3, 0]",match,1.591751709536137,,-0.5091336651393987,0.19105995430676617,0.0765312172583038,2nd,3rd,2nd,-0.39174609635662544,0.15780465576326086,0.005023762327690217
mem,resp,869,1,mem1.1.2.bmp,mem2.1.3.bmp,mem2.1.3.bmp,ACC022,"[-3, -3, 0]","[0, -3, 3]","[0, -3, 3]",match,1.591751709536137,,0.5488304866660134,0.08018707197318191,0.3229961356329677,3rd,3rd,3rd,0.24507002339141434,0.15780465576326086,0.34828658510634847
mem,resp,927,1,mem3.2.2.bmp,mem3.3.3.bmp,mem3.2.2.bmp,ACC022,"[3, 0, 0]","[3, 3, 3]","[3, 0, 0]",match,1.591751709536137,,1.1200423466886416,0.05203104790195206,0.11374719079711032,4th,3rd,2nd,1.3578858647453997,0.15780465576326086,0.005023762327690217
mem,resp,782,1,mem3.1.3.bmp,mem1.2.1.bmp,mem3.2.1.bmp,ACC022,"[3, -3, 3]","[-3, 0, -3]","[3, 0, -3]",non-match,0.7771525064424715,2,0.9646297972112196,0.8765035898880988,0.09853819524359117,4th,4th,2nd,1.3578858647453997,1.233476803751534,0.005023762327690217
mem,resp,957,1,mem3.1.1.bmp,mem1.2.2.bmp,mem3.3.2.bmp,ACC022,"[3, -3, -3]","[-3, 0, 0]","[3, 3, 0]",non-match,0.7090055512641944,2,-0.7505334973291057,-0.7538034038040732,0.08137112352131975,1st,1st,2nd,-1.1954797944843416,-1.0575857075986566,0.005023762327690217
mem,resp,858,1,mem2.3.1.bmp,mem1.3.3.bmp,mem2.1.3.bmp,ACC022,"[0, 3, -3]","[-3, 3, 3]","[0, -3, 3]",non-match,0.5380061947043713,1,-0.612340070770728,0.8689186401134159,0.08097410462875795,2nd,4th,2nd,-0.39174609635662544,1.233476803751534,0.005023762327690217
mem,resp,884,1,mem2.3.3.bmp,mem3.1.2.bmp,mem1.3.1.bmp,ACC022,"[0, 3, 3]","[3, -3, 0]","[-3, 3, -3]",non-match,0.4884773718476586,1,-1.1083186132336615,1.749986469545199,-0.012403446988832669,1st,4th,2nd,-1.1954797944843416,1.233476803751534,0.005023762327690217
mem,resp,1577,0,mem1.3.2.bmp,mem2.2.2.bmp,mem2.2.3.bmp,ACC022,"[-3, 3, 0]","[0, 0, 0]","[0, 0, 3]",non-match,1.2113248654051871,4,-0.0463496768229977,-0.3897062363235999,0.024745353637432105,3rd,2nd,2nd,0.24507002339141434,-0.3197801505003682,0.005023762327690217
mem,resp,1009,1,mem3.1.3.bmp,mem3.2.3.bmp,mem3.2.3.bmp,ACC022,"[3, -3, 3]","[3, 0, 3]","[3, 0, 3]",match,1.7113248654051871,,-0.3250173055766581,-0.13859372379187881,0.1362270921059696,2nd,2nd,2nd,-0.39174609635662544,-0.3197801505003682,0.005023762327690217
mem,resp,1543,1,mem3.2.2.bmp,mem2.1.3.bmp,mem3.2.2.bmp,ACC022,"[3, 0, 0]","[0, -3, 3]","[3, 0, 0]",match,1.5,,-0.6431020868251935,-0.6776848287192249,0.011184733195694737,2nd,1st,2nd,-0.39174609635662544,-1.0575857075986566,0.005023762327690217
mem,resp,899,1,mem3.3.3.bmp,mem1.3.1.bmp,mem3.3.3.bmp,ACC022,"[3, 3, 3]","[-3, 3, -3]","[3, 3, 3]",match,1.1835034190722742,,-0.6593767139474368,0.4804350655403768,0.24596306277123717,2nd,4th,3rd,-0.39174609635662544,1.233476803751534,0.34828658510634847
mem,resp,1228,1,mem1.2.3.bmp,mem3.3.1.bmp,mem3.3.1.bmp,ACC022,"[-3, 0, 3]","[3, 3, -3]","[3, 3, -3]",match,1.1339745962155614,,-0.16692146853814055,-0.2437783161688513,0.388632323423079,2nd,2nd,3rd,-0.39174609635662544,-0.3197801505003682,0.34828658510634847
mem,resp,903,1,mem2.2.1.bmp,mem3.2.1.bmp,mem2.2.1.bmp,ACC022,"[0, 0, -3]","[3, 0, -3]","[0, 0, -3]",match,1.7113248654051871,,-0.7295243553009814,-0.6508687253164505,0.35573017516798083,1st,1st,3rd,-1.1954797944843416,-1.0575857075986566,0.34828658510634847
mem,resp,626,1,mem1.3.3.bmp,mem2.3.3.bmp,mem2.1.1.bmp,ACC022,"[-3, 3, 3]","[0, 3, 3]","[0, -3, -3]",non-match,0.3174780152878355,1,1.717422759256135,0.13728965591814188,0.4141657658986674,4th,3rd,3rd,1.3578858647453997,0.15780465576326086,0.34828658510634847
mem,resp,690,0,mem2.3.2.bmp,mem3.1.1.bmp,mem3.2.2.bmp,ACC022,"[0, 3, 0]","[3, -3, -3]","[3, 0, 0]",non-match,1.1835034190722742,4,0.7241737899892527,1.0112082271910783,0.7120217902552406,4th,4th,4th,1.3578858647453997,1.233476803751534,1.050371891317068
mem,resp,739,1,mem3.2.1.bmp,mem3.1.2.bmp,mem1.2.2.bmp,ACC022,"[3, 0, -3]","[3, -3, 0]","[-3, 0, 0]",non-match,0.7090055512641944,2,0.9460987528572669,-0.30323258138788206,0.7617084639788458,4th,2nd,4th,1.3578858647453997,-0.3197801505003682,1.050371891317068
mem,resp,864,1,mem2.3.2.bmp,mem3.3.3.bmp,mem3.3.3.bmp,ACC022,"[0, 3, 0]","[3, 3, 3]","[3, 3, 3]",match,1.591751709536137,,-0.5365866235333543,-2.1275327267072113,0.9281861791128772,2nd,1st,4th,-0.39174609635662544,-1.0575857075986566,1.050371891317068
mem,resp,1293,1,mem2.2.3.bmp,mem1.2.1.bmp,mem2.2.3.bmp,ACC022,"[0, 0, 3]","[-3, 0, -3]","[0, 0, 3]",match,1.3545027756320973,,-0.9616023360999367,-1.1283571452190548,0.9795844744517073,1st,1st,4th,-1.1954797944843416,-1.0575857075986566,1.050371891317068
mem,resp,1173,0,mem3.2.2.bmp,mem1.3.2.bmp,mem2.2.1.bmp,ACC022,"[3, 0, 0]","[-3, 3, 0]","[0, 0, -3]",non-match,1.091751709536137,4,-1.1066591192306838,-0.9093440683798355,0.7375312900803421,1st,1st,4th,-1.1954797944843416,-1.0575857075986566,1.050371891317068
mem,resp,1160,1,mem1.1.2.bmp,mem2.3.3.bmp,mem2.3.3.bmp,ACC022,"[-3, -3, 0]","[0, 3, 3]","[0, 3, 3]",match,1.2928932188134525,,-2.0122345690149963,-1.7028947296536667,0.5345084041325352,1st,1st,3rd,-1.1954797944843416,-1.0575857075986566,0.34828658510634847
mem,resp,824,1,mem1.1.3.bmp,mem1.2.2.bmp,mem1.1.3.bmp,ACC022,"[-3, -3, 3]","[-3, 0, 0]","[-3, -3, 3]",match,1.591751709536137,,1.0336975805520785,1.6106088806508405,0.6025297774305021,4th,4th,3rd,1.3578858647453997,1.233476803751534,0.34828658510634847
mem,resp,929,1,mem1.2.1.bmp,mem1.2.3.bmp,mem1.2.3.bmp,ACC022,"[-3, 0, -3]","[-3, 0, 3]","[-3, 0, 3]",match,1.4226497308103743,,-1.8902894048795784,0.0061162176680984405,0.8667244359185041,1st,3rd,4th,-1.1954797944843416,0.15780465576326086,1.050371891317068
mem,resp,965,1,mem3.3.2.bmp,mem3.1.3.bmp,mem3.1.3.bmp,ACC022,"[3, 3, 0]","[3, -3, 3]","[3, -3, 3]",match,1.3545027756320973,,0.34560499955542934,0.27535510147219866,0.8013748288845955,3rd,3rd,4th,0.24507002339141434,0.15780465576326086,1.050371891317068
mem,resp,688,1,mem2.1.2.bmp,mem2.2.2.bmp,mem2.1.2.bmp,ACC022,"[0, -3, 0]","[0, 0, 0]","[0, -3, 0]",match,1.7113248654051871,,0.13820368333464048,1.1082993807075048,1.1422361567246555,3rd,4th,4th,0.24507002339141434,1.233476803751534,1.050371891317068
mem,resp,1082,1,mem2.3.1.bmp,mem3.1.1.bmp,mem2.3.1.bmp,ACC022,"[0, 3, -3]","[3, -3, -3]","[0, 3, -3]",match,1.3545027756320973,,-1.2034765709983324,-1.2867981057227011,1.1995050900735729,1st,1st,4th,-1.1954797944843416,-1.0575857075986566,1.050371891317068
mem,resp,775,1,mem1.3.1.bmp,mem3.2.2.bmp,mem1.3.1.bmp,ACC022,"[-3, 3, -3]","[3, 0, 0]","[-3, 3, -3]",match,1.2928932188134525,,-0.04517574456814632,-0.12947307039180747,1.0478465384023816,3rd,2nd,4th,0.24507002339141434,-0.3197801505003682,1.050371891317068
mem,resp,870,1,mem2.1.3.bmp,mem3.2.3.bmp,mem1.3.3.bmp,ACC022,"[0, -3, 3]","[3, 0, 3]","[-3, 3, 3]",non-match,0.7090055512641944,2,-0.5307271598890719,-0.5049626692482633,1.0570178430375181,2nd,2nd,4th,-0.39174609635662544,-0.3197801505003682,1.050371891317068
mem,resp,1459,1,mem3.1.3.bmp,mem1.1.1.bmp,mem1.2.1.bmp,ACC022,"[3, -3, 3]","[-3, -3, -3]","[-3, 0, -3]",non-match,0.8452994616207485,2,-1.2443958076220407,-0.9368450642941365,1.2648089082916496,1st,1st,4th,-1.1954797944843416,-1.0575857075986566,1.050371891317068
mem,resp,873,1,mem3.1.1.bmp,mem2.1.1.bmp,mem2.1.1.bmp,ACC022,"[3, -3, -3]","[0, -3, -3]","[0, -3, -3]",match,1.7113248654051871,,-0.481709289401401,-0.04898217490579583,1.6337311236138008,2nd,3rd,4th,-0.39174609635662544,0.15780465576326086,1.050371891317068
mem,resp,806,1,mem3.3.3.bmp,mem2.2.1.bmp,mem2.2.1.bmp,ACC022,"[3, 3, 3]","[0, 0, -3]","[0, 0, -3]",match,1.2928932188134525,,-0.8235501550502541,0.11719824986608265,1.579135664728423,1st,3rd,4th,-1.1954797944843416,0.15780465576326086,1.050371891317068
mem,resp,1438,1,mem3.1.2.bmp,mem1.3.3.bmp,mem2.1.2.bmp,ACC022,"[3, -3, 0]","[-3, 3, 3]","[0, -3, 0]",non-match,1.0042180842186395,3,-0.3381794248451282,-0.04850623349424546,1.3799059476150064,2nd,3rd,4th,-0.39174609635662544,0.15780465576326086,1.050371891317068
mem,resp,1056,0,mem1.3.2.bmp,mem3.2.2.bmp,mem1.1.1.bmp,ACC022,"[-3, 3, 0]","[3, 0, 0]","[-3, -3, -3]",non-match,0.6473959944455496,1,-1.1953774830712127,-0.7736089369243463,1.299085049893554,1st,1st,4th,-1.1954797944843416,-1.0575857075986566,1.050371891317068
mem,resp,781,1,mem3.3.1.bmp,mem2.3.1.bmp,mem3.3.1.bmp,ACC022,"[3, 3, -3]","[0, 3, -3]","[3, 3, -3]",match,1.7113248654051871,,-0.881234677850315,-0.027623297817568063,1.1877041844247822,1st,3rd,4th,-1.1954797944843416,0.15780465576326086,1.050371891317068
mem,resp,785,1,mem2.3.3.bmp,mem3.1.3.bmp,mem3.1.3.bmp,ACC022,"[0, 3, 3]","[3, -3, 3]","[3, -3, 3]",match,1.3545027756320973,,0.03772358211843561,-0.39948624100680574,1.355276135917344,3rd,2nd,4th,0.24507002339141434,-0.3197801505003682,1.050371891317068
mem,resp,1000,1,mem3.2.3.bmp,mem3.1.1.bmp,mem3.2.3.bmp,ACC022,"[3, 0, 3]","[3, -3, -3]","[3, 0, 3]",match,1.3545027756320973,,-0.939695271315874,0.7930404209074221,1.54916313670737,1st,4th,4th,-1.1954797944843416,1.233476803751534,1.050371891317068
mem,resp,804,1,mem2.1.1.bmp,mem3.2.1.bmp,mem1.2.1.bmp,ACC022,"[0, -3, -3]","[3, 0, -3]","[-3, 0, -3]",non-match,1.0144014403465114,3,1.563607400346997,0.6793728114002692,1.6948767464086478,4th,4th,4th,1.3578858647453997,1.233476803751534,1.050371891317068
mem,resp,818,0,mem1.3.3.bmp,mem1.1.2.bmp,mem1.3.2.bmp,ACC022,"[-3, 3, 3]","[-3, -3, 0]","[-3, 3, 0]",non-match,1.1339745962155614,4,-0.2346647103074502,0.3381298754554864,1.669827541772848,2nd,3rd,4th,-0.39174609635662544,0.15780465576326086,1.050371891317068
mem,resp,986,0,mem1.2.3.bmp,mem3.3.1.bmp,mem1.1.3.bmp,ACC022,"[-3, 0, 3]","[3, 3, -3]","[-3, -3, 3]",non-match,0.7113248654051871,2,-0.5259671492725052,1.290132553504009,1.7253354174391,2nd,4th,4th,-0.39174609635662544,1.233476803751534,1.050371891317068
mem,resp,989,1,mem2.2.1.bmp,mem1.3.1.bmp,mem2.2.3.bmp,ACC022,"[0, 0, -3]","[-3, 3, -3]","[0, 0, 3]",non-match,0.7155429496238267,2,-0.9308829705943092,0.7346048730488219,1.7810933410937182,1st,4th,4th,-1.1954797944843416,1.233476803751534,1.050371891317068
mem,resp,1158,1,mem1.1.1.bmp,mem3.3.2.bmp,mem3.2.3.bmp,ACC022,"[-3, -3, -3]","[3, 3, 0]","[3, 0, 3]",non-match,0.7257263057516985,2,0.6514495717130011,0.5741156203176929,1.685960185159052,3rd,4th,4th,0.24507002339141434,1.233476803751534,1.050371891317068
mem,resp,814,1,mem2.2.2.bmp,mem2.1.3.bmp,mem2.1.3.bmp,ACC022,"[0, 0, 0]","[0, -3, 3]","[0, -3, 3]",match,1.591751709536137,,-0.06349054229371875,0.2659417177677376,1.33967739457065,3rd,3rd,4th,0.24507002339141434,0.15780465576326086,1.050371891317068
mem,resp,793,1,mem1.2.2.bmp,mem2.3.2.bmp,mem1.2.2.bmp,ACC022,"[-3, 0, 0]","[0, 3, 0]","[-3, 0, 0]",match,1.591751709536137,,0.4355504928105734,0.8181777599911499,1.14291649180586,3rd,4th,4th,0.24507002339141434,1.233476803751534,1.050371891317068
mem,resp,789,1,mem3.3.3.bmp,mem1.1.3.bmp,mem3.3.3.bmp,ACC022,"[3, 3, 3]","[-3, -3, 3]","[3, 3, 3]",match,1.1835034190722742,,0.14832646204178068,0.09690683711309497,1.0921018526342352,3rd,3rd,4th,0.24507002339141434,0.15780465576326086,1.050371891317068
mem,resp,817,1,mem3.3.1.bmp,mem3.2.3.bmp,mem3.2.3.bmp,ACC022,"[3, 3, -3]","[3, 0, 3]","[3, 0, 3]",match,1.3545027756320973,,0.3588794999793437,-0.8461295281100351,1.1075943153304462,3rd,1st,4th,0.24507002339141434,-1.0575857075986566,1.050371891317068
mem,resp,922,1,mem1.1.2.bmp,mem2.2.1.bmp,mem3.1.3.bmp,ACC022,"[-3, -3, 0]","[0, 0, -3]","[3, -3, 3]",non-match,0.6473959944455496,1,-0.36858970063131075,-0.35866196641764775,1.2296618831573252,2nd,2nd,4th,-0.39174609635662544,-0.3197801505003682,1.050371891317068
mem,resp,734,1,mem1.3.2.bmp,mem2.2.3.bmp,mem2.2.3.bmp,ACC022,"[-3, 3, 0]","[0, 0, 3]","[0, 0, 3]",match,1.5,,-0.1582212156678146,-0.04418106995250618,1.2562806643485012,2nd,3rd,4th,-0.39174609635662544,0.15780465576326086,1.050371891317068
mem,resp,624,1,mem1.1.3.bmp,mem2.1.2.bmp,mem1.1.3.bmp,ACC022,"[-3, -3, 3]","[0, -3, 0]","[-3, -3, 3]",match,1.591751709536137,,0.20337829521235967,0.31693433303209084,1.3460501424964506,3rd,3rd,4th,0.24507002339141434,0.15780465576326086,1.050371891317068
mem,resp,1059,1,mem3.2.3.bmp,mem1.3.3.bmp,mem2.2.2.bmp,ACC022,"[3, 0, 3]","[-3, 3, 3]","[0, 0, 0]",non-match,1.091751709536137,4,-0.7536894638626567,-0.9875302903778832,1.176536199007966,1st,1st,4th,-1.1954797944843416,-1.0575857075986566,1.050371891317068
mem,resp,865,1,mem1.2.1.bmp,mem1.2.3.bmp,mem1.2.3.bmp,ACC022,"[-3, 0, -3]","[-3, 0, 3]","[-3, 0, 3]",match,1.4226497308103743,,-0.6785340274262553,-0.306829770229348,0.8235430277200146,2nd,2nd,4th,-0.39174609635662544,-0.3197801505003682,1.050371891317068
mem,resp,710,1,mem1.3.1.bmp,mem1.3.2.bmp,mem1.3.2.bmp,ACC022,"[-3, 3, -3]","[-3, 3, 0]","[-3, 3, 0]",match,1.7113248654051871,,0.40872292421950557,-1.0322741497030719,1.0083722627751903,3rd,1st,4th,0.24507002339141434,-1.0575857075986566,1.050371891317068
mem,resp,815,1,mem3.1.2.bmp,mem3.3.3.bmp,mem1.1.2.bmp,ACC022,"[3, -3, 0]","[3, 3, 3]","[-3, -3, 0]",non-match,0.5566243270259357,1,0.9058453253227178,1.2296050100903568,1.0896442187998516,4th,4th,4th,1.3578858647453997,1.233476803751534,1.050371891317068
mem,resp,661,1,mem3.2.1.bmp,mem3.2.2.bmp,mem3.2.2.bmp,ACC022,"[3, 0, -3]","[3, 0, 0]","[3, 0, 0]",match,1.7113248654051871,,0.6208861580339433,-0.10217049106304858,1.26997007974191,3rd,2nd,4th,0.24507002339141434,-0.3197801505003682,1.050371891317068
mem,resp,1034,1,mem2.1.1.bmp,mem2.1.3.bmp,mem2.3.1.bmp,ACC022,"[0, -3, -3]","[0, -3, 3]","[0, 3, -3]",non-match,0.6061531498826483,1,-0.5117620781470896,-0.3143342204126017,1.0920227639815383,2nd,2nd,4th,-0.39174609635662544,-0.3197801505003682,1.050371891317068
mem,resp,1034,1,mem3.1.1.bmp,mem2.3.2.bmp,mem3.1.1.bmp,ACC022,"[3, -3, -3]","[0, 3, 0]","[3, -3, -3]",match,1.2928932188134525,,-0.8717044485682481,0.15348448421616534,1.1656369168898635,1st,3rd,4th,-1.1954797944843416,0.15780465576326086,1.050371891317068
mem,resp,1338,1,mem2.1.3.bmp,mem3.1.1.bmp,mem3.1.1.bmp,ACC022,"[0, -3, 3]","[3, -3, -3]","[3, -3, -3]",match,1.3545027756320973,,-0.21635998545300175,0.23382615731139703,1.0366021252940558,2nd,3rd,4th,-0.39174609635662544,0.15780465576326086,1.050371891317068
mem,resp,699,1,mem3.1.2.bmp,mem2.1.1.bmp,mem2.1.1.bmp,ACC022,"[3, -3, 0]","[0, -3, -3]","[0, -3, -3]",match,1.591751709536137,,-0.6731324701170465,-0.6107623878241897,1.0913239597523798,2nd,1st,4th,-0.39174609635662544,-1.0575857075986566,1.050371891317068
mem,resp,584,0,mem3.2.1.bmp,mem1.2.2.bmp,mem1.1.2.bmp,ACC022,"[3, 0, -3]","[-3, 0, 0]","[-3, -3, 0]",non-match,1.0042180842186395,3,-0.5813022928620656,0.5349605196641585,1.0078622187878612,2nd,4th,4th,-0.39174609635662544,1.233476803751534,1.050371891317068
mem,resp,755,1,mem2.1.2.bmp,mem1.3.3.bmp,mem2.1.2.bmp,ACC022,"[0, -3, 0]","[-3, 3, 3]","[0, -3, 0]",match,1.2928932188134525,,-0.7126355731374371,-0.6478426363541816,1.175493923431123,1st,1st,4th,-1.1954797944843416,-1.0575857075986566,1.050371891317068
mem,resp,828,0,mem3.2.2.bmp,mem3.1.3.bmp,mem3.1.1.bmp,ACC022,"[3, 0, 0]","[3, -3, 3]","[3, -3, -3]",non-match,1.0144014403465114,3,-0.4040011623813494,1.1430377371112728,1.0657586129375802,2nd,4th,4th,-0.39174609635662544,1.233476803751534,1.050371891317068
mem,resp,856,1,mem1.3.2.bmp,mem1.2.3.bmp,mem1.2.3.bmp,ACC022,"[-3, 3, 0]","[-3, 0, 3]","[-3, 0, 3]",match,1.591751709536137,,0.38798914831255676,-0.40651952012466763,1.0323813950688177,3rd,2nd,4th,0.24507002339141434,-0.3197801505003682,1.050371891317068
mem,resp,817,1,mem2.1.1.bmp,mem3.3.2.bmp,mem3.3.2.bmp,ACC022,"[0, -3, -3]","[3, 3, 0]","[3, 3, 0]",match,1.2928932188134525,,-0.11298310677298538,-0.10080035820225423,1.2161749633093695,2nd,3rd,4th,-0.39174609635662544,0.15780465576326086,1.050371891317068
mem,resp,765,1,mem2.3.2.bmp,mem3.2.3.bmp,mem3.1.2.bmp,ACC022,"[0, 3, 0]","[3, 0, 3]","[3, -3, 0]",non-match,0.9462544851682343,3,0.9336981310048522,1.2984166571375886,1.1805301586211143,4th,4th,4th,1.3578858647453997,1.233476803751534,1.050371891317068
mem,resp,796,1,mem1.1.2.bmp,mem1.1.3.bmp,mem1.1.3.bmp,ACC022,"[-3, -3, 0]","[-3, -3, 3]","[-3, -3, 3]",match,1.7113248654051871,,-0.3606427951382813,-0.05221105327091897,1.2711710179231652,2nd,3rd,4th,-0.39174609635662544,0.15780465576326086,1.050371891317068
mem,resp,1074,1,mem2.3.3.bmp,mem2.1.3.bmp,mem2.3.3.bmp,ACC022,"[0, 3, 3]","[0, -3, 3]","[0, 3, 3]",match,1.4226497308103743,,-1.62223394690529,0.3063985266293518,1.0748312094933317,1st,3rd,4th,-1.1954797944843416,0.15780465576326086,1.050371891317068
mem,resp,929,0,mem3.3.2.bmp,mem1.3.2.bmp,mem1.2.1.bmp,ACC022,"[3, 3, 0]","[-3, 3, 0]","[-3, 0, -3]",non-match,0.8846449283495895,2,-0.3245772991067761,-0.9816458199354903,1.018737372358506,2nd,1st,4th,-0.39174609635662544,-1.0575857075986566,1.050371891317068
mem,resp,764,1,mem2.2.2.bmp,mem2.2.3.bmp,mem2.2.3.bmp,ACC022,"[0, 0, 0]","[0, 0, 3]","[0, 0, 3]",match,1.7113248654051871,,0.17816017155101818,-0.5415152479255451,0.6800304648725877,3rd,2nd,4th,0.24507002339141434,-0.3197801505003682,1.050371891317068
mem,resp,867,1,mem1.2.2.bmp,mem3.2.1.bmp,mem1.2.2.bmp,ACC022,"[-3, 0, 0]","[3, 0, -3]","[-3, 0, 0]",match,1.3545027756320973,,-0.49542791646903406,0.025396515799846517,0.6628374277351238,2nd,3rd,4th,-0.39174609635662544,0.15780465576326086,1.050371891317068
mem,resp,923,1,mem3.3.1.bmp,mem1.3.1.bmp,mem1.3.1.bmp,ACC022,"[3, 3, -3]","[-3, 3, -3]","[-3, 3, -3]",match,1.4226497308103743,,-0.6022660258351186,-0.1713663000493804,0.7165948743293622,2nd,2nd,4th,-0.39174609635662544,-0.3197801505003682,1.050371891317068
mem,resp,808,1,mem3.2.3.bmp,mem3.1.2.bmp,mem3.2.3.bmp,ACC022,"[3, 0, 3]","[3, -3, 0]","[3, 0, 3]",match,1.591751709536137,,-0.1809023761397431,1.1271594411573274,0.8705087807007061,2nd,4th,4th,-0.39174609635662544,1.233476803751534,1.050371891317068
mem,resp,720,1,mem3.1.1.bmp,mem3.3.3.bmp,mem3.1.1.bmp,ACC022,"[3, -3, -3]","[3, 3, 3]","[3, -3, -3]",match,1.1835034190722742,,0.1941327364404383,2.614204541904242,0.972818084107779,3rd,4th,4th,0.24507002339141434,1.233476803751534,1.050371891317068
mem,resp,793,1,mem1.2.1.bmp,mem1.1.1.bmp,mem1.2.3.bmp,ACC022,"[-3, 0, -3]","[-3, -3, -3]","[-3, 0, 3]",non-match,0.7771525064424715,2,1.5748418141757174,0.49799470975087146,1.3233841901069048,4th,4th,4th,1.3578858647453997,1.233476803751534,1.050371891317068
mem,resp,808,1,mem2.3.1.bmp,mem1.1.2.bmp,mem1.1.2.bmp,ACC022,"[0, 3, -3]","[-3, -3, 0]","[-3, -3, 0]",match,1.2928932188134525,,0.16596122749646539,0.9879765420155744,1.3059274294708876,3rd,4th,4th,0.24507002339141434,1.233476803751534,1.050371891317068
mem,resp,921,1,mem3.1.3.bmp,mem3.3.1.bmp,mem3.1.3.bmp,ACC022,"[3, -3, 3]","[3, 3, -3]","[3, -3, 3]",match,1.1835034190722742,,1.0485991514017496,-0.2978877563547019,0.8752607149891831,4th,2nd,4th,1.3578858647453997,-0.3197801505003682,1.050371891317068
mem,resp,695,1,mem2.2.1.bmp,mem2.3.3.bmp,mem1.3.1.bmp,ACC022,"[0, 0, -3]","[0, 3, 3]","[-3, 3, -3]",non-match,0.9462544851682343,3,0.4011080807626233,-0.20729545411303582,0.5512816174207564,3rd,2nd,3rd,0.24507002339141434,-0.3197801505003682,0.34828658510634847
mem,resp,740,1,mem3.3.3.bmp,mem2.2.2.bmp,mem3.3.3.bmp,ACC022,"[3, 3, 3]","[0, 0, 0]","[3, 3, 3]",match,1.5,,-1.5557583722198882,4.367376720335447,0.43034644510441616,1st,4th,3rd,-1.1954797944843416,1.233476803751534,0.34828658510634847
mem,resp,681,1,mem1.1.1.bmp,mem1.2.1.bmp,mem3.2.3.bmp,ACC022,"[-3, -3, -3]","[-3, 0, -3]","[3, 0, 3]",non-match,0.3174780152878355,1,0.9459211671431048,0.39347533220752123,0.479555955259363,4th,3rd,3rd,1.3578858647453997,0.15780465576326086,0.34828658510634847
mem,resp,794,1,mem1.2.3.bmp,mem3.3.1.bmp,mem3.3.1.bmp,ACC022,"[-3, 0, 3]","[3, 3, -3]","[3, 3, -3]",match,1.1339745962155614,,1.2924993078119265,-0.3994411214827208,0.5616529812685731,4th,2nd,3rd,1.3578858647453997,-0.3197801505003682,0.34828658510634847
mem,resp,797,1,mem1.1.3.bmp,mem3.3.2.bmp,mem1.1.3.bmp,ACC022,"[-3, -3, 3]","[3, 3, 0]","[-3, -3, 3]",match,1.1339745962155614,,-0.72228171835836,0.4976717175630368,0.6505551248821199,1st,4th,4th,-1.1954797944843416,1.233476803751534,1.050371891317068
mem,resp,905,1,mem1.3.1.bmp,mem1.2.2.bmp,mem1.2.2.bmp,ACC022,"[-3, 3, -3]","[-3, 0, 0]","[-3, 0, 0]",match,1.591751709536137,,-0.2022677810064826,-1.4770105654659846,0.4317752105510542,2nd,1st,3rd,-0.39174609635662544,-1.0575857075986566,0.34828658510634847
mem,resp,1050,0,mem2.2.3.bmp,mem2.1.1.bmp,mem2.2.3.bmp,ACC022,"[0, 0, 3]","[0, -3, -3]","[0, 0, 3]",match,1.3545027756320973,,-0.08439883285039856,-0.12052052200272698,0.4493661731990693,3rd,2nd,3rd,0.24507002339141434,-0.3197801505003682,0.34828658510634847
mem,resp,732,0,mem1.3.3.bmp,mem2.3.1.bmp,mem1.3.2.bmp,ACC022,"[-3, 3, 3]","[0, 3, -3]","[-3, 3, 0]",non-match,1.3030765749413242,4,-0.44087914402126954,-1.2529790844677215,0.6146683802669382,2nd,1st,4th,-0.39174609635662544,-1.0575857075986566,1.050371891317068
mem,resp,655,1,mem1.3.3.bmp,mem1.1.1.bmp,mem1.1.1.bmp,ACC022,"[-3, 3, 3]","[-3, -3, -3]","[-3, -3, -3]",match,1.1835034190722742,,-0.7080654198119137,-1.2624528055974256,0.7553571120582762,1st,1st,4th,-1.1954797944843416,-1.0575857075986566,1.050371891317068
mem,resp,840,1,mem2.3.2.bmp,mem3.2.1.bmp,mem2.3.3.bmp,ACC022,"[0, 3, 0]","[3, 0, -3]","[0, 3, 3]",non-match,1.0042180842186395,3,-1.289037254678557,-0.14020873442215745,0.652780412566609,1st,2nd,4th,-1.1954797944843416,-0.3197801505003682,1.050371891317068
mem,resp,824,1,mem1.3.1.bmp,mem3.1.1.bmp,mem1.1.3.bmp,ACC022,"[-3, 3, -3]","[3, -3, -3]","[-3, -3, 3]",non-match,0.36700683814454815,1,0.9931716802935993,-0.7030602378909396,0.6462233826996884,4th,1st,4th,1.3578858647453997,-1.0575857075986566,1.050371891317068
mem,resp,958,0,mem2.2.1.bmp,mem2.1.2.bmp,mem3.3.1.bmp,ACC022,"[0, 0, -3]","[0, -3, 0]","[3, 3, -3]",non-match,0.8846449283495895,2,0.5020065384086447,0.3115758429448097,0.6331944401016452,3rd,3rd,4th,0.24507002339141434,0.15780465576326086,1.050371891317068
mem,resp,640,0,mem3.2.2.bmp,mem1.1.2.bmp,mem2.3.1.bmp,ACC022,"[3, 0, 0]","[-3, -3, 0]","[0, 3, -3]",non-match,0.7928932188134524,2,-0.1622451631640073,0.5470320793833916,0.6258804692030194,2nd,4th,4th,-0.39174609635662544,1.233476803751534,1.050371891317068
mem,resp,643,1,mem3.3.2.bmp,mem1.2.3.bmp,mem1.2.3.bmp,ACC022,"[3, 3, 0]","[-3, 0, 3]","[-3, 0, 3]",match,1.2928932188134525,,-0.5513848812045724,2.094637718438224,0.3575913053268927,2nd,4th,3rd,-0.39174609635662544,1.233476803751534,0.34828658510634847
mem,resp,1170,1,mem2.2.2.bmp,mem3.3.3.bmp,mem2.2.2.bmp,ACC022,"[0, 0, 0]","[3, 3, 3]","[0, 0, 0]",match,1.5,,-0.2854732751393974,-1.4359083933675243,0.38230331941596174,2nd,1st,3rd,-0.39174609635662544,-1.0575857075986566,0.34828658510634847
mem,resp,934,0,mem1.2.1.bmp,mem2.1.3.bmp,mem1.1.1.bmp,ACC022,"[-3, 0, -3]","[0, -3, 3]","[-3, -3, -3]",non-match,1.0658276410372842,3,0.45862926310635366,-1.0023195063655563,0.11385753946060745,3rd,1st,2nd,0.24507002339141434,-1.0575857075986566,0.005023762327690217
mem,resp,667,1,mem3.2.3.bmp,mem3.1.2.bmp,mem1.3.1.bmp,ACC022,"[3, 0, 3]","[3, -3, 0]","[-3, 3, -3]",non-match,0.2679491924311228,1,1.182531743636373,-0.025265107008635348,-0.0949335584836932,4th,3rd,2nd,1.3578858647453997,0.15780465576326086,0.005023762327690217
mem,resp,781,1,mem3.2.1.bmp,mem3.1.3.bmp,mem3.1.3.bmp,ACC022,"[3, 0, -3]","[3, -3, 3]","[3, -3, 3]",match,1.3545027756320973,,-1.0903953212586022,-0.1167940369039158,-0.19330066886884495,1st,2nd,2nd,-1.1954797944843416,-0.3197801505003682,0.005023762327690217
mem,resp,754,1,mem1.2.2.bmp,mem2.2.3.bmp,mem2.2.1.bmp,ACC022,"[-3, 0, 0]","[0, 0, 3]","[0, 0, -3]",non-match,1.0144014403465114,3,0.6517678281967205,-0.16350432235974716,-0.08828469046232029,3rd,2nd,2nd,0.24507002339141434,-0.3197801505003682,0.005023762327690217
mem,resp,698,0,mem2.1.2.bmp,mem1.3.2.bmp,mem1.1.2.bmp,ACC022,"[0, -3, 0]","[-3, 3, 0]","[-3, -3, 0]",non-match,1.1339745962155614,4,-0.6680808910460775,0.36984959656285843,0.03650568801573508,2nd,3rd,2nd,-0.39174609635662544,0.15780465576326086,0.005023762327690217
mem,resp,735,1,mem2.3.2.bmp,mem2.2.1.bmp,mem2.3.2.bmp,ACC022,"[0, 3, 0]","[0, 0, -3]","[0, 3, 0]",match,1.591751709536137,,-0.04868532944005141,-0.6384132024225404,0.0029350809883689983,3rd,1st,2nd,0.24507002339141434,-1.0575857075986566,0.005023762327690217
mem,resp,836,1,mem3.2.3.bmp,mem1.2.3.bmp,mem3.2.3.bmp,ACC022,"[3, 0, 3]","[-3, 0, 3]","[3, 0, 3]",match,1.4226497308103743,,0.12775666156917,-1.2732554905067515,0.23253568161811816,3rd,1st,3rd,0.24507002339141434,-1.0575857075986566,0.34828658510634847
mem,resp,688,1,mem1.1.1.bmp,mem2.2.3.bmp,mem1.1.1.bmp,ACC022,"[-3, -3, -3]","[0, 0, 3]","[-3, -3, -3]",match,1.2928932188134525,,0.5601149629388735,1.526476968768029,0.06984655833321737,3rd,4th,2nd,0.24507002339141434,1.233476803751534,0.005023762327690217
mem,resp,963,0,mem1.3.3.bmp,mem3.2.2.bmp,mem2.2.2.bmp,ACC022,"[-3, 3, 3]","[3, 0, 0]","[0, 0, 0]",non-match,1.2113248654051871,4,0.8690969825235629,0.35310816610080736,0.17178065697875433,4th,3rd,3rd,1.3578858647453997,0.15780465576326086,0.34828658510634847
mem,resp,675,1,mem1.1.3.bmp,mem2.3.2.bmp,mem2.1.1.bmp,ACC022,"[-3, -3, 3]","[0, 3, 0]","[0, -3, -3]",non-match,0.7090055512641944,2,0.11380062525116137,4.378020356437818,0.13506191097432238,3rd,4th,2nd,0.24507002339141434,1.233476803751534,0.005023762327690217
mem,resp,1304,0,mem2.1.2.bmp,mem2.3.1.bmp,mem2.3.1.bmp,ACC022,"[0, -3, 0]","[0, 3, -3]","[0, 3, -3]",match,1.3545027756320973,,-1.3761783892310098,-0.4143895974645495,0.07214036909458693,1st,2nd,2nd,-1.1954797944843416,-0.3197801505003682,0.005023762327690217
mem,resp,678,1,mem2.1.3.bmp,mem3.1.3.bmp,mem3.3.3.bmp,ACC022,"[0, -3, 3]","[3, -3, 3]","[3, 3, 3]",non-match,0.7771525064424715,2,2.31641695798829,3.540863563397669,0.3427272790875504,4th,4th,3rd,1.3578858647453997,1.233476803751534,0.34828658510634847
mem,resp,688,0,mem3.1.2.bmp,mem1.1.1.bmp,mem1.2.3.bmp,ACC022,"[3, -3, 0]","[-3, -3, -3]","[-3, 0, 3]",non-match,0.6473959944455496,1,-0.5067562848204736,0.9373009560063572,0.12023525739366195,2nd,4th,2nd,-0.39174609635662544,1.233476803751534,0.005023762327690217
mem,resp,971,1,mem1.1.2.bmp,mem3.2.1.bmp,mem2.2.1.bmp,ACC022,"[-3, -3, 0]","[3, 0, -3]","[0, 0, -3]",non-match,1.2113248654051871,4,0.08405015069662111,-0.1583476775443104,0.1382765292530594,3rd,2nd,2nd,0.24507002339141434,-0.3197801505003682,0.005023762327690217
mem,resp,797,1,mem2.2.2.bmp,mem1.3.3.bmp,mem1.3.3.bmp,ACC022,"[0, 0, 0]","[-3, 3, 3]","[-3, 3, 3]",match,1.5,,0.04339716556167495,-0.7291342543193878,0.07486029219806176,3rd,1st,2nd,0.24507002339141434,-1.0575857075986566,0.005023762327690217
mem,resp,668,1,mem1.3.1.bmp,mem1.1.3.bmp,mem2.1.1.bmp,ACC022,"[-3, 3, -3]","[-3, -3, 3]","[0, -3, -3]",non-match,0.7090055512641944,2,-0.2105124272531247,-0.10804422822658392,0.2455898524500442,2nd,2nd,3rd,-0.39174609635662544,-0.3197801505003682,0.34828658510634847
mem,resp,1124,1,mem2.2.3.bmp,mem3.3.1.bmp,mem2.3.2.bmp,ACC022,"[0, 0, 3]","[3, 3, -3]","[0, 3, 0]",non-match,1.1835034190722742,4,-0.3538814831424471,0.221734025474354,0.2076536318758733,2nd,3rd,3rd,-0.39174609635662544,0.15780465576326086,0.34828658510634847
mem,resp,959,1,mem1.2.2.bmp,mem1.2.1.bmp,mem1.2.1.bmp,ACC022,"[-3, 0, 0]","[-3, 0, -3]","[-3, 0, -3]",match,1.7113248654051871,,-0.7201030604411269,-0.7365816591131589,0.19432251533911496,1st,1st,3rd,-1.1954797944843416,-1.0575857075986566,0.34828658510634847
mem,resp,661,1,mem3.2.2.bmp,mem1.1.2.bmp,mem3.2.3.bmp,ACC022,"[3, 0, 0]","[-3, -3, 0]","[3, 0, 3]",non-match,1.0042180842186395,3,1.8965936225646198,0.4203919110262642,0.29076785643226893,4th,3rd,3rd,1.3578858647453997,0.15780465576326086,0.34828658510634847
mem,resp,686,1,mem1.3.2.bmp,mem2.3.3.bmp,mem3.3.2.bmp,ACC022,"[-3, 3, 0]","[0, 3, 3]","[3, 3, 0]",non-match,1.0144014403465114,3,1.9747167672915271,1.867989826799631,0.19259053552570354,4th,4th,3rd,1.3578858647453997,1.233476803751534,0.34828658510634847
mem,resp,1011,1,mem3.3.1.bmp,mem1.3.1.bmp,mem1.3.1.bmp,ACC022,"[3, 3, -3]","[-3, 3, -3]","[-3, 3, -3]",match,1.4226497308103743,,-0.0890029585641682,0.5473333068668766,-0.14473781827269833,3rd,4th,2nd,0.24507002339141434,1.233476803751534,0.005023762327690217
mem,resp,842,1,mem3.3.3.bmp,mem3.1.2.bmp,mem3.1.2.bmp,ACC022,"[3, 3, 3]","[3, -3, 0]","[3, -3, 0]",match,1.3545027756320973,,-1.6939954544424622,0.9518281507930376,0.15064183721114321,1st,4th,3rd,-1.1954797944843416,1.233476803751534,0.34828658510634847
mem,resp,705,1,mem3.1.1.bmp,mem2.1.2.bmp,mem1.1.3.bmp,ACC022,"[3, -3, -3]","[0, -3, 0]","[-3, -3, 3]",non-match,0.7752551286084112,2,1.1137946521237725,4.87949762974087,0.0382692674141254,4th,4th,2nd,1.3578858647453997,1.233476803751534,0.005023762327690217
mem,resp,1335,1,mem2.2.1.bmp,mem2.2.2.bmp,mem2.2.1.bmp,ACC022,"[0, 0, -3]","[0, 0, 0]","[0, 0, -3]",match,1.7113248654051871,,-1.078499799356879,-0.3987870871479088,0.12165395250372318,1st,2nd,2nd,-1.1954797944843416,-0.3197801505003682,0.005023762327690217
mem,resp,851,1,mem3.2.1.bmp,mem3.3.2.bmp,mem3.2.1.bmp,ACC022,"[3, 0, -3]","[3, 3, 0]","[3, 0, -3]",match,1.591751709536137,,0.5210121806193134,-0.37549199612137735,0.1085491239309512,3rd,2nd,2nd,0.24507002339141434,-0.3197801505003682,0.005023762327690217
mem,resp,724,1,mem2.3.1.bmp,mem3.2.3.bmp,mem2.1.3.bmp,ACC022,"[0, 3, -3]","[3, 0, 3]","[0, -3, 3]",non-match,0.7752551286084112,2,0.4333987538337224,0.7896005044158788,-0.12500931446631866,3rd,4th,2nd,0.24507002339141434,1.233476803751534,0.005023762327690217
mem,resp,827,1,mem1.2.3.bmp,mem2.1.1.bmp,mem2.1.1.bmp,ACC022,"[-3, 0, 3]","[0, -3, -3]","[0, -3, -3]",match,1.2928932188134525,,0.08891581567866207,0.7575491448682592,-0.02758188662327583,3rd,4th,2nd,0.24507002339141434,1.233476803751534,0.005023762327690217
mem,resp,741,1,mem1.2.1.bmp,mem1.3.2.bmp,mem1.2.1.bmp,ACC022,"[-3, 0, -3]","[-3, 3, 0]","[-3, 0, -3]",match,1.591751709536137,,-1.082986949962805,-0.2173446355164732,0.20614225636819605,1st,2nd,3rd,-1.1954797944843416,-0.3197801505003682,0.34828658510634847
mem,resp,1138,0,mem2.3.3.bmp,mem1.3.1.bmp,mem2.2.3.bmp,ACC022,"[0, 3, 3]","[-3, 3, -3]","[0, 0, 3]",non-match,1.0042180842186395,3,-0.07291544005936997,-0.004938910481573274,0.21274356215335216,3rd,3rd,3rd,0.24507002339141434,0.15780465576326086,0.34828658510634847
mem,resp,954,0,mem3.3.2.bmp,mem2.2.1.bmp,mem3.3.3.bmp,ACC022,"[3, 3, 0]","[0, 0, -3]","[3, 3, 3]",non-match,1.0042180842186395,3,-1.3224527274719253,-0.534036488044001,0.2937525877425069,1st,2nd,3rd,-1.1954797944843416,-0.3197801505003682,0.34828658510634847
mem,resp,1201,1,mem2.1.1.bmp,mem1.1.3.bmp,mem1.2.3.bmp,ACC022,"[0, -3, -3]","[-3, -3, 3]","[-3, 0, 3]",non-match,1.0042180842186395,3,-1.778203571196468,-0.20913695680364514,0.08209319850452425,1st,2nd,2nd,-1.1954797944843416,-0.3197801505003682,0.005023762327690217
mem,resp,874,1,mem3.1.3.bmp,mem3.1.1.bmp,mem3.1.3.bmp,ACC022,"[3, -3, 3]","[3, -3, -3]","[3, -3, 3]",match,1.4226497308103743,,-0.2858162810241636,-1.2736250432607399,-0.31040933339729515,2nd,1st,1st,-0.39174609635662544,-1.0575857075986566,-1.3854525992868068
mem,resp,1092,1,mem3.2.2.bmp,mem2.2.2.bmp,mem2.2.3.bmp,ACC022,"[3, 0, 0]","[0, 0, 0]","[0, 0, 3]",non-match,1.3030765749413242,4,-0.5617337304936506,-1.0863736019766523,-0.29963141958091455,2nd,1st,1st,-0.39174609635662544,-1.0575857075986566,-1.3854525992868068
mem,resp,685,1,mem2.2.1.bmp,mem3.2.3.bmp,mem1.2.2.bmp,ACC022,"[0, 0, -3]","[3, 0, 3]","[-3, 0, 0]",non-match,0.9462544851682343,3,1.0603996580662005,1.003759729192979,-0.3211065864433763,4th,4th,1st,1.3578858647453997,1.233476803751534,-1.3854525992868068
mem,resp,849,1,mem2.1.3.bmp,mem2.3.1.bmp,mem2.3.1.bmp,ACC022,"[0, -3, 3]","[0, 3, -3]","[0, 3, -3]",match,1.1835034190722742,,0.32890714461616927,0.2451535430298602,-0.49940813665493955,3rd,3rd,1st,0.24507002339141434,0.15780465576326086,-1.3854525992868068
mem,resp,1216,1,mem2.1.1.bmp,mem2.3.2.bmp,mem3.1.3.bmp,ACC022,"[0, -3, -3]","[0, 3, 0]","[3, -3, 3]",non-match,0.6473959944455496,1,-0.11651178124455601,-0.06994938669794513,-0.24024737549052433,2nd,3rd,1st,-0.39174609635662544,0.15780465576326086,-1.3854525992868068
mem,resp,640,1,mem3.2.1.bmp,mem2.1.2.bmp,mem2.1.2.bmp,ACC022,"[3, 0, -3]","[0, -3, 0]","[0, -3, 0]",match,1.5,,-0.8424928647921626,0.4567873664269419,0.006972137917886073,1st,3rd,2nd,-1.1954797944843416,0.15780465576326086,0.005023762327690217
mem,resp,1549,1,mem3.1.1.bmp,mem2.2.3.bmp,mem2.2.3.bmp,ACC022,"[3, -3, -3]","[0, 0, 3]","[0, 0, 3]",match,1.2928932188134525,,0.19184124657390028,1.0495822830433235,0.1251269589676821,3rd,4th,2nd,0.24507002339141434,1.233476803751534,0.005023762327690217
mem,resp,843,1,mem3.1.2.bmp,mem1.2.2.bmp,mem3.1.2.bmp,ACC022,"[3, -3, 0]","[-3, 0, 0]","[3, -3, 0]",match,1.3545027756320973,,-0.8257143413266895,0.7889748933935955,0.10210958369151556,1st,4th,2nd,-1.1954797944843416,1.233476803751534,0.005023762327690217
mem,resp,775,1,mem2.3.2.bmp,mem3.2.2.bmp,mem2.3.2.bmp,ACC022,"[0, 3, 0]","[3, 0, 0]","[0, 3, 0]",match,1.591751709536137,,-1.2429335459631559,5.5320519646571285,0.07008152836352967,1st,4th,2nd,-1.1954797944843416,1.233476803751534,0.005023762327690217
mem,resp,615,0,mem1.3.3.bmp,mem3.2.1.bmp,mem2.2.1.bmp,ACC022,"[-3, 3, 3]","[3, 0, -3]","[0, 0, -3]",non-match,1.0042180842186395,3,-0.6942711984534992,-0.879323186798261,0.1225637320814673,2nd,1st,2nd,-0.39174609635662544,-1.0575857075986566,0.005023762327690217
mem,resp,678,1,mem2.2.3.bmp,mem1.1.2.bmp,mem1.1.2.bmp,ACC022,"[0, 0, 3]","[-3, -3, 0]","[-3, -3, 0]",match,1.5,,-1.1217696596001798,-0.04431518624711566,0.38344138705065184,1st,3rd,3rd,-1.1954797944843416,0.15780465576326086,0.34828658510634847
mem,resp,824,0,mem1.1.3.bmp,mem2.3.3.bmp,mem1.2.3.bmp,ACC022,"[-3, -3, 3]","[0, 3, 3]","[-3, 0, 3]",non-match,1.3030765749413242,4,-1.1856613403610168,-0.21276892941918543,0.26865169203103456,1st,2nd,3rd,-1.1954797944843416,-0.3197801505003682,0.34828658510634847
mem,resp,605,1,mem1.2.2.bmp,mem3.3.1.bmp,mem1.2.2.bmp,ACC022,"[-3, 0, 0]","[3, 3, -3]","[-3, 0, 0]",match,1.2928932188134525,,-0.7981650571425565,-0.8012332164721879,0.34124323040825993,1st,1st,3rd,-1.1954797944843416,-1.0575857075986566,0.34828658510634847
mem,resp,979,1,mem1.1.1.bmp,mem1.2.3.bmp,mem2.1.3.bmp,ACC022,"[-3, -3, -3]","[-3, 0, 3]","[0, -3, 3]",non-match,0.9462544851682343,3,0.7734396464349113,0.6231981094742984,0.3907704538176871,4th,4th,3rd,1.3578858647453997,1.233476803751534,0.34828658510634847
mem,resp,1065,1,mem2.3.2.bmp,mem1.3.3.bmp,mem2.2.3.bmp,ACC022,"[0, 3, 0]","[-3, 3, 3]","[0, 0, 3]",non-match,1.1835034190722742,4,0.1054432449620643,-1.0033781753750664,0.42173182511530927,3rd,1st,3rd,0.24507002339141434,-1.0575857075986566,0.34828658510634847
mem,resp,739,1,mem1.1.3.bmp,mem2.2.2.bmp,mem2.2.2.bmp,ACC022,"[-3, -3, 3]","[0, 0, 0]","[0, 0, 0]",match,1.5,,0.8716102949010981,0.23950962723074562,0.4145529530424041,4th,3rd,3rd,1.3578858647453997,0.15780465576326086,0.34828658510634847
mem,resp,700,1,mem2.1.2.bmp,mem1.2.1.bmp,mem3.3.1.bmp,ACC022,"[0, -3, 0]","[-3, 0, -3]","[3, 3, -3]",non-match,0.6473959944455496,1,1.110513867371315,-0.04921850580507914,0.3704998678941689,4th,3rd,3rd,1.3578858647453997,0.15780465576326086,0.34828658510634847
mem,resp,925,1,mem3.2.2.bmp,mem1.1.1.bmp,mem1.1.1.bmp,ACC022,"[3, 0, 0]","[-3, -3, -3]","[-3, -3, -3]",match,1.2928932188134525,,-0.6900586858299985,-0.3824315081225557,0.2805747797627528,2nd,2nd,3rd,-0.39174609635662544,-0.3197801505003682,0.34828658510634847
mem,resp,739,0,mem3.3.2.bmp,mem2.2.3.bmp,mem2.3.1.bmp,ACC022,"[3, 3, 0]","[0, 0, 3]","[0, 3, -3]",non-match,0.9462544851682343,3,-0.18383841864973746,-0.25622499404592525,0.32285838415024226,2nd,2nd,3rd,-0.39174609635662544,-0.3197801505003682,0.34828658510634847
mem,resp,1104,1,mem1.2.2.bmp,mem2.3.2.bmp,mem1.3.1.bmp,ACC022,"[-3, 0, 0]","[0, 3, 0]","[-3, 3, -3]",non-match,1.1835034190722742,4,0.13441755405136585,-0.3620678445017044,0.3541597868317,3rd,2nd,3rd,0.24507002339141434,-0.3197801505003682,0.34828658510634847
mem,resp,857,0,mem3.2.3.bmp,mem2.1.1.bmp,mem2.2.2.bmp,ACC022,"[3, 0, 3]","[0, -3, -3]","[0, 0, 0]",non-match,1.1835034190722742,4,-0.1844086948132732,-0.5994112994482503,0.2548648290651605,2nd,1st,3rd,-0.39174609635662544,-1.0575857075986566,0.34828658510634847
mem,resp,1254,1,mem3.3.3.bmp,mem3.2.1.bmp,mem3.1.2.bmp,ACC022,"[3, 3, 3]","[3, 0, -3]","[3, -3, 0]",non-match,0.9462544851682343,3,1.3259838557158476,-0.7697771066811948,0.3111653150763298,4th,1st,3rd,1.3578858647453997,-1.0575857075986566,0.34828658510634847
mem,resp,848,1,mem1.3.2.bmp,mem2.3.1.bmp,mem2.3.3.bmp,ACC022,"[-3, 3, 0]","[0, 3, -3]","[0, 3, 3]",non-match,1.0144014403465114,3,1.0621837545675437,-0.7905883380921724,0.39365304590414774,4th,1st,3rd,1.3578858647453997,-1.0575857075986566,0.34828658510634847
mem,resp,793,1,mem1.1.2.bmp,mem3.1.3.bmp,mem1.1.2.bmp,ACC022,"[-3, -3, 0]","[3, -3, 3]","[-3, -3, 0]",match,1.3545027756320973,,0.28130092920126565,-0.22356586258301267,0.4204430927489707,3rd,2nd,3rd,0.24507002339141434,-0.3197801505003682,0.34828658510634847
mem,resp,1059,0,mem1.2.3.bmp,mem3.2.2.bmp,mem3.2.2.bmp,ACC022,"[-3, 0, 3]","[3, 0, 0]","[3, 0, 0]",match,1.3545027756320973,,0.22409449490155048,0.1658215932049049,0.4398537555745424,3rd,3rd,3rd,0.24507002339141434,0.15780465576326086,0.34828658510634847
mem,resp,762,1,mem3.1.2.bmp,mem3.1.1.bmp,mem3.3.1.bmp,ACC022,"[3, -3, 0]","[3, -3, -3]","[3, 3, -3]",non-match,0.7771525064424715,2,1.183747521902115,-0.2653652257416902,0.29600720590437807,4th,2nd,3rd,1.3578858647453997,-0.3197801505003682,0.34828658510634847
mem,resp,664,1,mem2.2.3.bmp,mem2.3.3.bmp,mem2.3.3.bmp,ACC022,"[0, 0, 3]","[0, 3, 3]","[0, 3, 3]",match,1.7113248654051871,,1.0317318487934832,-0.13843237677127904,0.13831257645090014,4th,2nd,2nd,1.3578858647453997,-0.3197801505003682,0.005023762327690217
mem,resp,1153,1,mem2.2.1.bmp,mem2.1.3.bmp,mem2.2.1.bmp,ACC022,"[0, 0, -3]","[0, -3, 3]","[0, 0, -3]",match,1.3545027756320973,,-1.3286305504570828,-0.6405557338322113,0.11507700648773726,1st,1st,2nd,-1.1954797944843416,-1.0575857075986566,0.005023762327690217
mem,resp,815,1,mem1.3.1.bmp,mem1.2.2.bmp,mem2.2.2.bmp,ACC022,"[-3, 3, -3]","[-3, 0, 0]","[0, 0, 0]",non-match,1.2113248654051871,4,0.9999113961995442,-0.31864686179567375,-0.03155820844568359,4th,2nd,2nd,1.3578858647453997,-0.3197801505003682,0.005023762327690217
mem,resp,1161,0,mem1.3.3.bmp,mem2.1.2.bmp,mem3.1.3.bmp,ACC022,"[-3, 3, 3]","[0, -3, 0]","[3, -3, 3]",non-match,0.7752551286084112,2,-0.16561304353135803,-1.3916437302213174,-0.05004344622358853,2nd,1st,2nd,-0.39174609635662544,-1.0575857075986566,0.005023762327690217
mem,resp,755,1,mem2.3.1.bmp,mem3.2.3.bmp,mem2.1.1.bmp,ACC022,"[0, 3, -3]","[3, 0, 3]","[0, -3, -3]",non-match,0.7155429496238267,2,-0.34164911307317575,0.7282148949869138,0.19126085980493898,2nd,4th,3rd,-0.39174609635662544,1.233476803751534,0.34828658510634847
mem,resp,668,1,mem3.3.1.bmp,mem3.3.3.bmp,mem1.2.3.bmp,ACC022,"[3, 3, -3]","[3, 3, 3]","[-3, 0, 3]",non-match,0.4884773718476586,1,1.2446884879637263,-0.0816649593350795,-0.05397193525082201,4th,3rd,2nd,1.3578858647453997,0.15780465576326086,0.005023762327690217
mem,resp,911,0,mem3.1.1.bmp,mem2.2.1.bmp,mem3.2.1.bmp,ACC022,"[3, -3, -3]","[0, 0, -3]","[3, 0, -3]",non-match,1.4226497308103743,4,-0.1595988738074448,-0.5888962639277444,-0.215558350846952,2nd,2nd,2nd,-0.39174609635662544,-0.3197801505003682,0.005023762327690217
mem,resp,645,1,mem1.2.1.bmp,mem3.1.2.bmp,mem3.3.2.bmp,ACC022,"[-3, 0, -3]","[3, -3, 0]","[3, 3, 0]",non-match,0.7155429496238267,2,1.1814056966966164,-0.23046562169953425,-0.3479893597860303,4th,2nd,1st,1.3578858647453997,-0.3197801505003682,-1.3854525992868068
mem,resp,840,0,mem2.1.3.bmp,mem1.3.1.bmp,mem2.1.3.bmp,ACC022,"[0, -3, 3]","[-3, 3, -3]","[0, -3, 3]",match,1.1339745962155614,,-1.805063107310536,0.16848642782785742,-0.4023856831269753,1st,3rd,1st,-1.1954797944843416,0.15780465576326086,-1.3854525992868068
mem,resp,956,1,mem2.1.1.bmp,mem1.3.2.bmp,mem1.1.2.bmp,ACC022,"[0, -3, -3]","[-3, 3, 0]","[-3, -3, 0]",non-match,1.0144014403465114,3,-0.13651047963450322,-0.32167235446467274,-0.5014962265802926,2nd,2nd,1st,-0.39174609635662544,-0.3197801505003682,-1.3854525992868068
mem,resp,597,1,mem3.2.1.bmp,mem3.3.3.bmp,mem1.1.1.bmp,ACC022,"[3, 0, -3]","[3, 3, 3]","[-3, -3, -3]",non-match,0.3545027756320972,1,1.551391099072141,-0.17283064724681085,-0.32453500691025167,4th,2nd,1st,1.3578858647453997,-0.3197801505003682,-1.3854525992868068
mem,resp,1244,0,mem3.1.3.bmp,mem3.3.2.bmp,mem3.3.2.bmp,ACC022,"[3, -3, 3]","[3, 3, 0]","[3, 3, 0]",match,1.3545027756320973,,-0.4943867564576397,-0.5899110556908145,0.0446742163792117,2nd,1st,2nd,-0.39174609635662544,-1.0575857075986566,0.005023762327690217
mem,resp,1057,0,mem2.3.3.bmp,mem3.2.2.bmp,mem3.2.3.bmp,ACC022,"[0, 3, 3]","[3, 0, 0]","[3, 0, 3]",non-match,1.3030765749413242,4,-0.8719870806239765,-1.310887807222411,-0.3388192484392194,1st,1st,1st,-1.1954797944843416,-1.0575857075986566,-1.3854525992868068
mem,resp,813,1,mem2.2.2.bmp,mem1.1.2.bmp,mem1.1.2.bmp,ACC022,"[0, 0, 0]","[-3, -3, 0]","[-3, -3, 0]",match,1.591751709536137,,-0.7012854179028549,-0.7318951418498917,-0.11689256808095923,1st,1st,2nd,-1.1954797944843416,-1.0575857075986566,0.005023762327690217
mem,resp,662,1,mem1.2.2.bmp,mem2.2.3.bmp,mem2.2.3.bmp,ACC022,"[-3, 0, 0]","[0, 0, 3]","[0, 0, 3]",match,1.591751709536137,,0.15266579088849866,0.31854412609625826,0.06233941295476352,3rd,3rd,2nd,0.24507002339141434,0.15780465576326086,0.005023762327690217
mem,resp,653,1,mem1.3.3.bmp,mem1.3.1.bmp,mem3.2.1.bmp,ACC022,"[-3, 3, 3]","[-3, 3, -3]","[3, 0, -3]",non-match,0.4884773718476586,1,1.759845387617236,-0.2999907336441395,-0.22965990771585418,4th,2nd,2nd,1.3578858647453997,-0.3197801505003682,0.005023762327690217
mem,resp,767,1,mem2.3.3.bmp,mem2.3.2.bmp,mem1.3.2.bmp,ACC022,"[0, 3, 3]","[0, 3, 0]","[-3, 3, 0]",non-match,1.3030765749413242,4,-0.19911157084825667,-0.8033752012796952,-0.13624479094550246,2nd,1st,2nd,-0.39174609635662544,-1.0575857075986566,0.005023762327690217
mem,resp,1122,0,mem2.2.2.bmp,mem2.1.3.bmp,mem2.2.2.bmp,ACC022,"[0, 0, 0]","[0, -3, 3]","[0, 0, 0]",match,1.591751709536137,,0.9439089064341061,-0.2290450523663318,-0.2255497746142167,4th,2nd,2nd,1.3578858647453997,-0.3197801505003682,0.005023762327690217
mem,resp,716,0,mem1.1.1.bmp,mem3.2.3.bmp,mem2.1.2.bmp,ACC022,"[-3, -3, -3]","[3, 0, 3]","[0, -3, 0]",non-match,1.091751709536137,4,0.3322938359361637,-0.008164360160394435,-0.20437921489083866,3rd,3rd,2nd,0.24507002339141434,0.15780465576326086,0.005023762327690217
mem,resp,1041,1,mem2.2.3.bmp,mem3.1.3.bmp,mem3.1.3.bmp,ACC022,"[0, 0, 3]","[3, -3, 3]","[3, -3, 3]",match,1.591751709536137,,-0.27909391541638184,0.390235571490223,-0.05812104059709454,2nd,3rd,2nd,-0.39174609635662544,0.15780465576326086,0.005023762327690217
mem,resp,905,0,mem3.2.2.bmp,mem1.3.2.bmp,mem1.3.3.bmp,ACC022,"[3, 0, 0]","[-3, 3, 0]","[-3, 3, 3]",non-match,1.0042180842186395,3,-0.9068294735194989,-1.9078123031880225,0.025272163237606726,1st,1st,2nd,-1.1954797944843416,-1.0575857075986566,0.005023762327690217
mem,resp,1191,1,mem3.1.2.bmp,mem2.3.1.bmp,mem3.1.2.bmp,ACC022,"[3, -3, 0]","[0, 3, -3]","[3, -3, 0]",match,1.2928932188134525,,-0.7602093540806021,-2.159606951927744,-0.009062588936610083,1st,1st,2nd,-1.1954797944843416,-1.0575857075986566,0.005023762327690217
mem,resp,771,1,mem1.2.3.bmp,mem3.1.1.bmp,mem1.3.1.bmp,ACC022,"[-3, 0, 3]","[3, -3, -3]","[-3, 3, -3]",non-match,0.5380061947043713,1,-0.4627651287019661,-1.7809474068048212,-0.01538556376093043,2nd,1st,2nd,-0.39174609635662544,-1.0575857075986566,0.005023762327690217
mem,resp,1248,1,mem3.3.2.bmp,mem1.1.3.bmp,mem2.1.1.bmp,ACC022,"[3, 3, 0]","[-3, -3, 3]","[0, -3, -3]",non-match,0.6473959944455496,1,-1.82084367918055,0.007561881009739887,-0.22392342775913507,1st,3rd,2nd,-1.1954797944843416,0.15780465576326086,0.005023762327690217
mem,resp,854,1,mem1.2.1.bmp,mem2.1.2.bmp,mem2.2.3.bmp,ACC022,"[-3, 0, -3]","[0, -3, 0]","[0, 0, 3]",non-match,0.9462544851682343,3,-0.4127158874645108,-0.7977723800250944,-0.022842863830422073,2nd,1st,2nd,-0.39174609635662544,-1.0575857075986566,0.005023762327690217
mem,resp,1029,1,mem2.2.1.bmp,mem1.2.2.bmp,mem3.2.2.bmp,ACC022,"[0, 0, -3]","[-3, 0, 0]","[3, 0, 0]",non-match,1.0144014403465114,3,-1.7153802348013876,-0.15069499879239334,0.25855283316118677,1st,2nd,3rd,-1.1954797944843416,-0.3197801505003682,0.34828658510634847
mem,resp,1078,0,mem2.1.3.bmp,mem1.1.1.bmp,mem2.1.3.bmp,ACC022,"[0, -3, 3]","[-3, -3, -3]","[0, -3, 3]",match,1.3545027756320973,,-1.3438538643761477,0.3782816803095728,0.5088535976585309,1st,3rd,3rd,-1.1954797944843416,0.15780465576326086,0.34828658510634847
mem,resp,609,1,mem3.1.2.bmp,mem3.1.1.bmp,mem1.1.2.bmp,ACC022,"[3, -3, 0]","[3, -3, -3]","[-3, -3, 0]",non-match,0.7771525064424715,2,2.8346493235397463,0.6072587928424056,0.2205619475387139,4th,4th,3rd,1.3578858647453997,1.233476803751534,0.34828658510634847
mem,resp,670,1,mem2.2.2.bmp,mem3.3.2.bmp,mem1.2.1.bmp,ACC022,"[0, 0, 0]","[3, 3, 0]","[-3, 0, -3]",non-match,0.8846449283495895,2,-0.877388618881592,-0.09757545512559697,0.21853839154454233,1st,3rd,3rd,-1.1954797944843416,0.15780465576326086,0.34828658510634847
mem,resp,563,1,mem3.3.3.bmp,mem1.1.3.bmp,mem3.3.1.bmp,ACC022,"[3, 3, 3]","[-3, -3, 3]","[3, 3, -3]",non-match,0.42264973081037427,1,0.9785668711111628,1.1828195419914185,0.23992297446419525,4th,4th,3rd,1.3578858647453997,1.233476803751534,0.34828658510634847
mem,resp,887,0,mem2.1.2.bmp,mem2.3.3.bmp,mem2.3.3.bmp,ACC022,"[0, -3, 0]","[0, 3, 3]","[0, 3, 3]",match,1.3545027756320973,,-0.6957922472460315,0.6068651399020937,0.16608253657142408,2nd,4th,3rd,-0.39174609635662544,1.233476803751534,0.34828658510634847
mem,resp,870,1,mem2.2.3.bmp,mem2.2.1.bmp,mem3.1.2.bmp,ACC022,"[0, 0, 3]","[0, 0, -3]","[3, -3, 0]",non-match,1.0,3,-2.5022148414965493,-0.6007826745866901,0.03514122100315742,1st,1st,2nd,-1.1954797944843416,-1.0575857075986566,0.005023762327690217
mem,resp,672,1,mem2.3.2.bmp,mem2.3.1.bmp,mem1.3.1.bmp,ACC022,"[0, 3, 0]","[0, 3, -3]","[-3, 3, -3]",non-match,1.3030765749413242,4,1.575445413373323,-0.2572137973606513,-0.11646242708755995,4th,2nd,2nd,1.3578858647453997,-0.3197801505003682,0.005023762327690217
mem,resp,1039,1,mem1.3.2.bmp,mem3.2.1.bmp,mem1.3.2.bmp,ACC022,"[-3, 3, 0]","[3, 0, -3]","[-3, 3, 0]",match,1.2928932188134525,,-0.5084536914737993,-0.39551284080317123,0.19203484689374942,2nd,2nd,3rd,-0.39174609635662544,-0.3197801505003682,0.34828658510634847
mem,resp,984,0,mem3.3.1.bmp,mem2.1.3.bmp,mem1.1.1.bmp,ACC022,"[3, 3, -3]","[0, -3, 3]","[-3, -3, -3]",non-match,0.5380061947043713,1,0.38628091403540676,0.03880749927647745,0.44988068724509944,3rd,3rd,3rd,0.24507002339141434,0.15780465576326086,0.34828658510634847
mem,resp,646,1,mem1.3.3.bmp,mem1.2.2.bmp,mem1.2.2.bmp,ACC022,"[-3, 3, 3]","[-3, 0, 0]","[-3, 0, 0]",match,1.591751709536137,,0.4266938392056327,0.06385335703438871,0.39894775223860823,3rd,3rd,3rd,0.24507002339141434,0.15780465576326086,0.34828658510634847
mem,resp,938,1,mem1.2.1.bmp,mem2.3.2.bmp,mem2.3.1.bmp,ACC022,"[-3, 0, -3]","[0, 3, 0]","[0, 3, -3]",non-match,1.3030765749413242,4,-0.07358174669442752,-0.8198169446825416,0.33499337824655046,3rd,1st,3rd,0.24507002339141434,-1.0575857075986566,0.34828658510634847
mem,resp,762,1,mem1.1.3.bmp,mem1.1.2.bmp,mem1.1.3.bmp,ACC022,"[-3, -3, 3]","[-3, -3, 0]","[-3, -3, 3]",match,1.7113248654051871,,-1.6299738592855106,-1.2551555052115622,0.06369016694846696,1st,1st,2nd,-1.1954797944843416,-1.0575857075986566,0.005023762327690217
mem,resp,735,0,mem3.3.2.bmp,mem3.2.2.bmp,mem3.2.2.bmp,ACC022,"[3, 3, 0]","[3, 0, 0]","[3, 0, 0]",match,1.7113248654051871,,0.2189260013188187,-0.0009986045544148057,0.14395698663972217,3rd,3rd,2nd,0.24507002339141434,0.15780465576326086,0.005023762327690217
mem,resp,728,1,mem2.1.1.bmp,mem3.1.3.bmp,mem3.1.3.bmp,ACC022,"[0, -3, -3]","[3, -3, 3]","[3, -3, 3]",match,1.3545027756320973,,-0.2053680156831371,-0.30899963174722045,0.05992254137448733,2nd,2nd,2nd,-0.39174609635662544,-0.3197801505003682,0.005023762327690217
mem,resp,732,1,mem1.3.1.bmp,mem1.3.2.bmp,mem1.3.1.bmp,ACC022,"[-3, 3, -3]","[-3, 3, 0]","[-3, 3, -3]",match,1.7113248654051871,,0.3669837507517907,-0.43020438818525636,0.020224900955809977,3rd,2nd,2nd,0.24507002339141434,-0.3197801505003682,0.005023762327690217
mem,resp,767,0,mem1.1.1.bmp,mem3.2.3.bmp,mem2.1.3.bmp,ACC022,"[-3, -3, -3]","[3, 0, 3]","[0, -3, 3]",non-match,0.9462544851682343,3,-0.5442756420797582,-0.9390148264297973,0.018316129751149105,2nd,1st,2nd,-0.39174609635662544,-1.0575857075986566,0.005023762327690217
mem,resp,493,1,mem2.3.1.bmp,mem1.3.3.bmp,mem2.3.1.bmp,ACC022,"[0, 3, -3]","[-3, 3, 3]","[0, 3, -3]",match,1.3545027756320973,,-0.021851417013935913,-0.5173852966301201,-0.03910261342719086,3rd,2nd,2nd,0.24507002339141434,-0.3197801505003682,0.005023762327690217
mem,resp,666,1,mem3.2.1.bmp,mem2.1.1.bmp,mem3.2.1.bmp,ACC022,"[3, 0, -3]","[0, -3, -3]","[3, 0, -3]",match,1.591751709536137,,0.41126146900099037,-0.2605789287379346,-0.07896610455091384,3rd,2nd,2nd,0.24507002339141434,-0.3197801505003682,0.005023762327690217
mem,resp,669,1,mem3.1.1.bmp,mem2.2.2.bmp,mem3.3.2.bmp,ACC022,"[3, -3, -3]","[0, 0, 0]","[3, 3, 0]",non-match,0.9462544851682343,3,1.1794602468308617,0.7478766717380484,0.00968383867940067,4th,4th,2nd,1.3578858647453997,1.233476803751534,0.005023762327690217
mem,resp,650,1,mem3.1.3.bmp,mem2.1.2.bmp,mem3.3.1.bmp,ACC022,"[3, -3, 3]","[0, -3, 0]","[3, 3, -3]",non-match,0.4763966378857265,1,1.7279510207944706,0.40681500894729844,0.20208573471210295,4th,3rd,3rd,1.3578858647453997,0.15780465576326086,0.34828658510634847
mem,resp,834,1,mem2.3.3.bmp,mem3.3.3.bmp,mem2.3.3.bmp,ACC022,"[0, 3, 3]","[3, 3, 3]","[0, 3, 3]",match,1.7113248654051871,,1.2729559392892986,0.02489513254211577,0.170274816921527,4th,3rd,3rd,1.3578858647453997,0.15780465576326086,0.34828658510634847
mem,resp,554,1,mem1.2.3.bmp,mem2.2.3.bmp,mem3.1.2.bmp,ACC022,"[-3, 0, 3]","[0, 0, 3]","[3, -3, 0]",non-match,0.7928932188134524,2,2.0122522170094137,0.951851505612774,0.23312718684597805,4th,4th,3rd,1.3578858647453997,1.233476803751534,0.34828658510634847
mem,resp,573,1,mem1.2.2.bmp,mem3.3.2.bmp,mem3.3.2.bmp,ACC022,"[-3, 0, 0]","[3, 3, 0]","[3, 3, 0]",match,1.3545027756320973,,0.6811512992727182,-0.8778892008664875,0.10031283074235733,4th,1st,2nd,1.3578858647453997,-1.0575857075986566,0.005023762327690217
mem,resp,918,0,mem2.2.1.bmp,mem1.3.3.bmp,mem2.2.1.bmp,ACC022,"[0, 0, -3]","[-3, 3, 3]","[0, 0, -3]",match,1.2928932188134525,,-1.8866588955544503,-0.34591768850781357,0.049567091782240544,1st,2nd,2nd,-1.1954797944843416,-0.3197801505003682,0.005023762327690217
mem,resp,660,1,mem3.2.2.bmp,mem2.3.3.bmp,mem1.1.1.bmp,ACC022,"[3, 0, 0]","[0, 3, 3]","[-3, -3, -3]",non-match,0.42686781502901383,1,0.2901191580784767,0.16601186044909233,0.284277404951928,3rd,3rd,3rd,0.24507002339141434,0.15780465576326086,0.34828658510634847
mem,resp,875,1,mem3.2.3.bmp,mem1.3.1.bmp,mem2.1.1.bmp,ACC022,"[3, 0, 3]","[-3, 3, -3]","[0, -3, -3]",non-match,0.6473959944455496,1,-0.6184923285833092,-0.8469787987996166,0.3013354140317056,2nd,1st,3rd,-0.39174609635662544,-1.0575857075986566,0.34828658510634847
mem,resp,656,1,mem1.1.2.bmp,mem1.2.2.bmp,mem2.3.2.bmp,ACC022,"[-3, -3, 0]","[-3, 0, 0]","[0, 3, 0]",non-match,0.9462544851682343,3,1.5655647394989973,-0.7838774051777697,0.11345820703002454,4th,1st,2nd,1.3578858647453997,-1.0575857075986566,0.005023762327690217
mem,resp,545,1,mem1.3.2.bmp,mem2.1.3.bmp,mem3.1.1.bmp,ACC022,"[-3, 3, 0]","[0, -3, 3]","[3, -3, -3]",non-match,0.4884773718476586,1,1.7099877912014454,1.703101817999043,0.09747580784382012,4th,4th,2nd,1.3578858647453997,1.233476803751534,0.005023762327690217
mem,resp,689,1,mem3.2.2.bmp,mem1.2.1.bmp,mem2.1.2.bmp,ACC022,"[3, 0, 0]","[-3, 0, -3]","[0, -3, 0]",non-match,1.091751709536137,4,1.710565313104,0.7387270484232834,0.20677874086413728,4th,4th,3rd,1.3578858647453997,1.233476803751534,0.34828658510634847
mem,resp,630,1,mem1.1.1.bmp,mem2.1.1.bmp,mem2.2.3.bmp,ACC022,"[-3, -3, -3]","[0, -3, -3]","[0, 0, 3]",non-match,0.6473959944455496,1,1.9178829903749164,-0.07333663061731872,0.053235861687811206,4th,3rd,2nd,1.3578858647453997,0.15780465576326086,0.005023762327690217
mem,resp,780,1,mem2.2.1.bmp,mem2.3.2.bmp,mem2.2.1.bmp,ACC022,"[0, 0, -3]","[0, 3, 0]","[0, 0, -3]",match,1.591751709536137,,0.6959860476620829,0.8988199648943859,0.19916986155091176,4th,4th,3rd,1.3578858647453997,1.233476803751534,0.34828658510634847
mem,resp,693,1,mem2.3.3.bmp,mem1.1.2.bmp,mem1.1.2.bmp,ACC022,"[0, 3, 3]","[-3, -3, 0]","[-3, -3, 0]",match,1.2928932188134525,,0.6391037360339528,-0.18818644122305173,0.56934108740802,3rd,2nd,3rd,0.24507002339141434,-0.3197801505003682,0.34828658510634847
mem,resp,665,1,mem2.2.2.bmp,mem1.3.2.bmp,mem1.3.2.bmp,ACC022,"[0, 0, 0]","[-3, 3, 0]","[-3, 3, 0]",match,1.591751709536137,,0.4738599373079856,0.3102579354362334,0.5590768305744687,3rd,3rd,3rd,0.24507002339141434,0.15780465576326086,0.34828658510634847
mem,resp,576,1,mem1.1.3.bmp,mem3.2.1.bmp,mem3.2.1.bmp,ACC022,"[-3, -3, 3]","[3, 0, -3]","[3, 0, -3]",match,1.1339745962155614,,0.7700130720670318,0.8663027015385905,0.6474730338110188,4th,4th,4th,1.3578858647453997,1.233476803751534,1.050371891317068
mem,resp,647,1,mem2.2.3.bmp,mem2.3.1.bmp,mem1.3.1.bmp,ACC022,"[0, 0, 3]","[0, 3, -3]","[-3, 3, -3]",non-match,1.0042180842186395,3,0.6705426575158567,-1.09907777916409,0.5221453953379066,3rd,1st,3rd,0.24507002339141434,-1.0575857075986566,0.34828658510634847
mem,resp,820,1,mem2.3.2.bmp,mem3.3.3.bmp,mem2.1.1.bmp,ACC022,"[0, 3, 0]","[3, 3, 3]","[0, -3, -3]",non-match,0.4884773718476586,1,0.16993680268765834,1.2894267410369311,0.4305395902463759,3rd,4th,3rd,0.24507002339141434,1.233476803751534,0.34828658510634847
mem,resp,1268,1,mem3.3.1.bmp,mem3.2.3.bmp,mem3.2.2.bmp,ACC022,"[3, 3, -3]","[3, 0, 3]","[3, 0, 0]",non-match,1.3030765749413242,4,-0.3259491170073591,-0.9814137624713076,0.22107373294128485,2nd,1st,3rd,-0.39174609635662544,-1.0575857075986566,0.34828658510634847
mem,resp,799,1,mem2.1.2.bmp,mem3.1.2.bmp,mem2.1.2.bmp,ACC022,"[0, -3, 0]","[3, -3, 0]","[0, -3, 0]",match,1.7113248654051871,,0.8418284849200479,0.2810366831295254,0.43888257284015425,4th,3rd,3rd,1.3578858647453997,0.15780465576326086,0.34828658510634847
mem,resp,1057,1,mem1.2.1.bmp,mem1.1.3.bmp,mem1.1.3.bmp,ACC022,"[-3, 0, -3]","[-3, -3, 3]","[-3, -3, 3]",match,1.3545027756320973,,-0.9525634326864152,0.0986306712651209,0.5089177549061181,1st,3rd,3rd,-1.1954797944843416,0.15780465576326086,0.34828658510634847
mem,resp,778,1,mem1.2.2.bmp,mem1.3.2.bmp,mem1.3.2.bmp,ACC022,"[-3, 0, 0]","[-3, 3, 0]","[-3, 3, 0]",match,1.7113248654051871,,-0.7398459714903968,0.4659954264821517,0.6868824869737161,1st,3rd,4th,-1.1954797944843416,0.15780465576326086,1.050371891317068
mem,resp,671,0,mem2.3.1.bmp,mem3.1.1.bmp,mem2.2.1.bmp,ACC022,"[0, 3, -3]","[3, -3, -3]","[0, 0, -3]",non-match,1.3030765749413242,4,0.4551111952002181,-1.37409951509918,0.785169937458737,3rd,1st,4th,0.24507002339141434,-1.0575857075986566,1.050371891317068
mem,resp,603,1,mem1.2.1.bmp,mem3.1.2.bmp,mem3.1.2.bmp,ACC022,"[-3, 0, -3]","[3, -3, 0]","[3, -3, 0]",match,1.2928932188134525,,-0.48182195285427365,-1.5252702941379643,0.7554799096709653,2nd,1st,4th,-0.39174609635662544,-1.0575857075986566,1.050371891317068
mem,resp,744,1,mem1.2.3.bmp,mem3.3.3.bmp,mem3.2.1.bmp,ACC022,"[-3, 0, 3]","[3, 3, 3]","[3, 0, -3]",non-match,0.5380061947043713,1,-0.08548781183916791,1.0278014787755723,0.6782487278064265,3rd,4th,4th,0.24507002339141434,1.233476803751534,1.050371891317068
mem,resp,684,1,mem1.1.2.bmp,mem1.2.2.bmp,mem1.1.2.bmp,ACC022,"[-3, -3, 0]","[-3, 0, 0]","[-3, -3, 0]",match,1.7113248654051871,,-1.2398144869624277,-1.0185375404099988,0.8401106495839177,1st,1st,4th,-1.1954797944843416,-1.0575857075986566,1.050371891317068
mem,resp,727,0,mem3.2.2.bmp,mem1.3.2.bmp,mem1.3.2.bmp,ACC022,"[3, 0, 0]","[-3, 3, 0]","[-3, 3, 0]",match,1.3545027756320973,,-0.3018376629379348,0.725002265613395,0.9716711414106923,2nd,4th,4th,-0.39174609635662544,1.233476803751534,1.050371891317068
mem,resp,689,1,mem2.1.2.bmp,mem1.1.3.bmp,mem3.1.1.bmp,ACC022,"[0, -3, 0]","[-3, -3, 3]","[3, -3, -3]",non-match,0.7752551286084112,2,2.661762599676493,0.8312612293893161,0.7629679765190128,4th,4th,4th,1.3578858647453997,1.233476803751534,1.050371891317068
mem,resp,630,1,mem2.2.3.bmp,mem2.3.3.bmp,mem3.1.3.bmp,ACC022,"[0, 0, 3]","[0, 3, 3]","[3, -3, 3]",non-match,0.9462544851682343,3,1.0492384958993997,1.452428177313931,0.6056718896969916,4th,4th,3rd,1.3578858647453997,1.233476803751534,0.34828658510634847
mem,resp,865,1,mem3.2.1.bmp,mem3.3.1.bmp,mem3.3.3.bmp,ACC022,"[3, 0, -3]","[3, 3, -3]","[3, 3, 3]",non-match,0.7771525064424715,2,1.5365801367038796,0.4457908240910329,0.8069469171977193,4th,3rd,4th,1.3578858647453997,0.15780465576326086,1.050371891317068
mem,resp,687,1,mem2.1.1.bmp,mem1.2.1.bmp,mem2.2.2.bmp,ACC022,"[0, -3, -3]","[-3, 0, -3]","[0, 0, 0]",non-match,1.1835034190722742,4,0.26664262167121555,-0.41586567176295375,1.0033566386141708,3rd,2nd,4th,0.24507002339141434,-0.3197801505003682,1.050371891317068
mem,resp,972,0,mem2.3.2.bmp,mem1.3.3.bmp,mem1.3.3.bmp,ACC022,"[0, 3, 0]","[-3, 3, 3]","[-3, 3, 3]",match,1.591751709536137,,-0.0723865154860812,-0.03615978257761158,0.806976704864115,3rd,3rd,4th,0.24507002339141434,0.15780465576326086,1.050371891317068
mem,resp,906,1,mem1.3.2.bmp,mem3.1.3.bmp,mem3.1.3.bmp,ACC022,"[-3, 3, 0]","[3, -3, 3]","[3, -3, 3]",match,1.1339745962155614,,0.09704923807071468,1.1425731252718492,0.746442683873212,3rd,4th,4th,0.24507002339141434,1.233476803751534,1.050371891317068
mem,resp,689,1,mem3.1.2.bmp,mem2.1.3.bmp,mem3.2.2.bmp,ACC022,"[3, -3, 0]","[0, -3, 3]","[3, 0, 0]",non-match,1.2113248654051871,4,0.3326321157229826,-0.529948947370296,0.32276764351633336,3rd,2nd,3rd,0.24507002339141434,-0.3197801505003682,0.34828658510634847
mem,resp,793,1,mem1.1.1.bmp,mem2.1.2.bmp,mem1.1.1.bmp,ACC022,"[-3, -3, -3]","[0, -3, 0]","[-3, -3, -3]",match,1.591751709536137,,0.21140510559169653,-0.3960626231979717,0.3768784973546068,3rd,2nd,3rd,0.24507002339141434,-0.3197801505003682,0.34828658510634847
mem,resp,663,1,mem3.3.1.bmp,mem2.3.1.bmp,mem2.3.1.bmp,ACC022,"[3, 3, -3]","[0, 3, -3]","[0, 3, -3]",match,1.7113248654051871,,-1.4300195322318074,-0.3661004268123715,0.3667772052276934,1st,2nd,3rd,-1.1954797944843416,-0.3197801505003682,0.34828658510634847
mem,resp,1240,0,mem3.1.3.bmp,mem1.2.3.bmp,mem3.1.3.bmp,ACC022,"[3, -3, 3]","[-3, 0, 3]","[3, -3, 3]",match,1.3545027756320973,,-2.4441209107582376,-2.3882819161387867,0.3575247562227334,1st,1st,3rd,-1.1954797944843416,-1.0575857075986566,0.34828658510634847
mem,resp,772,1,mem3.3.3.bmp,mem3.3.2.bmp,mem2.3.3.bmp,ACC022,"[3, 3, 3]","[3, 3, 0]","[0, 3, 3]",non-match,1.3030765749413242,4,1.9952922019357244,-0.9867296175897942,0.520363668535125,4th,1st,3rd,1.3578858647453997,-1.0575857075986566,0.34828658510634847
mem,resp,1311,0,mem2.1.3.bmp,mem2.2.1.bmp,mem1.3.3.bmp,ACC022,"[0, -3, 3]","[0, 0, -3]","[-3, 3, 3]",non-match,0.6473959944455496,1,-1.6323925704304283,-2.0011827668308535,0.5148147255222828,1st,1st,3rd,-1.1954797944843416,-1.0575857075986566,0.34828658510634847
mem,resp,955,1,mem3.2.3.bmp,mem1.1.2.bmp,mem3.1.2.bmp,ACC022,"[3, 0, 3]","[-3, -3, 0]","[3, -3, 0]",non-match,1.0144014403465114,3,-1.185927371949955,-0.7103641347711009,0.4642076433431362,1st,1st,3rd,-1.1954797944843416,-1.0575857075986566,0.34828658510634847
mem,resp,697,1,mem3.1.1.bmp,mem2.1.1.bmp,mem2.1.1.bmp,ACC022,"[3, -3, -3]","[0, -3, -3]","[0, -3, -3]",match,1.7113248654051871,,-1.3667368329392517,-0.4153370080881274,0.14240480253937757,1st,2nd,2nd,-1.1954797944843416,-0.3197801505003682,0.005023762327690217
mem,resp,668,1,mem1.3.1.bmp,mem3.3.2.bmp,mem3.1.3.bmp,ACC022,"[-3, 3, -3]","[3, 3, 0]","[3, -3, 3]",non-match,0.3545027756320972,1,1.5002162518753497,0.7408439889134564,-0.14502007509054413,4th,4th,2nd,1.3578858647453997,1.233476803751534,0.005023762327690217
mem,resp,669,1,mem2.2.1.bmp,mem2.3.1.bmp,mem3.2.1.bmp,ACC022,"[0, 0, -3]","[0, 3, -3]","[3, 0, -3]",non-match,1.3030765749413242,4,0.11287648568383819,-1.2372880246005082,-0.13738242933050948,3rd,1st,2nd,0.24507002339141434,-1.0575857075986566,0.005023762327690217
mem,resp,613,1,mem2.2.2.bmp,mem2.3.3.bmp,mem3.3.1.bmp,ACC022,"[0, 0, 0]","[0, 3, 3]","[3, 3, -3]",non-match,0.8545027756320972,2,1.768571491572496,0.56939516402915,-0.20867324804240844,4th,4th,2nd,1.3578858647453997,1.233476803751534,0.005023762327690217
mem,resp,757,1,mem1.2.2.bmp,mem3.2.2.bmp,mem2.3.2.bmp,ACC022,"[-3, 0, 0]","[3, 0, 0]","[0, 3, 0]",non-match,1.1835034190722742,4,0.9225480276927774,-0.6916945403298892,-0.23036929326471292,4th,1st,1st,1.3578858647453997,-1.0575857075986566,-1.3854525992868068
mem,resp,940,1,mem1.3.3.bmp,mem2.1.3.bmp,mem1.1.2.bmp,ACC022,"[-3, 3, 3]","[0, -3, 3]","[-3, -3, 0]",non-match,0.9462544851682343,3,-0.48258611814036295,0.35730746207150305,-0.6898233792121494,2nd,3rd,1st,-0.39174609635662544,0.15780465576326086,-1.3854525992868068
mem,resp,622,1,mem3.3.2.bmp,mem3.1.2.bmp,mem1.1.1.bmp,ACC022,"[3, 3, 0]","[3, -3, 0]","[-3, -3, -3]",non-match,0.4884773718476586,1,1.2378908666314878,0.051932758894638484,-0.6385926418837469,4th,3rd,1st,1.3578858647453997,0.15780465576326086,-1.3854525992868068
mem,resp,775,1,mem1.1.3.bmp,mem2.2.3.bmp,mem1.1.3.bmp,ACC022,"[-3, -3, 3]","[0, 0, 3]","[-3, -3, 3]",match,1.591751709536137,,-0.10492985582651486,-0.07380129214784827,-0.5775133050277932,2nd,3rd,1st,-0.39174609635662544,0.15780465576326086,-1.3854525992868068
mem,resp,554,1,mem2.3.3.bmp,mem1.3.2.bmp,mem3.2.2.bmp,ACC022,"[0, 3, 3]","[-3, 3, 0]","[3, 0, 0]",non-match,0.8545027756320972,2,2.2142367776295977,-0.04834051365633344,-0.5903090494315845,4th,3rd,1st,1.3578858647453997,0.15780465576326086,-1.3854525992868068
mem,resp,937,1,mem3.2.1.bmp,mem1.2.3.bmp,mem3.2.1.bmp,ACC022,"[3, 0, -3]","[-3, 0, 3]","[3, 0, -3]",match,1.1835034190722742,,-0.30160460103975845,-0.5897916479635275,-0.5859759320145204,2nd,2nd,1st,-0.39174609635662544,-0.3197801505003682,-1.3854525992868068
mem,resp,913,0,mem2.1.1.bmp,mem2.3.2.bmp,mem2.1.2.bmp,ACC022,"[0, -3, -3]","[0, 3, 0]","[0, -3, 0]",non-match,1.1339745962155614,4,-1.176612943983823,-0.35315803046363003,-0.5375831091789081,1st,2nd,1st,-1.1954797944843416,-0.3197801505003682,-1.3854525992868068
mem,resp,988,1,mem3.3.3.bmp,mem1.1.3.bmp,mem3.3.3.bmp,ACC022,"[3, 3, 3]","[-3, -3, 3]","[3, 3, 3]",match,1.1835034190722742,,1.120559283072491,0.9942197325508864,-0.6242133457838673,4th,4th,1st,1.3578858647453997,1.233476803751534,-1.3854525992868068
mem,resp,762,1,mem1.3.3.bmp,mem3.3.1.bmp,mem3.2.2.bmp,ACC022,"[-3, 3, 3]","[3, 3, -3]","[3, 0, 0]",non-match,0.8846449283495895,2,2.1014526734239083,0.46247053819965506,-0.684113357885711,4th,3rd,1st,1.3578858647453997,0.15780465576326086,-1.3854525992868068
mem,resp,704,1,mem3.1.1.bmp,mem2.2.2.bmp,mem1.2.1.bmp,ACC022,"[3, -3, -3]","[0, 0, 0]","[-3, 0, -3]",non-match,0.9462544851682343,3,2.0041308972355214,0.7717750127892427,-0.6307183869240167,4th,4th,1st,1.3578858647453997,1.233476803751534,-1.3854525992868068
mem,resp,1070,0,mem1.3.1.bmp,mem1.2.2.bmp,mem1.2.2.bmp,ACC022,"[-3, 3, -3]","[-3, 0, 0]","[-3, 0, 0]",match,1.591751709536137,,-0.80085386223467,-2.4159517624306663,-1.0545582357588261,1st,1st,1st,-1.1954797944843416,-1.0575857075986566,-1.3854525992868068
mem,resp,1083,1,mem2.3.2.bmp,mem3.3.3.bmp,mem2.3.2.bmp,ACC022,"[0, 3, 0]","[3, 3, 3]","[0, 3, 0]",match,1.591751709536137,,0.39464713771192705,-1.0947893373495519,-1.0849620323922937,3rd,1st,1st,0.24507002339141434,-1.0575857075986566,-1.3854525992868068
mem,resp,977,1,mem3.3.1.bmp,mem3.1.3.bmp,mem3.1.3.bmp,ACC022,"[3, 3, -3]","[3, -3, 3]","[3, -3, 3]",match,1.1835034190722742,,-0.9765721987138213,-0.05090407780562308,-1.1531318172842917,1st,3rd,1st,-1.1954797944843416,0.15780465576326086,-1.3854525992868068
mem,resp,640,1,mem2.2.2.bmp,mem2.1.2.bmp,mem2.1.2.bmp,ACC022,"[0, 0, 0]","[0, -3, 0]","[0, -3, 0]",match,1.7113248654051871,,1.5662145947998496,-0.00727891434577592,-1.0868568233968336,4th,3rd,1st,1.3578858647453997,0.15780465576326086,-1.3854525992868068
mem,resp,864,1,mem1.1.3.bmp,mem1.1.1.bmp,mem1.1.3.bmp,ACC022,"[-3, -3, 3]","[-3, -3, -3]","[-3, -3, 3]",match,1.4226497308103743,,-0.08692998473834411,-0.6526349956728474,-0.8153649306225373,3rd,1st,1st,0.24507002339141434,-1.0575857075986566,-1.3854525992868068
mem,resp,869,0,mem2.2.1.bmp,mem2.1.1.bmp,mem2.2.1.bmp,ACC022,"[0, 0, -3]","[0, -3, -3]","[0, 0, -3]",match,1.7113248654051871,,-0.4046248234636429,0.46398383113631814,-0.871392395397103,2nd,3rd,1st,-0.39174609635662544,0.15780465576326086,-1.3854525992868068
mem,resp,568,1,mem1.2.2.bmp,mem1.1.2.bmp,mem3.3.2.bmp,ACC022,"[-3, 0, 0]","[-3, -3, 0]","[3, 3, 0]",non-match,0.5380061947043713,1,1.399175913018997,-0.10389134374872486,-0.9789994555619979,4th,2nd,1st,1.3578858647453997,-0.3197801505003682,-1.3854525992868068
mem,resp,664,1,mem2.1.2.bmp,mem2.1.1.bmp,mem2.1.1.bmp,ACC022,"[0, -3, 0]","[0, -3, -3]","[0, -3, -3]",match,1.7113248654051871,,1.5670885454222718,1.9744489463497978,-1.210979564653226,4th,4th,1st,1.3578858647453997,1.233476803751534,-1.3854525992868068
mem,resp,445,1,mem1.2.2.bmp,mem1.1.3.bmp,mem1.1.3.bmp,ACC022,"[-3, 0, 0]","[-3, -3, 3]","[-3, -3, 3]",match,1.591751709536137,,0.3905510198533406,-0.39443474257128514,-1.234896658887889,3rd,2nd,1st,0.24507002339141434,-0.3197801505003682,-1.3854525992868068
mem,resp,676,1,mem1.2.3.bmp,mem3.1.2.bmp,mem1.2.3.bmp,ACC022,"[-3, 0, 3]","[3, -3, 0]","[-3, 0, 3]",match,1.2928932188134525,,0.5066830524634404,0.7879623874213937,-1.0767269102485801,3rd,4th,1st,0.24507002339141434,1.233476803751534,-1.3854525992868068
mem,resp,738,1,mem3.2.2.bmp,mem1.2.1.bmp,mem2.3.3.bmp,ACC022,"[3, 0, 0]","[-3, 0, -3]","[0, 3, 3]",non-match,0.7928932188134524,2,0.05196132896220032,0.7879957798445054,-1.2949463521981224,3rd,4th,1st,0.24507002339141434,1.233476803751534,-1.3854525992868068
mem,resp,821,1,mem3.2.1.bmp,mem1.1.2.bmp,mem2.1.3.bmp,ACC022,"[3, 0, -3]","[-3, -3, 0]","[0, -3, 3]",non-match,0.8846449283495895,2,0.7055244103225481,-0.1494171920062139,-1.4198612808532178,4th,2nd,1st,1.3578858647453997,-0.3197801505003682,-1.3854525992868068
mem,resp,632,1,mem1.3.1.bmp,mem1.3.2.bmp,mem3.2.3.bmp,ACC022,"[-3, 3, -3]","[-3, 3, 0]","[3, 0, 3]",non-match,0.42686781502901383,1,2.116655953813061,-0.3609194830461881,-1.7066994692409059,4th,2nd,1st,1.3578858647453997,-0.3197801505003682,-1.3854525992868068
mem,resp,726,1,mem3.3.2.bmp,mem3.3.1.bmp,mem3.3.2.bmp,ACC022,"[3, 3, 0]","[3, 3, -3]","[3, 3, 0]",match,1.7113248654051871,,-0.7576863702575856,-0.6727922424401189,-1.6581601542070574,1st,1st,1st,-1.1954797944843416,-1.0575857075986566,-1.3854525992868068
mem,resp,669,1,mem3.1.3.bmp,mem3.3.3.bmp,mem2.2.3.bmp,ACC022,"[3, -3, 3]","[3, 3, 3]","[0, 0, 3]",non-match,1.1835034190722742,4,1.5742917392637117,0.5132519662642699,-1.5416672592363816,4th,4th,1st,1.3578858647453997,1.233476803751534,-1.3854525992868068
mem,resp,1212,1,mem2.2.2.bmp,mem1.2.2.bmp,mem2.2.2.bmp,ACC022,"[0, 0, 0]","[-3, 0, 0]","[0, 0, 0]",match,1.7113248654051871,,-0.5415507874459918,-0.7169496970255179,-1.6809348536865223,2nd,1st,1st,-0.39174609635662544,-1.0575857075986566,-1.3854525992868068
mem,resp,884,1,mem2.1.3.bmp,mem1.3.3.bmp,mem2.1.3.bmp,ACC022,"[0, -3, 3]","[-3, 3, 3]","[0, -3, 3]",match,1.3545027756320973,,0.20706341650257265,-0.29320595974648733,-1.6586880637244954,3rd,2nd,1st,0.24507002339141434,-0.3197801505003682,-1.3854525992868068
mem,resp,766,1,mem2.3.1.bmp,mem2.3.2.bmp,mem2.3.1.bmp,ACC022,"[0, 3, -3]","[0, 3, 0]","[0, 3, -3]",match,1.7113248654051871,,-0.29192732545423317,-0.38359631733409816,-1.7431811468846958,2nd,2nd,1st,-0.39174609635662544,-0.3197801505003682,-1.3854525992868068
mem,resp,800,1,mem1.3.2.bmp,mem2.3.3.bmp,mem1.3.2.bmp,ACC022,"[-3, 3, 0]","[0, 3, 3]","[-3, 3, 0]",match,1.591751709536137,,-0.5581413363060992,-1.3660990731431772,-1.664999360843504,2nd,1st,1st,-0.39174609635662544,-1.0575857075986566,-1.3854525992868068
mem,resp,823,1,mem3.3.1.bmp,mem2.2.3.bmp,mem2.2.3.bmp,ACC022,"[3, 3, -3]","[0, 0, 3]","[0, 0, 3]",match,1.2928932188134525,,1.0322749494638634,-0.41607278429201394,-1.8255364740038644,4th,2nd,1st,1.3578858647453997,-0.3197801505003682,-1.3854525992868068
mem,resp,847,1,mem1.2.1.bmp,mem2.2.2.bmp,mem1.1.1.bmp,ACC022,"[-3, 0, -3]","[0, 0, 0]","[-3, -3, -3]",non-match,1.2113248654051871,4,0.9811440786181057,0.9541705895214256,-1.84367414483009,4th,4th,1st,1.3578858647453997,1.233476803751534,-1.3854525992868068
mem,resp,680,1,mem1.1.3.bmp,mem3.3.2.bmp,mem3.3.2.bmp,ACC022,"[-3, -3, 3]","[3, 3, 0]","[3, 3, 0]",match,1.1339745962155614,,0.3931252359852331,-0.35110961400838336,-1.8583838930331624,3rd,2nd,1st,0.24507002339141434,-0.3197801505003682,-1.3854525992868068
mem,resp,1055,1,mem2.1.1.bmp,mem3.2.1.bmp,mem3.2.1.bmp,ACC022,"[0, -3, -3]","[3, 0, -3]","[3, 0, -3]",match,1.591751709536137,,0.1762825433424447,-0.04843279003984273,-2.178290604582115,3rd,3rd,1st,0.24507002339141434,0.15780465576326086,-1.3854525992868068
mem,resp,1159,0,mem3.1.2.bmp,mem1.2.3.bmp,mem1.3.3.bmp,ACC022,"[3, -3, 0]","[-3, 0, 3]","[-3, 3, 3]",non-match,0.8452994616207485,2,-0.8114016156665597,-1.0329939999075437,-2.423963226566521,1st,1st,1st,-1.1954797944843416,-1.0575857075986566,-1.3854525992868068
mem,resp,915,0,mem3.3.3.bmp,mem2.3.1.bmp,mem3.3.3.bmp,ACC022,"[3, 3, 3]","[0, 3, -3]","[3, 3, 3]",match,1.3545027756320973,,-0.3515602073488468,0.35712221362900365,-2.2389906516422076,2nd,3rd,1st,-0.39174609635662544,0.15780465576326086,-1.3854525992868068
mem,resp,658,1,mem3.2.3.bmp,mem3.1.3.bmp,mem3.2.3.bmp,ACC022,"[3, 0, 3]","[3, -3, 3]","[3, 0, 3]",match,1.7113248654051871,,-0.0967475408732026,-0.7449646977384281,-2.248564063465595,3rd,1st,1st,0.24507002339141434,-1.0575857075986566,-1.3854525992868068
mem,resp,648,1,mem2.2.1.bmp,mem3.1.1.bmp,mem1.2.1.bmp,ACC022,"[0, 0, -3]","[3, -3, -3]","[-3, 0, -3]",non-match,1.0658276410372842,3,1.3262036187611854,-0.533114767722133,-2.4076879163248632,4th,2nd,1st,1.3578858647453997,-0.3197801505003682,-1.3854525992868068
mem,resp,760,0,mem1.1.1.bmp,mem2.2.2.bmp,mem1.1.1.bmp,ACC022,"[-3, -3, -3]","[0, 0, 0]","[-3, -3, -3]",match,1.5,,-0.3691861130240953,0.603397297009079,-2.591802760162336,2nd,4th,1st,-0.39174609635662544,1.233476803751534,-1.3854525992868068
mem,resp,447,1,mem1.1.2.bmp,mem1.2.3.bmp,mem1.1.2.bmp,ACC022,"[-3, -3, 0]","[-3, 0, 3]","[-3, -3, 0]",match,1.591751709536137,,-0.4906647634331192,0.5005717898809442,-2.50944747283065,2nd,4th,1st,-0.39174609635662544,1.233476803751534,-1.3854525992868068
mem,resp,690,0,mem2.3.2.bmp,mem2.2.3.bmp,mem2.3.2.bmp,ACC022,"[0, 3, 0]","[0, 0, 3]","[0, 3, 0]",match,1.591751709536137,,1.9457826011131076,0.3342365773144344,-2.619938499154839,4th,3rd,1st,1.3578858647453997,0.15780465576326086,-1.3854525992868068
mem,resp,601,0,mem1.3.3.bmp,mem2.1.2.bmp,mem1.2.2.bmp,ACC022,"[-3, 3, 3]","[0, -3, 0]","[-3, 0, 0]",non-match,1.1835034190722742,4,0.35448379435269683,0.7305907261384144,-2.501688003335099,3rd,4th,1st,0.24507002339141434,1.233476803751534,-1.3854525992868068
mem,resp,917,1,mem3.1.1.bmp,mem3.2.2.bmp,mem3.1.1.bmp,ACC022,"[3, -3, -3]","[3, 0, 0]","[3, -3, -3]",match,1.591751709536137,,1.2058892768429181,0.31242933737838663,-2.544564757654059,4th,3rd,1st,1.3578858647453997,0.15780465576326086,-1.3854525992868068
mem,resp,670,1,mem2.3.3.bmp,mem2.3.1.bmp,mem1.1.1.bmp,ACC022,"[0, 3, 3]","[0, 3, -3]","[-3, -3, -3]",non-match,0.4884773718476586,1,1.513085160876045,-0.5798163572344458,-2.4302574203732976,4th,2nd,1st,1.3578858647453997,-0.3197801505003682,-1.3854525992868068
mem,resp,804,1,mem2.2.3.bmp,mem2.1.3.bmp,mem2.1.1.bmp,ACC022,"[0, 0, 3]","[0, -3, 3]","[0, -3, -3]",non-match,0.7771525064424715,2,1.1825128543005103,-0.9034155467721329,-2.4143804074455835,4th,1st,1st,1.3578858647453997,-1.0575857075986566,-1.3854525992868068
mem,resp,1371,1,mem1.3.2.bmp,mem3.3.3.bmp,mem3.2.3.bmp,ACC022,"[-3, 3, 0]","[3, 3, 3]","[3, 0, 3]",non-match,1.0042180842186395,3,0.3868395212674982,0.7790824874290232,-2.6013024942167204,3rd,4th,1st,0.24507002339141434,1.233476803751534,-1.3854525992868068
mem,resp,693,1,mem2.2.2.bmp,mem3.2.1.bmp,mem1.2.1.bmp,ACC022,"[0, 0, 0]","[3, 0, -3]","[-3, 0, -3]",non-match,1.0144014403465114,3,-0.7638188700403571,0.42838840253935495,-2.5576837248065436,1st,3rd,1st,-1.1954797944843416,0.15780465576326086,-1.3854525992868068
mem,resp,1289,0,mem3.1.2.bmp,mem3.1.3.bmp,mem3.1.3.bmp,ACC022,"[3, -3, 0]","[3, -3, 3]","[3, -3, 3]",match,1.7113248654051871,,-0.05827265169983408,-1.497805050974301,-2.5707469244254204,3rd,1st,1st,0.24507002339141434,-1.0575857075986566,-1.3854525992868068
mem,resp,853,1,mem2.1.2.bmp,mem3.3.2.bmp,mem2.1.2.bmp,ACC022,"[0, -3, 0]","[3, 3, 0]","[0, -3, 0]",match,1.3545027756320973,,-0.22275424556080867,-0.4676143868934746,-2.4543113155526304,2nd,2nd,1st,-0.39174609635662544,-0.3197801505003682,-1.3854525992868068
mem,resp,739,0,mem3.1.1.bmp,mem1.3.3.bmp,mem1.3.2.bmp,ACC022,"[3, -3, -3]","[-3, 3, 3]","[-3, 3, 0]",non-match,0.8452994616207485,2,0.4059538715063094,-0.4707567530433643,-2.5870343971946452,3rd,2nd,1st,0.24507002339141434,-0.3197801505003682,-1.3854525992868068
mem,resp,538,0,mem3.2.1.bmp,mem2.1.1.bmp,mem3.2.2.bmp,ACC022,"[3, 0, -3]","[0, -3, -3]","[3, 0, 0]",non-match,1.2113248654051871,4,-1.0964399187051888,0.01813967639689766,-2.7507799339665397,1st,3rd,1st,-1.1954797944843416,0.15780465576326086,-1.3854525992868068
mem,resp,661,0,mem1.3.1.bmp,mem1.2.2.bmp,mem1.2.3.bmp,ACC022,"[-3, 3, -3]","[-3, 0, 0]","[-3, 0, 3]",non-match,1.0658276410372842,3,-0.8657546585192331,-1.2133468249705432,-2.7366801561754577,1st,1st,1st,-1.1954797944843416,-1.0575857075986566,-1.3854525992868068
mem,resp,612,0,mem3.1.3.bmp,mem1.2.1.bmp,mem2.3.3.bmp,ACC022,"[3, -3, 3]","[-3, 0, -3]","[0, 3, 3]",non-match,0.6473959944455496,1,-0.7127813669581398,1.4670077465261464,-2.6237905085561173,1st,4th,1st,-1.1954797944843416,1.233476803751534,-1.3854525992868068
mem,resp,676,0,mem3.3.3.bmp,mem1.1.2.bmp,mem3.3.2.bmp,ACC022,"[3, 3, 3]","[-3, -3, 0]","[3, 3, 0]",non-match,0.8948282844774612,2,0.21286031362641386,-0.34795661396184835,-2.204381476193687,3rd,2nd,1st,0.24507002339141434,-0.3197801505003682,-1.3854525992868068
mem,resp,687,1,mem2.3.2.bmp,mem1.1.3.bmp,mem3.1.1.bmp,ACC022,"[0, 3, 0]","[-3, -3, 3]","[3, -3, -3]",non-match,0.4763966378857265,1,1.2426107061264715,0.5301867945101754,-2.063889412360063,4th,4th,1st,1.3578858647453997,1.233476803751534,-1.3854525992868068
mem,resp,780,0,mem1.2.3.bmp,mem2.2.1.bmp,mem1.3.3.bmp,ACC022,"[-3, 0, 3]","[0, 0, -3]","[-3, 3, 3]",non-match,1.0042180842186395,3,-0.4180224640789026,-0.2698783210456434,-2.06261818196994,2nd,2nd,1st,-0.39174609635662544,-0.3197801505003682,-1.3854525992868068
mem,resp,833,0,mem3.2.3.bmp,mem3.3.1.bmp,mem3.2.3.bmp,ACC022,"[3, 0, 3]","[3, 3, -3]","[3, 0, 3]",match,1.3545027756320973,,-0.7570835151356314,-0.6236951937895077,-2.0368729301992006,1st,1st,1st,-1.1954797944843416,-1.0575857075986566,-1.3854525992868068
