mode,type,rt,acc,item_1,item_2,item_cue,subj_idx,item_1_number,item_2_number,item_cue_number,trial_type,summed_similarity,similarity_bin,ams,pams,slps,ams_quantile,pams_quantile,slps_quantile,ams_bin,pam_bin,slp_bin
mem,resp,808,1,mem1.1.3.bmp,mem1.1.1.bmp,mem1.3.3.bmp,ACC028,"[-3, -3, 3]","[-3, -3, -3]","[-3, 3, 3]",non-match,0.6061531498826483,1,-0.1976983587007822,-1.1891738752636958,-0.03782936376024442,2nd,1st,2nd,-0.2911723378696163,-1.1846955799739554,-0.3654042884091494
mem,resp,823,1,mem2.3.3.bmp,mem1.3.1.bmp,mem3.1.3.bmp,ACC028,"[0, 3, 3]","[-3, 3, -3]","[3, -3, 3]",non-match,0.3545027756320972,1,0.014962173466451302,0.6453282127214323,-0.3619283854707889,3rd,4th,2nd,0.2704410385133673,1.3039750494955062,-0.3654042884091494
mem,resp,651,1,mem2.1.2.bmp,mem2.2.2.bmp,mem1.2.1.bmp,ACC028,"[0, -3, 0]","[0, 0, 0]","[-3, 0, -3]",non-match,1.091751709536137,4,-0.2744624816766408,0.2449324706172542,0.02126587447941656,2nd,3rd,2nd,-0.2911723378696163,0.2528397677227245,-0.3654042884091494
mem,resp,666,1,mem2.3.2.bmp,mem2.2.1.bmp,mem1.2.3.bmp,ACC028,"[0, 3, 0]","[0, 0, -3]","[-3, 0, 3]",non-match,0.8545027756320972,2,0.6590617091054258,0.3020319507451488,0.36673177448523053,4th,3rd,3rd,1.3051260276041958,0.2528397677227245,0.37232018430069913
mem,resp,1067,0,mem3.3.2.bmp,mem1.3.3.bmp,mem3.2.1.bmp,ACC028,"[3, 3, 0]","[-3, 3, 3]","[3, 0, -3]",non-match,0.7257263057516985,2,0.14534743812987616,-0.46299704458383395,0.6126753918816729,3rd,2nd,3rd,0.2704410385133673,-0.3688356038972274,0.37232018430069913
mem,resp,783,1,mem1.2.2.bmp,mem3.3.1.bmp,mem2.1.3.bmp,ACC028,"[-3, 0, 0]","[3, 3, -3]","[0, -3, 3]",non-match,0.6339745962155614,1,-0.8176613206540659,-0.1883286135282038,0.593272314190019,1st,2nd,3rd,-1.2808825069685528,-0.3688356038972274,0.37232018430069913
mem,resp,778,1,mem1.1.1.bmp,mem3.1.2.bmp,mem3.1.2.bmp,ACC028,"[-3, -3, -3]","[3, -3, 0]","[3, -3, 0]",match,1.3545027756320973,,0.28354434292728764,0.9207590851343176,0.929031066231385,3rd,4th,4th,0.2704410385133673,1.3039750494955062,1.28442901989045
mem,resp,1460,1,mem1.3.1.bmp,mem2.2.3.bmp,mem2.2.2.bmp,ACC028,"[-3, 3, -3]","[0, 0, 3]","[0, 0, 0]",non-match,1.2113248654051871,4,-0.7566330846351782,0.44341331012165774,1.1059731632316738,1st,3rd,4th,-1.2808825069685528,0.2528397677227245,1.28442901989045
mem,resp,727,1,mem3.2.3.bmp,mem1.2.3.bmp,mem1.2.3.bmp,ACC028,"[3, 0, 3]","[-3, 0, 3]","[-3, 0, 3]",match,1.4226497308103743,,-1.7894041299272574,-0.6165628409347985,0.89776659890662,1st,2nd,4th,-1.2808825069685528,-0.3688356038972274,1.28442901989045
mem,resp,1226,1,mem2.1.3.bmp,mem3.2.2.bmp,mem2.1.3.bmp,ACC028,"[0, -3, 3]","[3, 0, 0]","[0, -3, 3]",match,1.5,,-0.11152628279349303,0.020361055834890663,1.199793458035915,2nd,3rd,4th,-0.2911723378696163,0.2528397677227245,1.28442901989045
mem,resp,712,1,mem1.3.3.bmp,mem2.3.1.bmp,mem3.1.2.bmp,ACC028,"[-3, 3, 3]","[0, 3, -3]","[3, -3, 0]",non-match,0.42686781502901383,1,-0.13341801089573752,0.023070072023772165,1.4057412009763368,2nd,3rd,4th,-0.2911723378696163,0.2528397677227245,1.28442901989045
mem,resp,1109,1,mem2.1.1.bmp,mem1.2.1.bmp,mem2.1.1.bmp,ACC028,"[0, -3, -3]","[-3, 0, -3]","[0, -3, -3]",match,1.591751709536137,,0.5293841983474228,0.829497584139917,1.4945647834963598,3rd,4th,4th,0.2704410385133673,1.3039750494955062,1.28442901989045
mem,resp,1261,1,mem2.2.2.bmp,mem3.2.1.bmp,mem2.2.2.bmp,ACC028,"[0, 0, 0]","[3, 0, -3]","[0, 0, 0]",match,1.591751709536137,,-2.065346044055842,-0.30845338153533153,1.5329871813867324,1st,2nd,4th,-1.2808825069685528,-0.3688356038972274,1.28442901989045
mem,resp,869,1,mem1.2.3.bmp,mem1.1.2.bmp,mem1.3.2.bmp,ACC028,"[-3, 0, 3]","[-3, -3, 0]","[-3, 3, 0]",non-match,1.0144014403465114,3,1.338593701314176,-0.3533773660530874,1.265012823822598,4th,2nd,4th,1.3051260276041958,-0.3688356038972274,1.28442901989045
mem,resp,897,1,mem2.2.1.bmp,mem1.2.2.bmp,mem1.2.2.bmp,ACC028,"[0, 0, -3]","[-3, 0, 0]","[-3, 0, 0]",match,1.591751709536137,,-1.4173444168591702,-1.151311568514258,1.1968454093556484,1st,1st,4th,-1.2808825069685528,-1.1846955799739554,1.28442901989045
mem,resp,937,1,mem3.3.3.bmp,mem3.1.3.bmp,mem3.1.3.bmp,ACC028,"[3, 3, 3]","[3, -3, 3]","[3, -3, 3]",match,1.4226497308103743,,-1.1033489788816493,1.3141354580513331,1.2481013749439147,1st,4th,4th,-1.2808825069685528,1.3039750494955062,1.28442901989045
mem,resp,603,1,mem2.2.3.bmp,mem3.1.1.bmp,mem3.1.1.bmp,ACC028,"[0, 0, 3]","[3, -3, -3]","[3, -3, -3]",match,1.2928932188134525,,1.459161925983378,1.4295114204099522,1.2309835888146796,4th,4th,4th,1.3051260276041958,1.3039750494955062,1.28442901989045
mem,resp,648,1,mem3.2.1.bmp,mem3.3.2.bmp,mem1.2.3.bmp,ACC028,"[3, 0, -3]","[3, 3, 0]","[-3, 0, 3]",non-match,0.4763966378857265,1,0.47718048055425344,1.7040900034241466,1.4227125806848326,3rd,4th,4th,0.2704410385133673,1.3039750494955062,1.28442901989045
mem,resp,883,1,mem1.2.1.bmp,mem2.1.2.bmp,mem2.3.2.bmp,ACC028,"[-3, 0, -3]","[0, -3, 0]","[0, 3, 0]",non-match,0.9226497308103743,3,-1.1511722073544306,-0.2628588670935206,1.3812895854392349,1st,2nd,4th,-1.2808825069685528,-0.3688356038972274,1.28442901989045
mem,resp,971,0,mem1.3.2.bmp,mem2.1.1.bmp,mem2.1.1.bmp,ACC028,"[-3, 3, 0]","[0, -3, -3]","[0, -3, -3]",match,1.2928932188134525,,-0.9086333698469785,-0.27790805203536517,1.1800259733036227,1st,2nd,4th,-1.2808825069685528,-0.3688356038972274,1.28442901989045
mem,resp,778,1,mem3.1.2.bmp,mem3.2.3.bmp,mem3.1.2.bmp,ACC028,"[3, -3, 0]","[3, 0, 3]","[3, -3, 0]",match,1.591751709536137,,-0.014300109125300374,0.2315135099695249,1.0670929259941189,2nd,3rd,4th,-0.2911723378696163,0.2528397677227245,1.28442901989045
mem,resp,691,1,mem1.1.2.bmp,mem2.1.3.bmp,mem2.1.3.bmp,ACC028,"[-3, -3, 0]","[0, -3, 3]","[0, -3, 3]",match,1.591751709536137,,-0.24816049827258935,1.095239637618857,0.9794195420231375,2nd,4th,4th,-0.2911723378696163,1.3039750494955062,1.28442901989045
mem,resp,808,1,mem3.2.2.bmp,mem3.3.3.bmp,mem3.2.2.bmp,ACC028,"[3, 0, 0]","[3, 3, 3]","[3, 0, 0]",match,1.591751709536137,,-0.3122638456504295,1.2428761872322072,0.6248131358097704,2nd,4th,3rd,-0.2911723378696163,1.3039750494955062,0.37232018430069913
mem,resp,965,1,mem3.1.3.bmp,mem1.2.1.bmp,mem3.2.1.bmp,ACC028,"[3, -3, 3]","[-3, 0, -3]","[3, 0, -3]",non-match,0.7771525064424715,2,-2.1935788355277697,-0.5503486896816537,0.6024491392372353,1st,2nd,3rd,-1.2808825069685528,-0.3688356038972274,0.37232018430069913
mem,resp,1002,1,mem3.1.1.bmp,mem1.2.2.bmp,mem3.3.2.bmp,ACC028,"[3, -3, -3]","[-3, 0, 0]","[3, 3, 0]",non-match,0.7090055512641944,2,-1.5046264728745211,0.5351180783470715,0.4415931397264106,1st,3rd,3rd,-1.2808825069685528,0.2528397677227245,0.37232018430069913
mem,resp,1100,0,mem3.3.1.bmp,mem1.1.2.bmp,mem2.3.2.bmp,ACC028,"[3, 3, -3]","[-3, -3, 0]","[0, 3, 0]",non-match,0.9462544851682343,3,-1.5428285878257224,-0.7096061712182903,0.2642583169492811,1st,2nd,3rd,-1.2808825069685528,-0.3688356038972274,0.37232018430069913
mem,resp,816,1,mem2.3.1.bmp,mem1.3.3.bmp,mem2.1.3.bmp,ACC028,"[0, 3, -3]","[-3, 3, 3]","[0, -3, 3]",non-match,0.5380061947043713,1,0.30084084091317337,-0.029761390836888016,0.1983920791198387,3rd,3rd,3rd,0.2704410385133673,0.2528397677227245,0.37232018430069913
mem,resp,811,1,mem2.3.3.bmp,mem3.1.2.bmp,mem1.3.1.bmp,ACC028,"[0, 3, 3]","[3, -3, 0]","[-3, 3, -3]",non-match,0.4884773718476586,1,-0.44851896028816124,-0.09024981094023075,0.5570487220207704,2nd,2nd,3rd,-0.2911723378696163,-0.3688356038972274,0.37232018430069913
mem,resp,959,1,mem1.3.2.bmp,mem2.2.2.bmp,mem2.2.3.bmp,ACC028,"[-3, 3, 0]","[0, 0, 0]","[0, 0, 3]",non-match,1.2113248654051871,4,-0.7484114837705549,1.0680883703738966,0.8677836006081063,1st,4th,4th,-1.2808825069685528,1.3039750494955062,1.28442901989045
mem,resp,719,1,mem3.1.3.bmp,mem3.2.3.bmp,mem3.2.3.bmp,ACC028,"[3, -3, 3]","[3, 0, 3]","[3, 0, 3]",match,1.7113248654051871,,-0.17820415915022977,0.10903155216945014,0.8447698823707183,2nd,3rd,4th,-0.2911723378696163,0.2528397677227245,1.28442901989045
mem,resp,863,1,mem3.2.2.bmp,mem2.1.3.bmp,mem3.2.2.bmp,ACC028,"[3, 0, 0]","[0, -3, 3]","[3, 0, 0]",match,1.5,,-0.22862588946545756,0.4055142333689616,0.7564768276008109,2nd,3rd,4th,-0.2911723378696163,0.2528397677227245,1.28442901989045
mem,resp,784,1,mem3.3.3.bmp,mem1.3.1.bmp,mem3.3.3.bmp,ACC028,"[3, 3, 3]","[-3, 3, -3]","[3, 3, 3]",match,1.1835034190722742,,0.4243253304763034,0.46548436204069715,0.7894327990494144,3rd,3rd,4th,0.2704410385133673,0.2528397677227245,1.28442901989045
mem,resp,690,1,mem1.2.3.bmp,mem3.3.1.bmp,mem3.3.1.bmp,ACC028,"[-3, 0, 3]","[3, 3, -3]","[3, 3, -3]",match,1.1339745962155614,,-0.19721910624149425,-1.3000876760048707,0.6362703973734738,2nd,1st,3rd,-0.2911723378696163,-1.1846955799739554,0.37232018430069913
mem,resp,631,1,mem2.2.1.bmp,mem3.2.1.bmp,mem2.2.1.bmp,ACC028,"[0, 0, -3]","[3, 0, -3]","[0, 0, -3]",match,1.7113248654051871,,1.179318692199839,0.2258171731024162,0.35553785043307196,4th,3rd,3rd,1.3051260276041958,0.2528397677227245,0.37232018430069913
mem,resp,614,1,mem1.3.3.bmp,mem2.3.3.bmp,mem2.1.1.bmp,ACC028,"[-3, 3, 3]","[0, 3, 3]","[0, -3, -3]",non-match,0.3174780152878355,1,0.23485215993459516,0.6467445320691976,-0.013511091810579164,3rd,4th,2nd,0.2704410385133673,1.3039750494955062,-0.3654042884091494
mem,resp,759,0,mem2.3.2.bmp,mem3.1.1.bmp,mem3.2.2.bmp,ACC028,"[0, 3, 0]","[3, -3, -3]","[3, 0, 0]",non-match,1.1835034190722742,4,0.4270720750233514,0.7471939545965213,-0.03734302217813273,3rd,4th,2nd,0.2704410385133673,1.3039750494955062,-0.3654042884091494
mem,resp,807,1,mem1.2.2.bmp,mem2.2.3.bmp,mem1.2.2.bmp,ACC028,"[-3, 0, 0]","[0, 0, 3]","[-3, 0, 0]",match,1.591751709536137,,-0.47003420655008565,0.3224555472388389,0.28061227441713,2nd,3rd,3rd,-0.2911723378696163,0.2528397677227245,0.37232018430069913
mem,resp,819,1,mem3.1.2.bmp,mem1.1.1.bmp,mem1.1.1.bmp,ACC028,"[3, -3, 0]","[-3, -3, -3]","[-3, -3, -3]",match,1.3545027756320973,,-0.15631027867264974,-1.0993536262675592,0.06499220369560996,2nd,1st,2nd,-0.2911723378696163,-1.1846955799739554,-0.3654042884091494
mem,resp,645,1,mem2.2.2.bmp,mem1.3.2.bmp,mem1.3.2.bmp,ACC028,"[0, 0, 0]","[-3, 3, 0]","[-3, 3, 0]",match,1.591751709536137,,1.2655186561908587,-0.2539663363817543,0.12843715628219346,4th,2nd,3rd,1.3051260276041958,-0.3688356038972274,0.37232018430069913
mem,resp,770,1,mem2.1.3.bmp,mem1.1.1.bmp,mem2.1.3.bmp,ACC028,"[0, -3, 3]","[-3, -3, -3]","[0, -3, 3]",match,1.3545027756320973,,0.42788483347491224,-0.7847706462525615,0.21307769077485553,3rd,1st,3rd,0.2704410385133673,-1.1846955799739554,0.37232018430069913
mem,resp,785,1,mem3.1.2.bmp,mem3.1.1.bmp,mem1.1.2.bmp,ACC028,"[3, -3, 0]","[3, -3, -3]","[-3, -3, 0]",non-match,0.7771525064424715,2,0.6924847690594244,-0.11623533423743179,0.3445152888088571,4th,2nd,3rd,1.3051260276041958,-0.3688356038972274,0.37232018430069913
mem,resp,668,1,mem2.2.2.bmp,mem3.3.2.bmp,mem1.2.1.bmp,ACC028,"[0, 0, 0]","[3, 3, 0]","[-3, 0, -3]",non-match,0.8846449283495895,2,-1.6013280562285424,-0.6668736988046672,0.416465412849231,1st,2nd,3rd,-1.2808825069685528,-0.3688356038972274,0.37232018430069913
mem,resp,731,1,mem3.3.3.bmp,mem1.1.3.bmp,mem3.3.1.bmp,ACC028,"[3, 3, 3]","[-3, -3, 3]","[3, 3, -3]",non-match,0.42264973081037427,1,1.0368255211504434,0.9666492799961298,0.5217303578635408,4th,4th,3rd,1.3051260276041958,1.3039750494955062,0.37232018430069913
mem,resp,1140,1,mem2.1.2.bmp,mem2.3.3.bmp,mem2.3.3.bmp,ACC028,"[0, -3, 0]","[0, 3, 3]","[0, 3, 3]",match,1.3545027756320973,,-1.2440390164829511,-0.0013983877277126578,0.45762269335883626,1st,3rd,3rd,-1.2808825069685528,0.2528397677227245,0.37232018430069913
mem,resp,714,1,mem2.2.3.bmp,mem2.2.1.bmp,mem3.1.2.bmp,ACC028,"[0, 0, 3]","[0, 0, -3]","[3, -3, 0]",non-match,1.0,3,0.015534705027824176,0.6627623527454191,0.5264974753754106,3rd,4th,3rd,0.2704410385133673,1.3039750494955062,0.37232018430069913
mem,resp,761,0,mem2.3.2.bmp,mem2.3.1.bmp,mem1.3.1.bmp,ACC028,"[0, 3, 0]","[0, 3, -3]","[-3, 3, -3]",non-match,1.3030765749413242,4,-0.4842422514615122,-1.0082270738096069,0.6232224433649984,2nd,1st,3rd,-0.2911723378696163,-1.1846955799739554,0.37232018430069913
mem,resp,886,1,mem1.3.2.bmp,mem3.2.1.bmp,mem1.3.2.bmp,ACC028,"[-3, 3, 0]","[3, 0, -3]","[-3, 3, 0]",match,1.2928932188134525,,0.24267931300352347,-1.1929471276116832,0.2261413253867697,3rd,1st,3rd,0.2704410385133673,-1.1846955799739554,0.37232018430069913
mem,resp,1104,1,mem3.3.1.bmp,mem2.1.3.bmp,mem1.1.1.bmp,ACC028,"[3, 3, -3]","[0, -3, 3]","[-3, -3, -3]",non-match,0.5380061947043713,1,-0.7652375760282166,-0.9384643547930551,0.2690905969606428,1st,1st,3rd,-1.2808825069685528,-1.1846955799739554,0.37232018430069913
mem,resp,1022,1,mem1.3.3.bmp,mem1.2.2.bmp,mem1.2.2.bmp,ACC028,"[-3, 3, 3]","[-3, 0, 0]","[-3, 0, 0]",match,1.591751709536137,,-0.45471018697016746,0.32182769694445845,0.2666706716725976,2nd,3rd,3rd,-0.2911723378696163,0.2528397677227245,0.37232018430069913
mem,resp,614,1,mem1.2.1.bmp,mem2.3.2.bmp,mem2.3.1.bmp,ACC028,"[-3, 0, -3]","[0, 3, 0]","[0, 3, -3]",non-match,1.3030765749413242,4,0.3060604657473322,-1.1365536747599312,0.6205410097145838,3rd,1st,3rd,0.2704410385133673,-1.1846955799739554,0.37232018430069913
mem,resp,607,1,mem1.1.3.bmp,mem1.1.2.bmp,mem1.1.3.bmp,ACC028,"[-3, -3, 3]","[-3, -3, 0]","[-3, -3, 3]",match,1.7113248654051871,,1.253210177270873,0.6349460941543006,0.3225297817256689,4th,4th,3rd,1.3051260276041958,1.3039750494955062,0.37232018430069913
mem,resp,613,1,mem3.3.2.bmp,mem3.2.2.bmp,mem3.2.2.bmp,ACC028,"[3, 3, 0]","[3, 0, 0]","[3, 0, 0]",match,1.7113248654051871,,-0.011705594549592673,0.37283032500361696,-0.03273599234006924,3rd,3rd,2nd,0.2704410385133673,0.2528397677227245,-0.3654042884091494
mem,resp,1334,0,mem2.1.1.bmp,mem3.1.3.bmp,mem3.1.3.bmp,ACC028,"[0, -3, -3]","[3, -3, 3]","[3, -3, 3]",match,1.3545027756320973,,-0.9685457949013263,-0.5198529358838407,0.27613102750624957,1st,2nd,3rd,-1.2808825069685528,-0.3688356038972274,0.37232018430069913
mem,resp,1112,1,mem1.3.1.bmp,mem1.3.2.bmp,mem1.3.1.bmp,ACC028,"[-3, 3, -3]","[-3, 3, 0]","[-3, 3, -3]",match,1.7113248654051871,,-0.6891750527879141,1.7103090662051659,0.06735475522969911,1st,4th,3rd,-1.2808825069685528,1.3039750494955062,0.37232018430069913
mem,resp,808,1,mem1.1.1.bmp,mem3.2.3.bmp,mem2.1.3.bmp,ACC028,"[-3, -3, -3]","[3, 0, 3]","[0, -3, 3]",non-match,0.9462544851682343,3,-0.28647137360954017,-0.4971149197265166,-0.15051573971897106,2nd,2nd,2nd,-0.2911723378696163,-0.3688356038972274,-0.3654042884091494
mem,resp,1157,1,mem2.3.1.bmp,mem1.3.3.bmp,mem2.3.1.bmp,ACC028,"[0, 3, -3]","[-3, 3, 3]","[0, 3, -3]",match,1.3545027756320973,,0.12324144267920317,1.003172907037959,-0.17486576568012382,3rd,4th,2nd,0.2704410385133673,1.3039750494955062,-0.3654042884091494
mem,resp,551,1,mem3.2.1.bmp,mem2.1.1.bmp,mem3.2.1.bmp,ACC028,"[3, 0, -3]","[0, -3, -3]","[3, 0, -3]",match,1.591751709536137,,0.8497277798483521,1.6660485164397807,-0.08243290505262481,4th,4th,2nd,1.3051260276041958,1.3039750494955062,-0.3654042884091494
mem,resp,1007,1,mem3.1.1.bmp,mem2.2.2.bmp,mem3.3.2.bmp,ACC028,"[3, -3, -3]","[0, 0, 0]","[3, 3, 0]",non-match,0.9462544851682343,3,-0.3183259226146555,1.4034811178914557,-0.3326819206863591,2nd,4th,2nd,-0.2911723378696163,1.3039750494955062,-0.3654042884091494
mem,resp,731,1,mem3.1.3.bmp,mem2.1.2.bmp,mem3.3.1.bmp,ACC028,"[3, -3, 3]","[0, -3, 0]","[3, 3, -3]",non-match,0.4763966378857265,1,1.7207662684779286,1.642049387815293,-0.35926208918285674,4th,4th,2nd,1.3051260276041958,1.3039750494955062,-0.3654042884091494
mem,resp,594,1,mem2.3.3.bmp,mem3.3.3.bmp,mem2.3.3.bmp,ACC028,"[0, 3, 3]","[3, 3, 3]","[0, 3, 3]",match,1.7113248654051871,,0.5364267230739493,-0.6476797661536456,-0.3216511587313486,3rd,2nd,2nd,0.2704410385133673,-0.3688356038972274,-0.3654042884091494
mem,resp,719,1,mem1.2.3.bmp,mem2.2.3.bmp,mem3.1.2.bmp,ACC028,"[-3, 0, 3]","[0, 0, 3]","[3, -3, 0]",non-match,0.7928932188134524,2,1.4149029160935216,0.2463151602992283,-0.3051181095028267,4th,3rd,2nd,1.3051260276041958,0.2528397677227245,-0.3654042884091494
mem,resp,944,0,mem1.2.2.bmp,mem3.3.2.bmp,mem3.3.2.bmp,ACC028,"[-3, 0, 0]","[3, 3, 0]","[3, 3, 0]",match,1.3545027756320973,,0.4612125505437276,1.016071277563255,-0.8038347236118628,3rd,4th,2nd,0.2704410385133673,1.3039750494955062,-0.3654042884091494
mem,resp,800,1,mem2.2.1.bmp,mem1.3.3.bmp,mem2.2.1.bmp,ACC028,"[0, 0, -3]","[-3, 3, 3]","[0, 0, -3]",match,1.2928932188134525,,-1.153694043650807,0.8028243721871378,-0.7616383901246891,1st,4th,2nd,-1.2808825069685528,1.3039750494955062,-0.3654042884091494
mem,resp,643,1,mem3.2.2.bmp,mem2.3.3.bmp,mem1.1.1.bmp,ACC028,"[3, 0, 0]","[0, 3, 3]","[-3, -3, -3]",non-match,0.42686781502901383,1,0.5765724484846887,-1.0327564714929014,-0.7233377203533851,3rd,1st,2nd,0.2704410385133673,-1.1846955799739554,-0.3654042884091494
mem,resp,838,1,mem3.2.3.bmp,mem1.3.1.bmp,mem2.1.1.bmp,ACC028,"[3, 0, 3]","[-3, 3, -3]","[0, -3, -3]",non-match,0.6473959944455496,1,0.18620786733431147,0.018924428368170702,-0.5080241799907724,3rd,3rd,2nd,0.2704410385133673,0.2528397677227245,-0.3654042884091494
mem,resp,571,1,mem1.1.2.bmp,mem1.2.2.bmp,mem2.3.2.bmp,ACC028,"[-3, -3, 0]","[-3, 0, 0]","[0, 3, 0]",non-match,0.9462544851682343,3,1.6829630670418458,1.3529632058978969,-0.3900896662192652,4th,4th,2nd,1.3051260276041958,1.3039750494955062,-0.3654042884091494
mem,resp,594,1,mem1.3.2.bmp,mem2.1.3.bmp,mem3.1.1.bmp,ACC028,"[-3, 3, 0]","[0, -3, 3]","[3, -3, -3]",non-match,0.4884773718476586,1,0.11812220865685213,0.5086275670651722,-0.6776136633535194,3rd,3rd,2nd,0.2704410385133673,0.2528397677227245,-0.3654042884091494
mem,resp,959,1,mem3.2.2.bmp,mem1.2.1.bmp,mem2.1.2.bmp,ACC028,"[3, 0, 0]","[-3, 0, -3]","[0, -3, 0]",non-match,1.091751709536137,4,0.07656538150154685,1.5398662456068821,-0.6059319794761199,3rd,4th,2nd,0.2704410385133673,1.3039750494955062,-0.3654042884091494
mem,resp,653,1,mem1.1.1.bmp,mem2.1.1.bmp,mem2.2.3.bmp,ACC028,"[-3, -3, -3]","[0, -3, -3]","[0, 0, 3]",non-match,0.6473959944455496,1,1.0993164536740099,0.19938052720555144,-0.6318491138030534,4th,3rd,2nd,1.3051260276041958,0.2528397677227245,-0.3654042884091494
mem,resp,880,1,mem2.2.1.bmp,mem2.3.2.bmp,mem2.2.1.bmp,ACC028,"[0, 0, -3]","[0, 3, 0]","[0, 0, -3]",match,1.591751709536137,,-1.5405025484950454,1.8485626856638318,-0.7100602911564978,1st,4th,2nd,-1.2808825069685528,1.3039750494955062,-0.3654042884091494
mem,resp,693,1,mem2.3.3.bmp,mem1.1.2.bmp,mem1.1.2.bmp,ACC028,"[0, 3, 3]","[-3, -3, 0]","[-3, -3, 0]",match,1.2928932188134525,,-0.04441209486920289,0.08895029770954428,-0.6259170054642381,2nd,3rd,2nd,-0.2911723378696163,0.2528397677227245,-0.3654042884091494
mem,resp,897,0,mem2.2.2.bmp,mem1.3.2.bmp,mem1.3.2.bmp,ACC028,"[0, 0, 0]","[-3, 3, 0]","[-3, 3, 0]",match,1.591751709536137,,-0.07039796306740895,0.11287253784087802,-0.8480818792552577,2nd,3rd,1st,-0.2911723378696163,0.2528397677227245,-1.2865095887131583
mem,resp,681,0,mem1.1.3.bmp,mem3.2.1.bmp,mem3.2.1.bmp,ACC028,"[-3, -3, 3]","[3, 0, -3]","[3, 0, -3]",match,1.1339745962155614,,0.8998674219647069,-0.9614482765690212,-0.6489167889591937,4th,1st,2nd,1.3051260276041958,-1.1846955799739554,-0.3654042884091494
mem,resp,787,1,mem2.2.3.bmp,mem2.3.1.bmp,mem1.3.1.bmp,ACC028,"[0, 0, 3]","[0, 3, -3]","[-3, 3, -3]",non-match,1.0042180842186395,3,-1.1937501343041261,-0.3090871143062363,-0.34293027259145564,1st,2nd,2nd,-1.2808825069685528,-0.3688356038972274,-0.3654042884091494
mem,resp,570,1,mem2.3.2.bmp,mem3.3.3.bmp,mem2.1.1.bmp,ACC028,"[0, 3, 0]","[3, 3, 3]","[0, -3, -3]",non-match,0.4884773718476586,1,1.0038191808362467,-0.2915241208964768,-0.16711285324927652,4th,2nd,2nd,1.3051260276041958,-0.3688356038972274,-0.3654042884091494
mem,resp,675,0,mem3.3.1.bmp,mem3.2.3.bmp,mem3.2.2.bmp,ACC028,"[3, 3, -3]","[3, 0, 3]","[3, 0, 0]",non-match,1.3030765749413242,4,1.5667096509804914,1.1267335119333788,-0.02433873022453732,4th,4th,2nd,1.3051260276041958,1.3039750494955062,-0.3654042884091494
mem,resp,1148,1,mem2.1.2.bmp,mem3.1.2.bmp,mem2.1.2.bmp,ACC028,"[0, -3, 0]","[3, -3, 0]","[0, -3, 0]",match,1.7113248654051871,,-1.705353099552796,0.2632802949949177,0.51223060375668,1st,3rd,3rd,-1.2808825069685528,0.2528397677227245,0.37232018430069913
mem,resp,522,1,mem1.2.1.bmp,mem1.1.3.bmp,mem1.1.3.bmp,ACC028,"[-3, 0, -3]","[-3, -3, 3]","[-3, -3, 3]",match,1.3545027756320973,,0.06967153028333904,-0.32218420393848557,0.5442684846561618,3rd,2nd,3rd,0.2704410385133673,-0.3688356038972274,0.37232018430069913
mem,resp,971,1,mem2.3.2.bmp,mem2.2.1.bmp,mem2.3.2.bmp,ACC028,"[0, 3, 0]","[0, 0, -3]","[0, 3, 0]",match,1.591751709536137,,-0.21423258025526676,1.2275190501193354,0.308314601061119,2nd,4th,3rd,-0.2911723378696163,1.3039750494955062,0.37232018430069913
mem,resp,744,1,mem3.2.3.bmp,mem1.2.3.bmp,mem3.2.3.bmp,ACC028,"[3, 0, 3]","[-3, 0, 3]","[3, 0, 3]",match,1.4226497308103743,,0.11486037740695046,0.12279542504070652,-0.07323224617735703,3rd,3rd,2nd,0.2704410385133673,0.2528397677227245,-0.3654042884091494
mem,resp,566,1,mem1.1.1.bmp,mem2.2.3.bmp,mem1.1.1.bmp,ACC028,"[-3, -3, -3]","[0, 0, 3]","[-3, -3, -3]",match,1.2928932188134525,,1.219013656975405,0.15139515710514628,0.1759744560924168,4th,3rd,3rd,1.3051260276041958,0.2528397677227245,0.37232018430069913
mem,resp,833,0,mem1.3.3.bmp,mem3.2.2.bmp,mem2.2.2.bmp,ACC028,"[-3, 3, 3]","[3, 0, 0]","[0, 0, 0]",non-match,1.2113248654051871,4,-0.38556241633981364,0.09651393172466005,0.2252161483215865,2nd,3rd,3rd,-0.2911723378696163,0.2528397677227245,0.37232018430069913
mem,resp,676,1,mem1.1.3.bmp,mem2.3.2.bmp,mem2.1.1.bmp,ACC028,"[-3, -3, 3]","[0, 3, 0]","[0, -3, -3]",non-match,0.7090055512641944,2,-0.4688955578102207,0.1361125192949634,0.08484506761167063,2nd,3rd,3rd,-0.2911723378696163,0.2528397677227245,0.37232018430069913
mem,resp,892,0,mem2.1.2.bmp,mem2.3.1.bmp,mem2.3.1.bmp,ACC028,"[0, -3, 0]","[0, 3, -3]","[0, 3, -3]",match,1.3545027756320973,,-0.23635127085985738,0.0643457627011073,0.4321518748951473,2nd,3rd,3rd,-0.2911723378696163,0.2528397677227245,0.37232018430069913
mem,resp,667,1,mem2.1.3.bmp,mem3.1.3.bmp,mem3.3.3.bmp,ACC028,"[0, -3, 3]","[3, -3, 3]","[3, 3, 3]",non-match,0.7771525064424715,2,1.5262760319622122,1.8419297861343493,0.9732159098489425,4th,4th,4th,1.3051260276041958,1.3039750494955062,1.28442901989045
mem,resp,641,1,mem3.1.2.bmp,mem1.1.1.bmp,mem1.2.3.bmp,ACC028,"[3, -3, 0]","[-3, -3, -3]","[-3, 0, 3]",non-match,0.6473959944455496,1,1.7467112934912274,0.28881784507988617,1.0902054795494913,4th,3rd,4th,1.3051260276041958,0.2528397677227245,1.28442901989045
mem,resp,845,1,mem1.1.2.bmp,mem3.2.1.bmp,mem2.2.1.bmp,ACC028,"[-3, -3, 0]","[3, 0, -3]","[0, 0, -3]",non-match,1.2113248654051871,4,0.020939391594004222,1.1168135931217038,1.0545496765204514,3rd,4th,4th,0.2704410385133673,1.3039750494955062,1.28442901989045
mem,resp,768,0,mem2.2.2.bmp,mem1.3.3.bmp,mem1.3.3.bmp,ACC028,"[0, 0, 0]","[-3, 3, 3]","[-3, 3, 3]",match,1.5,,-0.27054910002655574,-0.5028108040954311,1.2090062445692482,2nd,2nd,4th,-0.2911723378696163,-0.3688356038972274,1.28442901989045
mem,resp,621,1,mem1.3.1.bmp,mem1.1.3.bmp,mem2.1.1.bmp,ACC028,"[-3, 3, -3]","[-3, -3, 3]","[0, -3, -3]",non-match,0.7090055512641944,2,1.8550223645422894,-0.5933089768361156,1.5755916317692893,4th,2nd,4th,1.3051260276041958,-0.3688356038972274,1.28442901989045
mem,resp,909,0,mem2.2.3.bmp,mem3.3.1.bmp,mem2.3.2.bmp,ACC028,"[0, 0, 3]","[3, 3, -3]","[0, 3, 0]",non-match,1.1835034190722742,4,0.3409876617284373,-0.023621370440427922,1.8993854238526748,3rd,3rd,4th,0.2704410385133673,0.2528397677227245,1.28442901989045
mem,resp,1226,0,mem1.2.2.bmp,mem1.2.1.bmp,mem1.2.1.bmp,ACC028,"[-3, 0, 0]","[-3, 0, -3]","[-3, 0, -3]",match,1.7113248654051871,,-0.6565995065004283,0.5467348653868996,2.0658766594768316,1st,3rd,4th,-1.2808825069685528,0.2528397677227245,1.28442901989045
mem,resp,780,0,mem3.2.2.bmp,mem1.1.2.bmp,mem3.2.3.bmp,ACC028,"[3, 0, 0]","[-3, -3, 0]","[3, 0, 3]",non-match,1.0042180842186395,3,0.1399151405817807,-0.1952807595836403,2.102110084608945,3rd,2nd,4th,0.2704410385133673,-0.3688356038972274,1.28442901989045
mem,resp,662,1,mem1.3.2.bmp,mem2.3.3.bmp,mem3.3.2.bmp,ACC028,"[-3, 3, 0]","[0, 3, 3]","[3, 3, 0]",non-match,1.0144014403465114,3,1.1312798875894179,0.000768608024259887,1.687582349999697,4th,3rd,4th,1.3051260276041958,0.2528397677227245,1.28442901989045
mem,resp,1462,0,mem3.3.1.bmp,mem1.3.1.bmp,mem1.3.1.bmp,ACC028,"[3, 3, -3]","[-3, 3, -3]","[-3, 3, -3]",match,1.4226497308103743,,-1.0358036333368608,-0.5981457843334267,1.5631167230665772,1st,2nd,4th,-1.2808825069685528,-0.3688356038972274,1.28442901989045
mem,resp,756,0,mem3.3.3.bmp,mem3.1.2.bmp,mem3.1.2.bmp,ACC028,"[3, 3, 3]","[3, -3, 0]","[3, -3, 0]",match,1.3545027756320973,,0.4101246415314706,-0.4607663008862666,1.6641768466407016,3rd,2nd,4th,0.2704410385133673,-0.3688356038972274,1.28442901989045
mem,resp,661,1,mem3.1.1.bmp,mem2.1.2.bmp,mem1.1.3.bmp,ACC028,"[3, -3, -3]","[0, -3, 0]","[-3, -3, 3]",non-match,0.7752551286084112,2,0.20753247147872844,0.17152770676034337,1.3378996742999425,3rd,3rd,4th,0.2704410385133673,0.2528397677227245,1.28442901989045
mem,resp,625,1,mem2.2.1.bmp,mem2.2.2.bmp,mem2.2.1.bmp,ACC028,"[0, 0, -3]","[0, 0, 0]","[0, 0, -3]",match,1.7113248654051871,,-0.5531824017876754,-0.5856247611022165,1.2068825816095805,2nd,2nd,4th,-0.2911723378696163,-0.3688356038972274,1.28442901989045
mem,resp,618,1,mem3.2.1.bmp,mem3.3.2.bmp,mem3.2.1.bmp,ACC028,"[3, 0, -3]","[3, 3, 0]","[3, 0, -3]",match,1.591751709536137,,-0.012892422870952793,0.2768667161743468,1.4693573097766035,3rd,3rd,4th,0.2704410385133673,0.2528397677227245,1.28442901989045
mem,resp,651,1,mem2.3.1.bmp,mem3.2.3.bmp,mem2.1.3.bmp,ACC028,"[0, 3, -3]","[3, 0, 3]","[0, -3, 3]",non-match,0.7752551286084112,2,1.6378638897175686,0.3117705806803099,1.2880186163582188,4th,3rd,4th,1.3051260276041958,0.2528397677227245,1.28442901989045
mem,resp,1440,1,mem1.2.3.bmp,mem2.1.1.bmp,mem2.1.1.bmp,ACC028,"[-3, 0, 3]","[0, -3, -3]","[0, -3, -3]",match,1.2928932188134525,,-0.39222146483425097,1.1160936503948453,1.4370571339472917,2nd,4th,4th,-0.2911723378696163,1.3039750494955062,1.28442901989045
mem,resp,686,1,mem1.2.1.bmp,mem1.3.2.bmp,mem1.2.1.bmp,ACC028,"[-3, 0, -3]","[-3, 3, 0]","[-3, 0, -3]",match,1.591751709536137,,1.3779245004848493,-0.3475952355283631,1.0425647802134195,4th,2nd,4th,1.3051260276041958,-0.3688356038972274,1.28442901989045
mem,resp,1095,1,mem2.3.3.bmp,mem1.3.1.bmp,mem2.2.3.bmp,ACC028,"[0, 3, 3]","[-3, 3, -3]","[0, 0, 3]",non-match,1.0042180842186395,3,-0.25432716006974226,0.6489266231609272,0.8294945763453261,2nd,4th,4th,-0.2911723378696163,1.3039750494955062,1.28442901989045
mem,resp,817,0,mem3.3.2.bmp,mem2.2.1.bmp,mem3.3.3.bmp,ACC028,"[3, 3, 0]","[0, 0, -3]","[3, 3, 3]",non-match,1.0042180842186395,3,-0.1792146416438599,-0.5934053227516193,0.8727328007362081,2nd,2nd,4th,-0.2911723378696163,-0.3688356038972274,1.28442901989045
mem,resp,732,1,mem2.1.1.bmp,mem1.1.3.bmp,mem1.2.3.bmp,ACC028,"[0, -3, -3]","[-3, -3, 3]","[-3, 0, 3]",non-match,1.0042180842186395,3,0.9219282398006569,1.22169818574919,0.39561557991047624,4th,4th,3rd,1.3051260276041958,1.3039750494955062,0.37232018430069913
mem,resp,747,1,mem3.1.3.bmp,mem3.1.1.bmp,mem3.1.3.bmp,ACC028,"[3, -3, 3]","[3, -3, -3]","[3, -3, 3]",match,1.4226497308103743,,0.30795861897352356,0.34239435526721834,0.37000480743042397,3rd,3rd,3rd,0.2704410385133673,0.2528397677227245,0.37232018430069913
mem,resp,1161,0,mem3.2.2.bmp,mem2.2.2.bmp,mem2.2.3.bmp,ACC028,"[3, 0, 0]","[0, 0, 0]","[0, 0, 3]",non-match,1.3030765749413242,4,-0.2098892934861336,1.474272614177372,0.2695290178582162,2nd,4th,3rd,-0.2911723378696163,1.3039750494955062,0.37232018430069913
mem,resp,756,1,mem2.2.1.bmp,mem3.2.3.bmp,mem1.2.2.bmp,ACC028,"[0, 0, -3]","[3, 0, 3]","[-3, 0, 0]",non-match,0.9462544851682343,3,-1.013814978115983,0.17298522154370613,0.14587210614983498,1st,3rd,3rd,-1.2808825069685528,0.2528397677227245,0.37232018430069913
mem,resp,762,1,mem2.1.3.bmp,mem2.3.1.bmp,mem2.3.1.bmp,ACC028,"[0, -3, 3]","[0, 3, -3]","[0, 3, -3]",match,1.1835034190722742,,0.4745953144027504,1.2849430981519467,0.1590806021525573,3rd,4th,3rd,0.2704410385133673,1.3039750494955062,0.37232018430069913
mem,resp,1218,1,mem2.1.1.bmp,mem2.3.2.bmp,mem3.1.3.bmp,ACC028,"[0, -3, -3]","[0, 3, 0]","[3, -3, 3]",non-match,0.6473959944455496,1,-0.9055670394482576,2.0310106091522555,0.04573820636554552,1st,4th,2nd,-1.2808825069685528,1.3039750494955062,-0.3654042884091494
mem,resp,1136,0,mem3.2.1.bmp,mem2.1.2.bmp,mem2.1.2.bmp,ACC028,"[3, 0, -3]","[0, -3, 0]","[0, -3, 0]",match,1.5,,-0.6604563045659788,0.22821801992113783,0.025253891791019153,1st,3rd,2nd,-1.2808825069685528,0.2528397677227245,-0.3654042884091494
mem,resp,540,1,mem3.1.1.bmp,mem2.2.3.bmp,mem2.2.3.bmp,ACC028,"[3, -3, -3]","[0, 0, 3]","[0, 0, 3]",match,1.2928932188134525,,1.4840594586809726,0.1687826355153495,-0.17300871719160255,4th,3rd,2nd,1.3051260276041958,0.2528397677227245,-0.3654042884091494
mem,resp,843,1,mem3.1.2.bmp,mem1.2.2.bmp,mem3.1.2.bmp,ACC028,"[3, -3, 0]","[-3, 0, 0]","[3, -3, 0]",match,1.3545027756320973,,0.5562898279846726,-0.10343470332207783,-0.5704086740708376,3rd,2nd,2nd,0.2704410385133673,-0.3688356038972274,-0.3654042884091494
mem,resp,900,0,mem2.3.2.bmp,mem3.2.2.bmp,mem2.3.2.bmp,ACC028,"[0, 3, 0]","[3, 0, 0]","[0, 3, 0]",match,1.591751709536137,,0.6999397103885312,-0.3812367386721472,-0.12594330684902943,4th,2nd,2nd,1.3051260276041958,-0.3688356038972274,-0.3654042884091494
mem,resp,796,1,mem1.3.3.bmp,mem3.2.1.bmp,mem2.2.1.bmp,ACC028,"[-3, 3, 3]","[3, 0, -3]","[0, 0, -3]",non-match,1.0042180842186395,3,-0.18181745726554094,0.6073797231659324,-0.5259552110368382,2nd,4th,2nd,-0.2911723378696163,1.3039750494955062,-0.3654042884091494
mem,resp,719,1,mem2.2.3.bmp,mem1.1.2.bmp,mem1.1.2.bmp,ACC028,"[0, 0, 3]","[-3, -3, 0]","[-3, -3, 0]",match,1.5,,-0.03479798174900257,0.003745901342503587,-0.6335396399678528,2nd,3rd,2nd,-0.2911723378696163,0.2528397677227245,-0.3654042884091494
mem,resp,1288,0,mem1.1.3.bmp,mem2.3.3.bmp,mem1.2.3.bmp,ACC028,"[-3, -3, 3]","[0, 3, 3]","[-3, 0, 3]",non-match,1.3030765749413242,4,-0.776938993488393,-1.1375023598489271,-1.0690665517605156,1st,1st,1st,-1.2808825069685528,-1.1846955799739554,-1.2865095887131583
mem,resp,872,1,mem1.2.2.bmp,mem3.3.1.bmp,mem1.2.2.bmp,ACC028,"[-3, 0, 0]","[3, 3, -3]","[-3, 0, 0]",match,1.2928932188134525,,-0.5876501580197798,1.0589523232339533,-1.1535884061893042,1st,4th,1st,-1.2808825069685528,1.3039750494955062,-1.2865095887131583
mem,resp,508,0,mem2.3.1.bmp,mem3.1.1.bmp,mem2.2.1.bmp,ACC028,"[0, 3, -3]","[3, -3, -3]","[0, 0, -3]",non-match,1.3030765749413242,4,0.23026673552825394,-0.38369297126983554,-1.1633692075690516,3rd,2nd,1st,0.2704410385133673,-0.3688356038972274,-1.2865095887131583
mem,resp,1097,0,mem1.2.1.bmp,mem3.1.2.bmp,mem3.1.2.bmp,ACC028,"[-3, 0, -3]","[3, -3, 0]","[3, -3, 0]",match,1.2928932188134525,,-0.22096921437289627,-1.0607270138683056,-1.0806737612444006,2nd,1st,1st,-0.2911723378696163,-1.1846955799739554,-1.2865095887131583
mem,resp,829,1,mem1.2.3.bmp,mem3.3.3.bmp,mem3.2.1.bmp,ACC028,"[-3, 0, 3]","[3, 3, 3]","[3, 0, -3]",non-match,0.5380061947043713,1,-0.7927911289718871,0.915872032237526,-1.2076468119850372,1st,4th,1st,-1.2808825069685528,1.3039750494955062,-1.2865095887131583
mem,resp,1108,1,mem1.1.2.bmp,mem1.2.2.bmp,mem1.1.2.bmp,ACC028,"[-3, -3, 0]","[-3, 0, 0]","[-3, -3, 0]",match,1.7113248654051871,,-0.03858548881798591,-0.8017337899561962,-1.028308479030177,2nd,1st,1st,-0.2911723378696163,-1.1846955799739554,-1.2865095887131583
mem,resp,943,0,mem3.2.2.bmp,mem1.3.2.bmp,mem1.3.2.bmp,ACC028,"[3, 0, 0]","[-3, 3, 0]","[-3, 3, 0]",match,1.3545027756320973,,0.1741378731940601,-0.8417503636834041,-0.7111072739299501,3rd,1st,2nd,0.2704410385133673,-1.1846955799739554,-0.3654042884091494
mem,resp,749,1,mem2.1.2.bmp,mem1.1.3.bmp,mem3.1.1.bmp,ACC028,"[0, -3, 0]","[-3, -3, 3]","[3, -3, -3]",non-match,0.7752551286084112,2,-0.32391232131309716,-0.29203432166037185,-0.20964061804949213,2nd,2nd,2nd,-0.2911723378696163,-0.3688356038972274,-0.3654042884091494
mem,resp,774,1,mem2.2.3.bmp,mem2.3.3.bmp,mem3.1.3.bmp,ACC028,"[0, 0, 3]","[0, 3, 3]","[3, -3, 3]",non-match,0.9462544851682343,3,-0.45945382987395506,1.4614769064423707,-0.45763427463284007,2nd,4th,2nd,-0.2911723378696163,1.3039750494955062,-0.3654042884091494
mem,resp,990,1,mem3.2.1.bmp,mem3.3.1.bmp,mem3.3.3.bmp,ACC028,"[3, 0, -3]","[3, 3, -3]","[3, 3, 3]",non-match,0.7771525064424715,2,-1.7249668547852133,0.4808430195475008,-0.48006142634187604,1st,3rd,2nd,-1.2808825069685528,0.2528397677227245,-0.3654042884091494
mem,resp,905,1,mem2.1.1.bmp,mem1.2.1.bmp,mem2.2.2.bmp,ACC028,"[0, -3, -3]","[-3, 0, -3]","[0, 0, 0]",non-match,1.1835034190722742,4,-2.805368862334185,0.9410666972908772,-0.8181376158326363,1st,4th,1st,-1.2808825069685528,1.3039750494955062,-1.2865095887131583
mem,resp,771,1,mem2.3.2.bmp,mem1.3.3.bmp,mem1.3.3.bmp,ACC028,"[0, 3, 0]","[-3, 3, 3]","[-3, 3, 3]",match,1.591751709536137,,1.0219944122672284,-1.9934992074692017,-0.6306210045964614,4th,1st,2nd,1.3051260276041958,-1.1846955799739554,-0.3654042884091494
mem,resp,704,0,mem1.3.2.bmp,mem3.1.3.bmp,mem3.1.3.bmp,ACC028,"[-3, 3, 0]","[3, -3, 3]","[3, -3, 3]",match,1.1339745962155614,,-0.4843553564227499,-1.7113870272700207,-0.934696267928386,2nd,1st,1st,-0.2911723378696163,-1.1846955799739554,-1.2865095887131583
mem,resp,1063,1,mem3.1.2.bmp,mem2.1.3.bmp,mem3.2.2.bmp,ACC028,"[3, -3, 0]","[0, -3, 3]","[3, 0, 0]",non-match,1.2113248654051871,4,-1.3325592642174737,-0.27296445496422905,-0.9427935172860119,1st,2nd,1st,-1.2808825069685528,-0.3688356038972274,-1.2865095887131583
mem,resp,916,1,mem1.1.1.bmp,mem2.1.2.bmp,mem1.1.1.bmp,ACC028,"[-3, -3, -3]","[0, -3, 0]","[-3, -3, -3]",match,1.591751709536137,,-0.10526528394064538,1.1090947703259142,-0.8155287224806431,2nd,4th,1st,-0.2911723378696163,1.3039750494955062,-1.2865095887131583
mem,resp,772,1,mem3.3.1.bmp,mem2.3.1.bmp,mem2.3.1.bmp,ACC028,"[3, 3, -3]","[0, 3, -3]","[0, 3, -3]",match,1.7113248654051871,,0.28246992317297914,0.6594297216452539,-0.8153683303471235,3rd,4th,1st,0.2704410385133673,1.3039750494955062,-1.2865095887131583
mem,resp,565,1,mem3.1.3.bmp,mem1.2.3.bmp,mem3.1.3.bmp,ACC028,"[3, -3, 3]","[-3, 0, 3]","[3, -3, 3]",match,1.3545027756320973,,-0.18044567474690137,-0.9452844618754315,-1.0150355624975136,2nd,1st,1st,-0.2911723378696163,-1.1846955799739554,-1.2865095887131583
mem,resp,1384,1,mem3.3.3.bmp,mem3.3.2.bmp,mem2.3.3.bmp,ACC028,"[3, 3, 3]","[3, 3, 0]","[0, 3, 3]",non-match,1.3030765749413242,4,-1.2547308569447446,0.3631812897109026,-0.7393128306877297,1st,3rd,2nd,-1.2808825069685528,0.2528397677227245,-0.3654042884091494
mem,resp,746,1,mem2.1.3.bmp,mem2.2.1.bmp,mem1.3.3.bmp,ACC028,"[0, -3, 3]","[0, 0, -3]","[-3, 3, 3]",non-match,0.6473959944455496,1,-0.3883618440906085,0.04589542033257212,-0.6301936521902921,2nd,3rd,2nd,-0.2911723378696163,0.2528397677227245,-0.3654042884091494
mem,resp,832,1,mem3.2.3.bmp,mem1.1.2.bmp,mem3.1.2.bmp,ACC028,"[3, 0, 3]","[-3, -3, 0]","[3, -3, 0]",non-match,1.0144014403465114,3,-0.5045805079856905,0.4064773305254417,-0.9385110809449626,2nd,3rd,1st,-0.2911723378696163,0.2528397677227245,-1.2865095887131583
mem,resp,786,1,mem3.1.1.bmp,mem2.1.1.bmp,mem2.1.1.bmp,ACC028,"[3, -3, -3]","[0, -3, -3]","[0, -3, -3]",match,1.7113248654051871,,-1.0808161806122247,0.8709063816860504,-1.1822638061296884,1st,4th,1st,-1.2808825069685528,1.3039750494955062,-1.2865095887131583
mem,resp,699,1,mem1.3.1.bmp,mem3.3.2.bmp,mem3.1.3.bmp,ACC028,"[-3, 3, -3]","[3, 3, 0]","[3, -3, 3]",non-match,0.3545027756320972,1,-0.9786295655953378,-0.6454712853672315,-1.025899702984037,1st,2nd,1st,-1.2808825069685528,-0.3688356038972274,-1.2865095887131583
mem,resp,855,0,mem2.2.1.bmp,mem2.3.1.bmp,mem3.2.1.bmp,ACC028,"[0, 0, -3]","[0, 3, -3]","[3, 0, -3]",non-match,1.3030765749413242,4,-0.5745049722561436,-1.5298833657007442,-1.181031413223295,2nd,1st,1st,-0.2911723378696163,-1.1846955799739554,-1.2865095887131583
mem,resp,656,1,mem2.2.2.bmp,mem2.3.3.bmp,mem3.3.1.bmp,ACC028,"[0, 0, 0]","[0, 3, 3]","[3, 3, -3]",non-match,0.8545027756320972,2,0.3420217035987041,-0.21548741034311553,-1.3287093990651622,3rd,2nd,1st,0.2704410385133673,-0.3688356038972274,-1.2865095887131583
mem,resp,866,1,mem1.2.2.bmp,mem3.2.2.bmp,mem2.3.2.bmp,ACC028,"[-3, 0, 0]","[3, 0, 0]","[0, 3, 0]",non-match,1.1835034190722742,4,-0.9428612424651914,-0.8603025860203576,-1.5289754792602974,1st,1st,1st,-1.2808825069685528,-1.1846955799739554,-1.2865095887131583
mem,resp,719,1,mem1.3.3.bmp,mem2.1.3.bmp,mem1.1.2.bmp,ACC028,"[-3, 3, 3]","[0, -3, 3]","[-3, -3, 0]",non-match,0.9462544851682343,3,-1.3779689463487996,-0.11628579683604606,-1.7129032578851806,1st,2nd,1st,-1.2808825069685528,-0.3688356038972274,-1.2865095887131583
mem,resp,682,1,mem3.3.2.bmp,mem3.1.2.bmp,mem1.1.1.bmp,ACC028,"[3, 3, 0]","[3, -3, 0]","[-3, -3, -3]",non-match,0.4884773718476586,1,0.3345882546450447,-0.26327664962623787,-1.9756305366822888,3rd,2nd,1st,0.2704410385133673,-0.3688356038972274,-1.2865095887131583
mem,resp,856,1,mem1.1.3.bmp,mem2.2.3.bmp,mem1.1.3.bmp,ACC028,"[-3, -3, 3]","[0, 0, 3]","[-3, -3, 3]",match,1.591751709536137,,-0.006752568963455377,-1.2338540718543582,-1.9526080914700827,3rd,1st,1st,0.2704410385133673,-1.1846955799739554,-1.2865095887131583
mem,resp,690,1,mem2.3.3.bmp,mem1.3.2.bmp,mem3.2.2.bmp,ACC028,"[0, 3, 3]","[-3, 3, 0]","[3, 0, 0]",non-match,0.8545027756320972,2,1.684169845062811,-0.11031140887858129,-1.57523181263802,4th,2nd,1st,1.3051260276041958,-0.3688356038972274,-1.2865095887131583
mem,resp,893,1,mem3.2.1.bmp,mem1.2.3.bmp,mem3.2.1.bmp,ACC028,"[3, 0, -3]","[-3, 0, 3]","[3, 0, -3]",match,1.1835034190722742,,-0.6427016969094892,0.27485219421388346,-1.2652514298714579,1st,3rd,1st,-1.2808825069685528,0.2528397677227245,-1.2865095887131583
mem,resp,717,0,mem2.1.1.bmp,mem2.3.2.bmp,mem2.1.2.bmp,ACC028,"[0, -3, -3]","[0, 3, 0]","[0, -3, 0]",non-match,1.1339745962155614,4,-0.4981327659763666,-2.4871990093163547,-1.024008763910869,2nd,1st,1st,-0.2911723378696163,-1.1846955799739554,-1.2865095887131583
mem,resp,480,1,mem3.3.3.bmp,mem1.1.3.bmp,mem3.3.3.bmp,ACC028,"[3, 3, 3]","[-3, -3, 3]","[3, 3, 3]",match,1.1835034190722742,,1.1663015027099244,-0.1877543028201582,-0.6846516864411957,4th,2nd,2nd,1.3051260276041958,-0.3688356038972274,-0.3654042884091494
mem,resp,633,0,mem1.3.3.bmp,mem3.3.1.bmp,mem3.2.2.bmp,ACC028,"[-3, 3, 3]","[3, 3, -3]","[3, 0, 0]",non-match,0.8846449283495895,2,-0.17157626215640442,0.5599594690102674,-0.5192436693051742,2nd,3rd,2nd,-0.2911723378696163,0.2528397677227245,-0.3654042884091494
mem,resp,737,1,mem3.1.1.bmp,mem2.2.2.bmp,mem1.2.1.bmp,ACC028,"[3, -3, -3]","[0, 0, 0]","[-3, 0, -3]",non-match,0.9462544851682343,3,-0.3389254607186577,-1.1312264406698103,-0.6076198876354162,2nd,1st,2nd,-0.2911723378696163,-1.1846955799739554,-0.3654042884091494
mem,resp,872,0,mem1.3.1.bmp,mem1.2.2.bmp,mem1.2.2.bmp,ACC028,"[-3, 3, -3]","[-3, 0, 0]","[-3, 0, 0]",match,1.591751709536137,,-0.4928548665613222,-1.2801464946234629,-0.17191953824800232,2nd,1st,2nd,-0.2911723378696163,-1.1846955799739554,-0.3654042884091494
mem,resp,806,1,mem2.3.2.bmp,mem3.3.3.bmp,mem2.3.2.bmp,ACC028,"[0, 3, 0]","[3, 3, 3]","[0, 3, 0]",match,1.591751709536137,,-0.5342824315071351,-1.237974475160689,-0.3134513788681626,2nd,1st,2nd,-0.2911723378696163,-1.1846955799739554,-0.3654042884091494
mem,resp,1154,0,mem3.3.1.bmp,mem3.1.3.bmp,mem3.1.3.bmp,ACC028,"[3, 3, -3]","[3, -3, 3]","[3, -3, 3]",match,1.1835034190722742,,-1.0761794453677191,1.7989471636690224,-0.5923782141983547,1st,4th,2nd,-1.2808825069685528,1.3039750494955062,-0.3654042884091494
mem,resp,525,1,mem2.2.2.bmp,mem2.1.2.bmp,mem2.1.2.bmp,ACC028,"[0, 0, 0]","[0, -3, 0]","[0, -3, 0]",match,1.7113248654051871,,0.47566540199978447,-0.6865638047755646,-0.3348144958993876,3rd,2nd,2nd,0.2704410385133673,-0.3688356038972274,-0.3654042884091494
mem,resp,509,1,mem1.1.3.bmp,mem1.1.1.bmp,mem1.1.3.bmp,ACC028,"[-3, -3, 3]","[-3, -3, -3]","[-3, -3, 3]",match,1.4226497308103743,,0.10830523070892883,1.8487161006515844,-0.1868586079455518,3rd,4th,2nd,0.2704410385133673,1.3039750494955062,-0.3654042884091494
mem,resp,602,1,mem1.2.2.bmp,mem1.1.2.bmp,mem3.3.2.bmp,ACC028,"[-3, 0, 0]","[-3, -3, 0]","[3, 3, 0]",non-match,0.5380061947043713,1,1.164310502503403,-0.047324167047514465,0.029767973182149663,4th,2nd,2nd,1.3051260276041958,-0.3688356038972274,-0.3654042884091494
mem,resp,578,1,mem3.2.1.bmp,mem3.1.2.bmp,mem1.2.2.bmp,ACC028,"[3, 0, -3]","[3, -3, 0]","[-3, 0, 0]",non-match,0.7090055512641944,2,0.3762608598587964,-1.9037659399384401,0.06783111300070901,3rd,1st,3rd,0.2704410385133673,-1.1846955799739554,0.37232018430069913
mem,resp,559,1,mem2.3.2.bmp,mem3.3.3.bmp,mem3.3.3.bmp,ACC028,"[0, 3, 0]","[3, 3, 3]","[3, 3, 3]",match,1.591751709536137,,0.9434760774392819,0.5381050370267431,0.2751757807574196,4th,3rd,3rd,1.3051260276041958,0.2528397677227245,0.37232018430069913
mem,resp,600,0,mem2.2.3.bmp,mem1.2.1.bmp,mem2.2.3.bmp,ACC028,"[0, 0, 3]","[-3, 0, -3]","[0, 0, 3]",match,1.3545027756320973,,-1.9464930531162044,0.963280449040431,0.07416105687771549,1st,4th,3rd,-1.2808825069685528,1.3039750494955062,0.37232018430069913
mem,resp,927,1,mem3.2.2.bmp,mem1.3.2.bmp,mem2.2.1.bmp,ACC028,"[3, 0, 0]","[-3, 3, 0]","[0, 0, -3]",non-match,1.091751709536137,4,-0.8358190354055375,-0.05501822914211894,-0.1769665089284317,1st,2nd,2nd,-1.2808825069685528,-0.3688356038972274,-0.3654042884091494
mem,resp,780,1,mem1.1.2.bmp,mem2.3.3.bmp,mem2.3.3.bmp,ACC028,"[-3, -3, 0]","[0, 3, 3]","[0, 3, 3]",match,1.2928932188134525,,0.13490325162049943,-0.021173174210667976,-0.05687242753535532,3rd,3rd,2nd,0.2704410385133673,0.2528397677227245,-0.3654042884091494
mem,resp,624,1,mem1.1.3.bmp,mem1.2.2.bmp,mem1.1.3.bmp,ACC028,"[-3, -3, 3]","[-3, 0, 0]","[-3, -3, 3]",match,1.591751709536137,,2.3523310933942883,-0.42220154499015655,-0.11124973627650185,4th,2nd,2nd,1.3051260276041958,-0.3688356038972274,-0.3654042884091494
mem,resp,577,1,mem1.2.1.bmp,mem1.2.3.bmp,mem1.2.3.bmp,ACC028,"[-3, 0, -3]","[-3, 0, 3]","[-3, 0, 3]",match,1.4226497308103743,,0.8683616836362912,-0.9024433536953508,0.23136683242550346,4th,1st,3rd,1.3051260276041958,-1.1846955799739554,0.37232018430069913
mem,resp,780,1,mem3.3.2.bmp,mem3.1.3.bmp,mem3.1.3.bmp,ACC028,"[3, 3, 0]","[3, -3, 3]","[3, -3, 3]",match,1.3545027756320973,,0.06634897931366658,0.7549519456359989,0.3241047464123625,3rd,4th,3rd,0.2704410385133673,1.3039750494955062,0.37232018430069913
mem,resp,582,1,mem2.1.2.bmp,mem2.2.2.bmp,mem2.1.2.bmp,ACC028,"[0, -3, 0]","[0, 0, 0]","[0, -3, 0]",match,1.7113248654051871,,0.3015004650152553,-0.1808413250084093,0.22690146008662707,3rd,2nd,3rd,0.2704410385133673,-0.3688356038972274,0.37232018430069913
mem,resp,547,1,mem2.3.1.bmp,mem3.1.1.bmp,mem2.3.1.bmp,ACC028,"[0, 3, -3]","[3, -3, -3]","[0, 3, -3]",match,1.3545027756320973,,1.611419980461253,0.08264388467712222,0.4846103627641723,4th,3rd,3rd,1.3051260276041958,0.2528397677227245,0.37232018430069913
mem,resp,497,1,mem1.3.1.bmp,mem3.2.2.bmp,mem1.3.1.bmp,ACC028,"[-3, 3, -3]","[3, 0, 0]","[-3, 3, -3]",match,1.2928932188134525,,0.6094982070484037,0.9630980741682512,0.364621563382673,3rd,4th,3rd,0.2704410385133673,1.3039750494955062,0.37232018430069913
mem,resp,608,1,mem2.1.3.bmp,mem3.2.3.bmp,mem1.3.3.bmp,ACC028,"[0, -3, 3]","[3, 0, 3]","[-3, 3, 3]",non-match,0.7090055512641944,2,0.8503884319845717,0.13353628417618016,0.6439386801215262,4th,3rd,3rd,1.3051260276041958,0.2528397677227245,0.37232018430069913
mem,resp,504,1,mem3.1.1.bmp,mem2.1.1.bmp,mem2.1.1.bmp,ACC028,"[3, -3, -3]","[0, -3, -3]","[0, -3, -3]",match,1.7113248654051871,,0.14917229811349292,-0.9378055264723013,0.6958476812749772,3rd,1st,3rd,0.2704410385133673,-1.1846955799739554,0.37232018430069913
mem,resp,1421,1,mem3.3.3.bmp,mem2.2.1.bmp,mem2.2.1.bmp,ACC028,"[3, 3, 3]","[0, 0, -3]","[0, 0, -3]",match,1.2928932188134525,,-1.5240849269112797,0.40313058148161857,1.120166761130938,1st,3rd,4th,-1.2808825069685528,0.2528397677227245,1.28442901989045
mem,resp,929,1,mem3.1.2.bmp,mem1.3.3.bmp,mem2.1.2.bmp,ACC028,"[3, -3, 0]","[-3, 3, 3]","[0, -3, 0]",non-match,1.0042180842186395,3,-2.1739809191284523,-1.3870209571097936,1.0395291965881872,1st,1st,4th,-1.2808825069685528,-1.1846955799739554,1.28442901989045
mem,resp,752,1,mem1.3.2.bmp,mem3.2.2.bmp,mem1.1.1.bmp,ACC028,"[-3, 3, 0]","[3, 0, 0]","[-3, -3, -3]",non-match,0.6473959944455496,1,-0.7097978925565871,-0.2610051629912668,0.7514158681172198,1st,2nd,4th,-1.2808825069685528,-0.3688356038972274,1.28442901989045
mem,resp,888,1,mem3.3.1.bmp,mem2.3.1.bmp,mem3.3.1.bmp,ACC028,"[3, 3, -3]","[0, 3, -3]","[3, 3, -3]",match,1.7113248654051871,,-0.5888503684795955,-0.3933651563701639,0.7009233029878472,1st,2nd,3rd,-1.2808825069685528,-0.3688356038972274,0.37232018430069913
mem,resp,1284,1,mem2.3.3.bmp,mem3.1.3.bmp,mem3.1.3.bmp,ACC028,"[0, 3, 3]","[3, -3, 3]","[3, -3, 3]",match,1.3545027756320973,,-1.0698679349480869,-0.6294007939012081,0.5804353287405382,1st,2nd,3rd,-1.2808825069685528,-0.3688356038972274,0.37232018430069913
mem,resp,992,0,mem3.2.3.bmp,mem3.1.1.bmp,mem3.2.3.bmp,ACC028,"[3, 0, 3]","[3, -3, -3]","[3, 0, 3]",match,1.3545027756320973,,-1.8609232955485087,-0.6514762622026224,0.5406443652342373,1st,2nd,3rd,-1.2808825069685528,-0.3688356038972274,0.37232018430069913
mem,resp,646,1,mem2.1.1.bmp,mem3.2.1.bmp,mem1.2.1.bmp,ACC028,"[0, -3, -3]","[3, 0, -3]","[-3, 0, -3]",non-match,1.0144014403465114,3,-0.5755943204744267,-1.1942145105725726,0.7309156427622825,2nd,1st,4th,-0.2911723378696163,-1.1846955799739554,1.28442901989045
mem,resp,919,0,mem1.3.3.bmp,mem1.1.2.bmp,mem1.3.2.bmp,ACC028,"[-3, 3, 3]","[-3, -3, 0]","[-3, 3, 0]",non-match,1.1339745962155614,4,-0.5623020936503392,-0.5917717861707228,1.1411210154688693,2nd,2nd,4th,-0.2911723378696163,-0.3688356038972274,1.28442901989045
mem,resp,1298,1,mem1.2.3.bmp,mem3.3.1.bmp,mem1.1.3.bmp,ACC028,"[-3, 0, 3]","[3, 3, -3]","[-3, -3, 3]",non-match,0.7113248654051871,2,-1.800477479968877,-1.0211005252593495,1.5019480314026274,1st,1st,4th,-1.2808825069685528,-1.1846955799739554,1.28442901989045
mem,resp,784,1,mem2.2.1.bmp,mem1.3.1.bmp,mem2.2.3.bmp,ACC028,"[0, 0, -3]","[-3, 3, -3]","[0, 0, 3]",non-match,0.7155429496238267,2,-0.16491247721181396,-0.8372296487996335,1.5663775245052076,2nd,1st,4th,-0.2911723378696163,-1.1846955799739554,1.28442901989045
mem,resp,907,1,mem1.1.1.bmp,mem3.3.2.bmp,mem3.2.3.bmp,ACC028,"[-3, -3, -3]","[3, 3, 0]","[3, 0, 3]",non-match,0.7257263057516985,2,-0.048942188930274834,0.16515522899157228,1.1613806357268046,2nd,3rd,4th,-0.2911723378696163,0.2528397677227245,1.28442901989045
mem,resp,1214,0,mem2.2.2.bmp,mem2.1.3.bmp,mem2.1.3.bmp,ACC028,"[0, 0, 0]","[0, -3, 3]","[0, -3, 3]",match,1.591751709536137,,-0.9435857012845977,-0.9809594647539424,0.8969426143858967,1st,1st,4th,-1.2808825069685528,-1.1846955799739554,1.28442901989045
mem,resp,760,1,mem1.2.2.bmp,mem2.3.2.bmp,mem1.2.2.bmp,ACC028,"[-3, 0, 0]","[0, 3, 0]","[-3, 0, 0]",match,1.591751709536137,,0.9458509994886893,-0.8694849508754562,0.8259494312325245,4th,1st,4th,1.3051260276041958,-1.1846955799739554,1.28442901989045
mem,resp,683,1,mem3.3.3.bmp,mem1.1.3.bmp,mem3.3.3.bmp,ACC028,"[3, 3, 3]","[-3, -3, 3]","[3, 3, 3]",match,1.1835034190722742,,0.4211561526771469,-0.08684220088929122,0.7098399271776158,3rd,2nd,4th,0.2704410385133673,-0.3688356038972274,1.28442901989045
mem,resp,869,0,mem3.3.1.bmp,mem3.2.3.bmp,mem3.2.3.bmp,ACC028,"[3, 3, -3]","[3, 0, 3]","[3, 0, 3]",match,1.3545027756320973,,-1.270638127715286,-0.5395478292856327,0.5816771599181106,1st,2nd,3rd,-1.2808825069685528,-0.3688356038972274,0.37232018430069913
mem,resp,722,1,mem1.1.2.bmp,mem2.2.1.bmp,mem3.1.3.bmp,ACC028,"[-3, -3, 0]","[0, 0, -3]","[3, -3, 3]",non-match,0.6473959944455496,1,-1.2182269586306536,-1.2098103404828708,0.3666810923818273,1st,1st,3rd,-1.2808825069685528,-1.1846955799739554,0.37232018430069913
mem,resp,655,1,mem1.3.2.bmp,mem2.2.3.bmp,mem2.2.3.bmp,ACC028,"[-3, 3, 0]","[0, 0, 3]","[0, 0, 3]",match,1.5,,0.534179340257982,-0.31265180910528345,0.48078741308701844,3rd,2nd,3rd,0.2704410385133673,-0.3688356038972274,0.37232018430069913
mem,resp,649,1,mem1.1.3.bmp,mem2.1.2.bmp,mem1.1.3.bmp,ACC028,"[-3, -3, 3]","[0, -3, 0]","[-3, -3, 3]",match,1.591751709536137,,0.9343477663012973,-0.3197310483285178,0.5383995808156397,4th,2nd,3rd,1.3051260276041958,-0.3688356038972274,0.37232018430069913
mem,resp,1397,0,mem3.2.3.bmp,mem1.3.3.bmp,mem2.2.2.bmp,ACC028,"[3, 0, 3]","[-3, 3, 3]","[0, 0, 0]",non-match,1.091751709536137,4,-2.452365785665619,-2.561196998305828,0.30431380109225425,1st,1st,3rd,-1.2808825069685528,-1.1846955799739554,0.37232018430069913
mem,resp,1273,0,mem1.2.1.bmp,mem1.2.3.bmp,mem1.2.3.bmp,ACC028,"[-3, 0, -3]","[-3, 0, 3]","[-3, 0, 3]",match,1.4226497308103743,,-0.13168396948774655,0.22468288682911614,0.1992244303501478,2nd,3rd,3rd,-0.2911723378696163,0.2528397677227245,0.37232018430069913
mem,resp,477,1,mem1.3.1.bmp,mem1.3.2.bmp,mem1.3.2.bmp,ACC028,"[-3, 3, -3]","[-3, 3, 0]","[-3, 3, 0]",match,1.7113248654051871,,1.801790640776352,0.04196056843574461,0.16795800643576878,4th,3rd,3rd,1.3051260276041958,0.2528397677227245,0.37232018430069913
mem,resp,630,1,mem3.1.2.bmp,mem3.3.3.bmp,mem1.1.2.bmp,ACC028,"[3, -3, 0]","[3, 3, 3]","[-3, -3, 0]",non-match,0.5566243270259357,1,1.1169334281903454,0.583165169201162,0.1895939714089964,4th,3rd,3rd,1.3051260276041958,0.2528397677227245,0.37232018430069913
mem,resp,591,1,mem3.2.1.bmp,mem3.2.2.bmp,mem3.2.2.bmp,ACC028,"[3, 0, -3]","[3, 0, 0]","[3, 0, 0]",match,1.7113248654051871,,1.1957068854473603,-0.2429180318732311,0.13066065287258638,4th,2nd,3rd,1.3051260276041958,-0.3688356038972274,0.37232018430069913
mem,resp,685,1,mem2.1.1.bmp,mem2.1.3.bmp,mem2.3.1.bmp,ACC028,"[0, -3, -3]","[0, -3, 3]","[0, 3, -3]",non-match,0.6061531498826483,1,0.853138746368433,-1.3202760865621386,0.19659569484510264,4th,1st,3rd,1.3051260276041958,-1.1846955799739554,0.37232018430069913
mem,resp,1304,1,mem3.1.1.bmp,mem2.3.2.bmp,mem3.1.1.bmp,ACC028,"[3, -3, -3]","[0, 3, 0]","[3, -3, -3]",match,1.2928932188134525,,-2.1529559233534292,-0.918818494095584,0.2860914462370003,1st,1st,3rd,-1.2808825069685528,-1.1846955799739554,0.37232018430069913
mem,resp,701,0,mem2.1.3.bmp,mem3.1.1.bmp,mem3.1.1.bmp,ACC028,"[0, -3, 3]","[3, -3, -3]","[3, -3, -3]",match,1.3545027756320973,,0.4906172979243336,-1.4439036792902238,0.470527539330227,3rd,1st,3rd,0.2704410385133673,-1.1846955799739554,0.37232018430069913
mem,resp,692,1,mem3.1.2.bmp,mem2.1.1.bmp,mem2.1.1.bmp,ACC028,"[3, -3, 0]","[0, -3, -3]","[0, -3, -3]",match,1.591751709536137,,-0.09629078784527155,-0.5858011629982333,0.17920621498170775,2nd,2nd,3rd,-0.2911723378696163,-0.3688356038972274,0.37232018430069913
mem,resp,988,1,mem3.2.1.bmp,mem1.2.2.bmp,mem1.1.2.bmp,ACC028,"[3, 0, -3]","[-3, 0, 0]","[-3, -3, 0]",non-match,1.0042180842186395,3,-1.879054716003329,0.09085524270730656,-0.3172661803203726,1st,3rd,2nd,-1.2808825069685528,0.2528397677227245,-0.3654042884091494
mem,resp,831,1,mem2.1.2.bmp,mem1.3.3.bmp,mem2.1.2.bmp,ACC028,"[0, -3, 0]","[-3, 3, 3]","[0, -3, 0]",match,1.2928932188134525,,-0.9055016616403725,-1.162831186091869,-0.3515877489887378,1st,1st,2nd,-1.2808825069685528,-1.1846955799739554,-0.3654042884091494
mem,resp,464,0,mem3.2.2.bmp,mem3.1.3.bmp,mem3.1.1.bmp,ACC028,"[3, 0, 0]","[3, -3, 3]","[3, -3, -3]",non-match,1.0144014403465114,3,-0.2577733692762643,-0.11961723334097858,-0.6466097441399691,2nd,2nd,2nd,-0.2911723378696163,-0.3688356038972274,-0.3654042884091494
mem,resp,910,1,mem1.3.2.bmp,mem1.2.3.bmp,mem1.2.3.bmp,ACC028,"[-3, 3, 0]","[-3, 0, 3]","[-3, 0, 3]",match,1.591751709536137,,-2.1290655372143252,-0.9179621644536419,-0.6117898440321834,1st,1st,2nd,-1.2808825069685528,-1.1846955799739554,-0.3654042884091494
mem,resp,640,0,mem2.1.1.bmp,mem3.3.2.bmp,mem3.3.2.bmp,ACC028,"[0, -3, -3]","[3, 3, 0]","[3, 3, 0]",match,1.2928932188134525,,-0.5647788497181968,-1.0310751058528804,-0.5511686690133214,2nd,1st,2nd,-0.2911723378696163,-1.1846955799739554,-0.3654042884091494
mem,resp,1127,1,mem2.3.2.bmp,mem3.2.3.bmp,mem3.1.2.bmp,ACC028,"[0, 3, 0]","[3, 0, 3]","[3, -3, 0]",non-match,0.9462544851682343,3,-1.8346882261160722,-0.8357219610165005,-1.0916785352273024,1st,1st,1st,-1.2808825069685528,-1.1846955799739554,-1.2865095887131583
mem,resp,543,1,mem1.1.2.bmp,mem1.1.3.bmp,mem1.1.3.bmp,ACC028,"[-3, -3, 0]","[-3, -3, 3]","[-3, -3, 3]",match,1.7113248654051871,,1.6823285199305302,0.39608793578734736,-1.1458468698712279,4th,3rd,1st,1.3051260276041958,0.2528397677227245,-1.2865095887131583
mem,resp,958,0,mem2.3.3.bmp,mem2.1.3.bmp,mem2.3.3.bmp,ACC028,"[0, 3, 3]","[0, -3, 3]","[0, 3, 3]",match,1.4226497308103743,,-0.9869642649800013,-1.9494666607970284,-0.9441692931416574,1st,1st,1st,-1.2808825069685528,-1.1846955799739554,-1.2865095887131583
mem,resp,822,1,mem3.3.2.bmp,mem1.3.2.bmp,mem1.2.1.bmp,ACC028,"[3, 3, 0]","[-3, 3, 0]","[-3, 0, -3]",non-match,0.8846449283495895,2,-0.16169608038459848,-1.0871621778335847,-0.8502623681604199,2nd,1st,1st,-0.2911723378696163,-1.1846955799739554,-1.2865095887131583
mem,resp,937,1,mem2.2.2.bmp,mem2.2.3.bmp,mem2.2.3.bmp,ACC028,"[0, 0, 0]","[0, 0, 3]","[0, 0, 3]",match,1.7113248654051871,,-1.2578377261560572,-0.16846274820872528,-0.7757894668809733,1st,2nd,2nd,-1.2808825069685528,-0.3688356038972274,-0.3654042884091494
mem,resp,519,1,mem1.2.2.bmp,mem3.2.1.bmp,mem1.2.2.bmp,ACC028,"[-3, 0, 0]","[3, 0, -3]","[-3, 0, 0]",match,1.3545027756320973,,0.029333945085314072,-0.40138190397699774,-0.6754066585334655,3rd,2nd,2nd,0.2704410385133673,-0.3688356038972274,-0.3654042884091494
mem,resp,660,1,mem3.3.1.bmp,mem1.3.1.bmp,mem1.3.1.bmp,ACC028,"[3, 3, -3]","[-3, 3, -3]","[-3, 3, -3]",match,1.4226497308103743,,0.1276877409144672,-1.0812230734228105,-0.5236592779390389,3rd,1st,2nd,0.2704410385133673,-1.1846955799739554,-0.3654042884091494
mem,resp,997,1,mem3.2.3.bmp,mem3.1.2.bmp,mem3.2.3.bmp,ACC028,"[3, 0, 3]","[3, -3, 0]","[3, 0, 3]",match,1.591751709536137,,-0.4646858653634425,1.5957716373001347,-0.5000811083000029,2nd,4th,2nd,-0.2911723378696163,1.3039750494955062,-0.3654042884091494
mem,resp,630,1,mem3.1.1.bmp,mem3.3.3.bmp,mem3.1.1.bmp,ACC028,"[3, -3, -3]","[3, 3, 3]","[3, -3, -3]",match,1.1835034190722742,,0.9516682272389408,-0.4304257177691999,-0.3443900074511428,4th,2nd,2nd,1.3051260276041958,-0.3688356038972274,-0.3654042884091494
mem,resp,681,1,mem1.2.1.bmp,mem1.1.1.bmp,mem1.2.3.bmp,ACC028,"[-3, 0, -3]","[-3, -3, -3]","[-3, 0, 3]",non-match,0.7771525064424715,2,1.017578546904014,-1.0399053841255832,-0.35053516857825956,4th,1st,2nd,1.3051260276041958,-1.1846955799739554,-0.3654042884091494
mem,resp,695,1,mem2.3.1.bmp,mem1.1.2.bmp,mem1.1.2.bmp,ACC028,"[0, 3, -3]","[-3, -3, 0]","[-3, -3, 0]",match,1.2928932188134525,,-0.2820097609284859,-1.716580763080405,-0.5233620632083273,2nd,1st,2nd,-0.2911723378696163,-1.1846955799739554,-0.3654042884091494
mem,resp,684,1,mem3.1.3.bmp,mem3.3.1.bmp,mem3.1.3.bmp,ACC028,"[3, -3, 3]","[3, 3, -3]","[3, -3, 3]",match,1.1835034190722742,,-0.5820468067343277,-0.11418863060539898,-0.5035039391614311,2nd,2nd,2nd,-0.2911723378696163,-0.3688356038972274,-0.3654042884091494
mem,resp,1281,0,mem2.2.1.bmp,mem2.3.3.bmp,mem1.3.1.bmp,ACC028,"[0, 0, -3]","[0, 3, 3]","[-3, 3, -3]",non-match,0.9462544851682343,3,-1.0082949076831549,-0.9880130495920577,-0.8095677906692006,1st,1st,1st,-1.2808825069685528,-1.1846955799739554,-1.2865095887131583
mem,resp,785,1,mem3.3.3.bmp,mem2.2.2.bmp,mem3.3.3.bmp,ACC028,"[3, 3, 3]","[0, 0, 0]","[3, 3, 3]",match,1.5,,-0.20296188953092664,-0.9348250747166621,-0.8701131185482058,2nd,1st,1st,-0.2911723378696163,-1.1846955799739554,-1.2865095887131583
mem,resp,686,1,mem1.1.1.bmp,mem1.2.1.bmp,mem3.2.3.bmp,ACC028,"[-3, -3, -3]","[-3, 0, -3]","[3, 0, 3]",non-match,0.3174780152878355,1,0.5715480587450543,-1.5061418216732902,-0.9843454779642108,3rd,1st,1st,0.2704410385133673,-1.1846955799739554,-1.2865095887131583
mem,resp,791,1,mem1.2.3.bmp,mem3.3.1.bmp,mem3.3.1.bmp,ACC028,"[-3, 0, 3]","[3, 3, -3]","[3, 3, -3]",match,1.1339745962155614,,1.6287289203929853,-0.8215007572703561,-1.0312168754574589,4th,1st,1st,1.3051260276041958,-1.1846955799739554,-1.2865095887131583
mem,resp,550,1,mem1.1.3.bmp,mem3.3.2.bmp,mem1.1.3.bmp,ACC028,"[-3, -3, 3]","[3, 3, 0]","[-3, -3, 3]",match,1.1339745962155614,,0.6787700131199316,-1.0764157823827056,-1.0928727999957895,4th,1st,1st,1.3051260276041958,-1.1846955799739554,-1.2865095887131583
mem,resp,676,1,mem1.3.1.bmp,mem1.2.2.bmp,mem1.2.2.bmp,ACC028,"[-3, 3, -3]","[-3, 0, 0]","[-3, 0, 0]",match,1.591751709536137,,0.3262666482878289,-1.122155072490497,-0.969481187674694,3rd,1st,1st,0.2704410385133673,-1.1846955799739554,-1.2865095887131583
mem,resp,457,1,mem2.2.3.bmp,mem2.1.1.bmp,mem2.2.3.bmp,ACC028,"[0, 0, 3]","[0, -3, -3]","[0, 0, 3]",match,1.3545027756320973,,0.9871196536509949,-1.2320472547665506,-1.0552293395788055,4th,1st,1st,1.3051260276041958,-1.1846955799739554,-1.2865095887131583
mem,resp,546,0,mem1.3.3.bmp,mem2.3.1.bmp,mem1.3.2.bmp,ACC028,"[-3, 3, 3]","[0, 3, -3]","[-3, 3, 0]",non-match,1.3030765749413242,4,-0.33790728913927026,-2.1947427294483157,-1.195222788605848,2nd,1st,1st,-0.2911723378696163,-1.1846955799739554,-1.2865095887131583
mem,resp,699,1,mem1.3.3.bmp,mem1.1.1.bmp,mem1.1.1.bmp,ACC028,"[-3, 3, 3]","[-3, -3, -3]","[-3, -3, -3]",match,1.1835034190722742,,0.8191735550459965,-1.7272934067086567,-1.6547484527655443,4th,1st,1st,1.3051260276041958,-1.1846955799739554,-1.2865095887131583
mem,resp,1002,1,mem2.3.2.bmp,mem3.2.1.bmp,mem2.3.3.bmp,ACC028,"[0, 3, 0]","[3, 0, -3]","[0, 3, 3]",non-match,1.0042180842186395,3,-0.7111685140782344,0.09078378419248281,-1.3463360043943207,1st,3rd,1st,-1.2808825069685528,0.2528397677227245,-1.2865095887131583
mem,resp,625,1,mem1.3.1.bmp,mem3.1.1.bmp,mem1.1.3.bmp,ACC028,"[-3, 3, -3]","[3, -3, -3]","[-3, -3, 3]",non-match,0.36700683814454815,1,0.5755119201330868,0.3605152427505393,-1.3503746475473226,3rd,3rd,1st,0.2704410385133673,0.2528397677227245,-1.2865095887131583
mem,resp,558,1,mem2.2.1.bmp,mem2.1.2.bmp,mem3.3.1.bmp,ACC028,"[0, 0, -3]","[0, -3, 0]","[3, 3, -3]",non-match,0.8846449283495895,2,0.9836690869300021,-0.8422745330665535,-1.376560918757642,4th,1st,1st,1.3051260276041958,-1.1846955799739554,-1.2865095887131583
mem,resp,599,1,mem3.2.2.bmp,mem1.1.2.bmp,mem2.3.1.bmp,ACC028,"[3, 0, 0]","[-3, -3, 0]","[0, 3, -3]",non-match,0.7928932188134524,2,1.9606143464661705,-1.1194536051027395,-1.67216012321006,4th,1st,1st,1.3051260276041958,-1.1846955799739554,-1.2865095887131583
mem,resp,1307,1,mem3.3.2.bmp,mem1.2.3.bmp,mem1.2.3.bmp,ACC028,"[3, 3, 0]","[-3, 0, 3]","[-3, 0, 3]",match,1.2928932188134525,,-0.42721112993598026,-0.1564887319445246,-1.8772501559593588,2nd,2nd,1st,-0.2911723378696163,-0.3688356038972274,-1.2865095887131583
mem,resp,982,1,mem2.2.2.bmp,mem3.3.3.bmp,mem2.2.2.bmp,ACC028,"[0, 0, 0]","[3, 3, 3]","[0, 0, 0]",match,1.5,,-0.586155741254056,2.6405106175649578,-2.2523797140890514,2nd,4th,1st,-0.2911723378696163,1.3039750494955062,-1.2865095887131583
mem,resp,768,1,mem1.2.1.bmp,mem2.1.3.bmp,mem1.1.1.bmp,ACC028,"[-3, 0, -3]","[0, -3, 3]","[-3, -3, -3]",non-match,1.0658276410372842,3,-1.0484389796575189,0.3653071986268437,-2.270170665310626,1st,3rd,1st,-1.2808825069685528,0.2528397677227245,-1.2865095887131583
mem,resp,631,1,mem3.2.3.bmp,mem3.1.2.bmp,mem1.3.1.bmp,ACC028,"[3, 0, 3]","[3, -3, 0]","[-3, 3, -3]",non-match,0.2679491924311228,1,1.5106671484235565,0.32088157752022384,-2.443479393900437,4th,3rd,1st,1.3051260276041958,0.2528397677227245,-1.2865095887131583
mem,resp,1046,1,mem3.2.1.bmp,mem3.1.3.bmp,mem3.1.3.bmp,ACC028,"[3, 0, -3]","[3, -3, 3]","[3, -3, 3]",match,1.3545027756320973,,-1.9223290731958356,-1.9623447520501296,-2.149475000481432,1st,1st,1st,-1.2808825069685528,-1.1846955799739554,-1.2865095887131583
mem,resp,559,1,mem1.2.2.bmp,mem2.2.3.bmp,mem2.2.1.bmp,ACC028,"[-3, 0, 0]","[0, 0, 3]","[0, 0, -3]",non-match,1.0144014403465114,3,0.8696828122715174,-2.2826138243731195,-1.7607246181272016,4th,1st,1st,1.3051260276041958,-1.1846955799739554,-1.2865095887131583
mem,resp,965,1,mem2.1.2.bmp,mem1.3.2.bmp,mem1.1.2.bmp,ACC028,"[0, -3, 0]","[-3, 3, 0]","[-3, -3, 0]",non-match,1.1339745962155614,4,-0.874500760024491,0.6697105530166022,-1.6946079553047029,1st,4th,1st,-1.2808825069685528,1.3039750494955062,-1.2865095887131583
mem,resp,506,1,mem2.1.2.bmp,mem2.1.1.bmp,mem2.1.1.bmp,ACC028,"[0, -3, 0]","[0, -3, -3]","[0, -3, -3]",match,1.7113248654051871,,1.8081277731290113,-0.12533713631403992,-1.3969981253070285,4th,2nd,1st,1.3051260276041958,-0.3688356038972274,-1.2865095887131583
mem,resp,527,1,mem1.2.2.bmp,mem1.1.3.bmp,mem1.1.3.bmp,ACC028,"[-3, 0, 0]","[-3, -3, 3]","[-3, -3, 3]",match,1.591751709536137,,0.8832273781129445,-0.2653009455476953,-1.1702480645943756,4th,2nd,1st,1.3051260276041958,-0.3688356038972274,-1.2865095887131583
mem,resp,892,1,mem1.2.3.bmp,mem3.1.2.bmp,mem1.2.3.bmp,ACC028,"[-3, 0, 3]","[3, -3, 0]","[-3, 0, 3]",match,1.2928932188134525,,-1.4915194179876572,-1.4786215398884897,-1.514387605077196,1st,1st,1st,-1.2808825069685528,-1.1846955799739554,-1.2865095887131583
mem,resp,886,1,mem3.2.2.bmp,mem1.2.1.bmp,mem2.3.3.bmp,ACC028,"[3, 0, 0]","[-3, 0, -3]","[0, 3, 3]",non-match,0.7928932188134524,2,0.3952413123148826,0.6069190800042628,-1.6962731089017458,3rd,4th,1st,0.2704410385133673,1.3039750494955062,-1.2865095887131583
mem,resp,811,1,mem3.2.1.bmp,mem1.1.2.bmp,mem2.1.3.bmp,ACC028,"[3, 0, -3]","[-3, -3, 0]","[0, -3, 3]",non-match,0.8846449283495895,2,-1.298377528146735,-0.9120597819681932,-1.1985946973991506,1st,1st,1st,-1.2808825069685528,-1.1846955799739554,-1.2865095887131583
mem,resp,553,1,mem1.3.1.bmp,mem1.3.2.bmp,mem3.2.3.bmp,ACC028,"[-3, 3, -3]","[-3, 3, 0]","[3, 0, 3]",non-match,0.42686781502901383,1,1.1811925913503916,-0.7290787251073929,-1.4354013452357408,4th,1st,1st,1.3051260276041958,-1.1846955799739554,-1.2865095887131583
mem,resp,565,1,mem3.3.2.bmp,mem3.3.1.bmp,mem3.3.2.bmp,ACC028,"[3, 3, 0]","[3, 3, -3]","[3, 3, 0]",match,1.7113248654051871,,1.7364122801175619,0.7305626549685666,-1.7518442953753368,4th,4th,1st,1.3051260276041958,1.3039750494955062,-1.2865095887131583
mem,resp,1292,0,mem3.1.3.bmp,mem3.3.3.bmp,mem2.2.3.bmp,ACC028,"[3, -3, 3]","[3, 3, 3]","[0, 0, 3]",non-match,1.1835034190722742,4,0.2760312953046534,1.0996992426215044,-1.3058949443797607,3rd,4th,1st,0.2704410385133673,1.3039750494955062,-1.2865095887131583
mem,resp,856,1,mem2.2.2.bmp,mem1.2.2.bmp,mem2.2.2.bmp,ACC028,"[0, 0, 0]","[-3, 0, 0]","[0, 0, 0]",match,1.7113248654051871,,-0.4622399979582079,0.9153012329154665,-1.4320816967465961,2nd,4th,1st,-0.2911723378696163,1.3039750494955062,-1.2865095887131583
mem,resp,585,1,mem2.1.3.bmp,mem1.3.3.bmp,mem2.1.3.bmp,ACC028,"[0, -3, 3]","[-3, 3, 3]","[0, -3, 3]",match,1.3545027756320973,,0.7807786746604006,-0.3837434881682332,-1.4610060891323573,4th,2nd,1st,1.3051260276041958,-0.3688356038972274,-1.2865095887131583
mem,resp,568,1,mem2.3.1.bmp,mem2.3.2.bmp,mem2.3.1.bmp,ACC028,"[0, 3, -3]","[0, 3, 0]","[0, 3, -3]",match,1.7113248654051871,,1.2461887944863337,-0.3717663496664929,-1.2481846864789237,4th,2nd,1st,1.3051260276041958,-0.3688356038972274,-1.2865095887131583
mem,resp,610,1,mem1.3.2.bmp,mem2.3.3.bmp,mem1.3.2.bmp,ACC028,"[-3, 3, 0]","[0, 3, 3]","[-3, 3, 0]",match,1.591751709536137,,2.633459483685479,0.6944387467315428,-1.2006249298012304,4th,4th,1st,1.3051260276041958,1.3039750494955062,-1.2865095887131583
mem,resp,735,1,mem3.3.1.bmp,mem2.2.3.bmp,mem2.2.3.bmp,ACC028,"[3, 3, -3]","[0, 0, 3]","[0, 0, 3]",match,1.2928932188134525,,0.15644145449283395,0.5067440161820304,-1.3153092347540405,3rd,3rd,1st,0.2704410385133673,0.2528397677227245,-1.2865095887131583
mem,resp,838,1,mem1.2.1.bmp,mem2.2.2.bmp,mem1.1.1.bmp,ACC028,"[-3, 0, -3]","[0, 0, 0]","[-3, -3, -3]",non-match,1.2113248654051871,4,0.048964806226991744,0.404141028049137,-1.3037604199373223,3rd,3rd,1st,0.2704410385133673,0.2528397677227245,-1.2865095887131583
mem,resp,601,1,mem1.1.3.bmp,mem3.3.2.bmp,mem3.3.2.bmp,ACC028,"[-3, -3, 3]","[3, 3, 0]","[3, 3, 0]",match,1.1339745962155614,,0.054762233125720504,-0.9769027550934237,-1.1299814711852523,3rd,1st,1st,0.2704410385133673,-1.1846955799739554,-1.2865095887131583
mem,resp,704,1,mem2.1.1.bmp,mem3.2.1.bmp,mem3.2.1.bmp,ACC028,"[0, -3, -3]","[3, 0, -3]","[3, 0, -3]",match,1.591751709536137,,1.796716040435407,-0.6298581428760237,-1.3746509258900559,4th,2nd,1st,1.3051260276041958,-0.3688356038972274,-1.2865095887131583
mem,resp,735,1,mem3.1.2.bmp,mem1.2.3.bmp,mem1.3.3.bmp,ACC028,"[3, -3, 0]","[-3, 0, 3]","[-3, 3, 3]",non-match,0.8452994616207485,2,1.8163746599823118,0.3996034485576699,-1.3961706020876394,4th,3rd,1st,1.3051260276041958,0.2528397677227245,-1.2865095887131583
mem,resp,737,1,mem3.3.3.bmp,mem2.3.1.bmp,mem3.3.3.bmp,ACC028,"[3, 3, 3]","[0, 3, -3]","[3, 3, 3]",match,1.3545027756320973,,1.2115869266218589,1.0248684940554,-1.3620060191530958,4th,4th,1st,1.3051260276041958,1.3039750494955062,-1.2865095887131583
mem,resp,658,1,mem3.2.3.bmp,mem3.1.3.bmp,mem3.2.3.bmp,ACC028,"[3, 0, 3]","[3, -3, 3]","[3, 0, 3]",match,1.7113248654051871,,1.0978143604448958,0.24389357096328612,-1.3376636099874721,4th,3rd,1st,1.3051260276041958,0.2528397677227245,-1.2865095887131583
mem,resp,793,1,mem2.2.1.bmp,mem3.1.1.bmp,mem1.2.1.bmp,ACC028,"[0, 0, -3]","[3, -3, -3]","[-3, 0, -3]",non-match,1.0658276410372842,3,-0.13067859968656964,-0.9983108609581423,-0.9376065679713397,2nd,1st,1st,-0.2911723378696163,-1.1846955799739554,-1.2865095887131583
mem,resp,605,1,mem1.1.1.bmp,mem2.2.2.bmp,mem1.1.1.bmp,ACC028,"[-3, -3, -3]","[0, 0, 0]","[-3, -3, -3]",match,1.5,,1.2992019596888524,0.05163494362733289,-1.4273701154352207,4th,3rd,1st,1.3051260276041958,0.2528397677227245,-1.2865095887131583
mem,resp,940,1,mem1.1.2.bmp,mem1.2.3.bmp,mem1.1.2.bmp,ACC028,"[-3, -3, 0]","[-3, 0, 3]","[-3, -3, 0]",match,1.591751709536137,,-0.22342264137306192,0.4334789113677695,-1.2240235050242272,2nd,3rd,1st,-0.2911723378696163,0.2528397677227245,-1.2865095887131583
mem,resp,763,0,mem2.3.2.bmp,mem2.2.3.bmp,mem2.3.2.bmp,ACC028,"[0, 3, 0]","[0, 0, 3]","[0, 3, 0]",match,1.591751709536137,,0.5276712801753025,0.9453699913173292,-1.0598070032022036,3rd,4th,1st,0.2704410385133673,1.3039750494955062,-1.2865095887131583
mem,resp,788,1,mem1.3.3.bmp,mem2.1.2.bmp,mem1.2.2.bmp,ACC028,"[-3, 3, 3]","[0, -3, 0]","[-3, 0, 0]",non-match,1.1835034190722742,4,-1.5170211879526574,-1.1743589757868669,-0.896739437178639,1st,1st,1st,-1.2808825069685528,-1.1846955799739554,-1.2865095887131583
mem,resp,794,1,mem3.1.1.bmp,mem3.2.2.bmp,mem3.1.1.bmp,ACC028,"[3, -3, -3]","[3, 0, 0]","[3, -3, -3]",match,1.591751709536137,,-0.2009427751917169,1.3636134929948243,-0.9177841547665344,2nd,4th,1st,-0.2911723378696163,1.3039750494955062,-1.2865095887131583
mem,resp,755,1,mem2.3.3.bmp,mem2.3.1.bmp,mem1.1.1.bmp,ACC028,"[0, 3, 3]","[0, 3, -3]","[-3, -3, -3]",non-match,0.4884773718476586,1,0.3310912952731205,-0.7472145178812298,-0.9656922688509001,3rd,1st,1st,0.2704410385133673,-1.1846955799739554,-1.2865095887131583
mem,resp,688,1,mem2.2.3.bmp,mem2.1.3.bmp,mem2.1.1.bmp,ACC028,"[0, 0, 3]","[0, -3, 3]","[0, -3, -3]",non-match,0.7771525064424715,2,-0.062179774692318245,-0.29900172595491603,-1.153509165962175,2nd,2nd,1st,-0.2911723378696163,-0.3688356038972274,-1.2865095887131583
mem,resp,792,0,mem1.3.2.bmp,mem3.3.3.bmp,mem3.2.3.bmp,ACC028,"[-3, 3, 0]","[3, 3, 3]","[3, 0, 3]",non-match,1.0042180842186395,3,0.6275738709902943,0.5920717092570204,-0.9760302588837194,3rd,4th,1st,0.2704410385133673,1.3039750494955062,-1.2865095887131583
mem,resp,765,1,mem2.2.2.bmp,mem3.2.1.bmp,mem1.2.1.bmp,ACC028,"[0, 0, 0]","[3, 0, -3]","[-3, 0, -3]",non-match,1.0144014403465114,3,-0.04793702358693942,-0.13347223934854185,-0.42114347556233794,2nd,2nd,2nd,-0.2911723378696163,-0.3688356038972274,-0.3654042884091494
mem,resp,756,1,mem3.1.2.bmp,mem3.1.3.bmp,mem3.1.3.bmp,ACC028,"[3, -3, 0]","[3, -3, 3]","[3, -3, 3]",match,1.7113248654051871,,-1.9317640063289527,-1.1500389535429987,-0.3413642391455578,1st,1st,2nd,-1.2808825069685528,-1.1846955799739554,-0.3654042884091494
mem,resp,771,1,mem2.1.2.bmp,mem3.3.2.bmp,mem2.1.2.bmp,ACC028,"[0, -3, 0]","[3, 3, 0]","[0, -3, 0]",match,1.3545027756320973,,1.3957374228335715,2.9659186485294384,-0.6684566923616184,4th,4th,2nd,1.3051260276041958,1.3039750494955062,-0.3654042884091494
mem,resp,1361,0,mem3.1.1.bmp,mem1.3.3.bmp,mem1.3.2.bmp,ACC028,"[3, -3, -3]","[-3, 3, 3]","[-3, 3, 0]",non-match,0.8452994616207485,2,-1.4699654076146016,-0.7987955200822179,-0.2804318916575829,1st,1st,2nd,-1.2808825069685528,-1.1846955799739554,-0.3654042884091494
mem,resp,924,0,mem3.2.1.bmp,mem2.1.1.bmp,mem3.2.2.bmp,ACC028,"[3, 0, -3]","[0, -3, -3]","[3, 0, 0]",non-match,1.2113248654051871,4,-1.3038532155849425,1.1004748969260296,-0.17733821892484805,1st,4th,2nd,-1.2808825069685528,1.3039750494955062,-0.3654042884091494
mem,resp,770,1,mem1.3.1.bmp,mem1.2.2.bmp,mem1.2.3.bmp,ACC028,"[-3, 3, -3]","[-3, 0, 0]","[-3, 0, 3]",non-match,1.0658276410372842,3,0.02850624605134684,-0.6389483609988609,-0.040449122730357556,3rd,2nd,2nd,0.2704410385133673,-0.3688356038972274,-0.3654042884091494
mem,resp,873,1,mem3.1.3.bmp,mem1.2.1.bmp,mem2.3.3.bmp,ACC028,"[3, -3, 3]","[-3, 0, -3]","[0, 3, 3]",non-match,0.6473959944455496,1,0.030719922456349264,3.0387009920702983,-0.007559409242003841,3rd,4th,2nd,0.2704410385133673,1.3039750494955062,-0.3654042884091494
mem,resp,686,0,mem3.3.3.bmp,mem1.1.2.bmp,mem3.3.2.bmp,ACC028,"[3, 3, 3]","[-3, -3, 0]","[3, 3, 0]",non-match,0.8948282844774612,2,0.39226440698226805,-0.7535701536672142,0.07010092648319079,3rd,1st,3rd,0.2704410385133673,-1.1846955799739554,0.37232018430069913
mem,resp,639,1,mem2.3.2.bmp,mem1.1.3.bmp,mem3.1.1.bmp,ACC028,"[0, 3, 0]","[-3, -3, 3]","[3, -3, -3]",non-match,0.4763966378857265,1,1.2854133106157666,1.4190820972312035,-0.016206180851545477,4th,4th,2nd,1.3051260276041958,1.3039750494955062,-0.3654042884091494
mem,resp,732,1,mem1.2.3.bmp,mem2.2.1.bmp,mem1.3.3.bmp,ACC028,"[-3, 0, 3]","[0, 0, -3]","[-3, 3, 3]",non-match,1.0042180842186395,3,-0.9399366889044642,-0.41177414040375154,-0.14689330029868344,1st,2nd,2nd,-1.2808825069685528,-0.3688356038972274,-0.3654042884091494
mem,resp,794,1,mem3.2.3.bmp,mem3.3.1.bmp,mem3.2.3.bmp,ACC028,"[3, 0, 3]","[3, 3, -3]","[3, 0, 3]",match,1.3545027756320973,,0.6501472411622362,1.4409556427384502,0.1397509831704752,3rd,4th,3rd,0.2704410385133673,1.3039750494955062,0.37232018430069913
mem,resp,1480,0,mem1.1.1.bmp,mem1.2.3.bmp,mem2.1.3.bmp,ACC028,"[-3, -3, -3]","[-3, 0, 3]","[0, -3, 3]",non-match,0.9462544851682343,3,0.019051024519286464,1.1524525680939945,0.5156417551694623,3rd,4th,3rd,0.2704410385133673,1.3039750494955062,0.37232018430069913
mem,resp,714,1,mem2.3.2.bmp,mem1.3.3.bmp,mem2.2.3.bmp,ACC028,"[0, 3, 0]","[-3, 3, 3]","[0, 0, 3]",non-match,1.1835034190722742,4,0.841770352170039,2.4115594184613993,0.5275510608866673,4th,4th,3rd,1.3051260276041958,1.3039750494955062,0.37232018430069913
mem,resp,776,0,mem1.1.3.bmp,mem2.2.2.bmp,mem2.2.2.bmp,ACC028,"[-3, -3, 3]","[0, 0, 0]","[0, 0, 0]",match,1.5,,0.231792993159118,-1.0569738761962946,0.5956807451342179,3rd,1st,3rd,0.2704410385133673,-1.1846955799739554,0.37232018430069913
mem,resp,658,1,mem2.1.2.bmp,mem1.2.1.bmp,mem3.3.1.bmp,ACC028,"[0, -3, 0]","[-3, 0, -3]","[3, 3, -3]",non-match,0.6473959944455496,1,1.4377423287368147,0.17139126950483605,0.6268669954967973,4th,3rd,3rd,1.3051260276041958,0.2528397677227245,0.37232018430069913
mem,resp,709,1,mem3.2.2.bmp,mem1.1.1.bmp,mem1.1.1.bmp,ACC028,"[3, 0, 0]","[-3, -3, -3]","[-3, -3, -3]",match,1.2928932188134525,,-0.31192387948955796,1.353152241543495,0.4816730618099087,2nd,4th,3rd,-0.2911723378696163,1.3039750494955062,0.37232018430069913
mem,resp,762,1,mem3.3.2.bmp,mem2.2.3.bmp,mem2.3.1.bmp,ACC028,"[3, 3, 0]","[0, 0, 3]","[0, 3, -3]",non-match,0.9462544851682343,3,0.089176370107201,-0.35509875968336474,0.2427289627218146,3rd,2nd,3rd,0.2704410385133673,-0.3688356038972274,0.37232018430069913
mem,resp,850,1,mem1.2.2.bmp,mem2.3.2.bmp,mem1.3.1.bmp,ACC028,"[-3, 0, 0]","[0, 3, 0]","[-3, 3, -3]",non-match,1.1835034190722742,4,-0.22148629568367972,-0.984633632441106,0.4532615671798314,2nd,1st,3rd,-0.2911723378696163,-1.1846955799739554,0.37232018430069913
mem,resp,861,0,mem3.2.3.bmp,mem2.1.1.bmp,mem2.2.2.bmp,ACC028,"[3, 0, 3]","[0, -3, -3]","[0, 0, 0]",non-match,1.1835034190722742,4,-0.02662335164271388,1.1111867599772205,0.37515153042185423,2nd,4th,3rd,-0.2911723378696163,1.3039750494955062,0.37232018430069913
mem,resp,1280,1,mem3.3.3.bmp,mem3.2.1.bmp,mem3.1.2.bmp,ACC028,"[3, 3, 3]","[3, 0, -3]","[3, -3, 0]",non-match,0.9462544851682343,3,-1.0877268428486577,-0.33915793609986405,0.5288615681418877,1st,2nd,3rd,-1.2808825069685528,-0.3688356038972274,0.37232018430069913
mem,resp,724,1,mem1.3.2.bmp,mem2.3.1.bmp,mem2.3.3.bmp,ACC028,"[-3, 3, 0]","[0, 3, -3]","[0, 3, 3]",non-match,1.0144014403465114,3,1.8038427815093265,0.30412600378822063,1.2316434836880517,4th,3rd,4th,1.3051260276041958,0.2528397677227245,1.28442901989045
mem,resp,717,1,mem1.1.2.bmp,mem3.1.3.bmp,mem1.1.2.bmp,ACC028,"[-3, -3, 0]","[3, -3, 3]","[-3, -3, 0]",match,1.3545027756320973,,1.1951926267648845,-0.4402902508019078,0.9321072118138373,4th,2nd,4th,1.3051260276041958,-0.3688356038972274,1.28442901989045
mem,resp,902,0,mem1.2.3.bmp,mem3.2.2.bmp,mem3.2.2.bmp,ACC028,"[-3, 0, 3]","[3, 0, 0]","[3, 0, 0]",match,1.3545027756320973,,-0.00013226185795467486,0.8065536813042435,0.8183172335744524,3rd,4th,4th,0.2704410385133673,1.3039750494955062,1.28442901989045
mem,resp,646,1,mem3.1.2.bmp,mem3.1.1.bmp,mem3.3.1.bmp,ACC028,"[3, -3, 0]","[3, -3, -3]","[3, 3, -3]",non-match,0.7771525064424715,2,1.1392305310798063,0.6053991928698147,0.7661869729823357,4th,4th,4th,1.3051260276041958,1.3039750494955062,1.28442901989045
mem,resp,902,0,mem2.2.1.bmp,mem2.1.3.bmp,mem2.2.1.bmp,ACC028,"[0, 0, -3]","[0, -3, 3]","[0, 0, -3]",match,1.3545027756320973,,0.345602128949088,-0.24978394987278582,0.7775960924601699,3rd,2nd,4th,0.2704410385133673,-0.3688356038972274,1.28442901989045
mem,resp,1177,1,mem1.3.1.bmp,mem1.2.2.bmp,mem2.2.2.bmp,ACC028,"[-3, 3, -3]","[-3, 0, 0]","[0, 0, 0]",non-match,1.2113248654051871,4,-1.0345510189796034,0.49639759067245476,1.1079714446185658,1st,3rd,4th,-1.2808825069685528,0.2528397677227245,1.28442901989045
mem,resp,660,1,mem1.3.3.bmp,mem2.1.2.bmp,mem3.1.3.bmp,ACC028,"[-3, 3, 3]","[0, -3, 0]","[3, -3, 3]",non-match,0.7752551286084112,2,0.07451441297462194,0.37058046778232756,1.226323816508957,3rd,3rd,4th,0.2704410385133673,0.2528397677227245,1.28442901989045
mem,resp,1449,1,mem2.3.1.bmp,mem3.2.3.bmp,mem2.1.1.bmp,ACC028,"[0, 3, -3]","[3, 0, 3]","[0, -3, -3]",non-match,0.7155429496238267,2,-0.5575662228345236,-0.7284285214022201,0.8287215847400736,2nd,2nd,4th,-0.2911723378696163,-0.3688356038972274,1.28442901989045
mem,resp,654,1,mem3.3.1.bmp,mem3.3.3.bmp,mem1.2.3.bmp,ACC028,"[3, 3, -3]","[3, 3, 3]","[-3, 0, 3]",non-match,0.4884773718476586,1,0.6005124199319264,-0.3038079445743007,1.0465090755731825,3rd,2nd,4th,0.2704410385133673,-0.3688356038972274,1.28442901989045
mem,resp,677,0,mem3.1.1.bmp,mem2.2.1.bmp,mem3.2.1.bmp,ACC028,"[3, -3, -3]","[0, 0, -3]","[3, 0, -3]",non-match,1.4226497308103743,4,-0.48764367815000703,-0.8901455930731463,1.5516452364961408,2nd,1st,4th,-0.2911723378696163,-1.1846955799739554,1.28442901989045
mem,resp,650,1,mem1.2.1.bmp,mem3.1.2.bmp,mem3.3.2.bmp,ACC028,"[-3, 0, -3]","[3, -3, 0]","[3, 3, 0]",non-match,0.7155429496238267,2,0.17824480862488631,1.4760637830291907,1.374217026042182,3rd,4th,4th,0.2704410385133673,1.3039750494955062,1.28442901989045
mem,resp,913,1,mem2.1.3.bmp,mem1.3.1.bmp,mem2.1.3.bmp,ACC028,"[0, -3, 3]","[-3, 3, -3]","[0, -3, 3]",match,1.1339745962155614,,-1.5955650748365429,0.167893820462425,1.4148091326585504,1st,3rd,4th,-1.2808825069685528,0.2528397677227245,1.28442901989045
mem,resp,911,1,mem2.1.1.bmp,mem1.3.2.bmp,mem1.1.2.bmp,ACC028,"[0, -3, -3]","[-3, 3, 0]","[-3, -3, 0]",non-match,1.0144014403465114,3,1.0093170013540997,3.4788612618825465,1.3955064221406697,4th,4th,4th,1.3051260276041958,1.3039750494955062,1.28442901989045
mem,resp,665,1,mem3.2.1.bmp,mem3.3.3.bmp,mem1.1.1.bmp,ACC028,"[3, 0, -3]","[3, 3, 3]","[-3, -3, -3]",non-match,0.3545027756320972,1,2.489794112750177,-0.7951089810944253,1.0892089763582438,4th,1st,4th,1.3051260276041958,-1.1846955799739554,1.28442901989045
mem,resp,665,0,mem3.1.3.bmp,mem3.3.2.bmp,mem3.3.2.bmp,ACC028,"[3, -3, 3]","[3, 3, 0]","[3, 3, 0]",match,1.3545027756320973,,1.3751029267544663,0.5100941680122739,1.142795137806498,4th,3rd,4th,1.3051260276041958,0.2528397677227245,1.28442901989045
mem,resp,810,0,mem2.3.3.bmp,mem3.2.2.bmp,mem3.2.3.bmp,ACC028,"[0, 3, 3]","[3, 0, 0]","[3, 0, 3]",non-match,1.3030765749413242,4,-1.1631193802551973,0.42173955161710336,1.1505647760575677,1st,3rd,4th,-1.2808825069685528,0.2528397677227245,1.28442901989045
mem,resp,854,0,mem2.2.2.bmp,mem1.1.2.bmp,mem1.1.2.bmp,ACC028,"[0, 0, 0]","[-3, -3, 0]","[-3, -3, 0]",match,1.591751709536137,,-0.17951475562567926,-0.619223041618493,1.2860359977959595,2nd,2nd,4th,-0.2911723378696163,-0.3688356038972274,1.28442901989045
mem,resp,1199,0,mem1.2.2.bmp,mem2.2.3.bmp,mem2.2.3.bmp,ACC028,"[-3, 0, 0]","[0, 0, 3]","[0, 0, 3]",match,1.591751709536137,,-0.7957516925208421,-0.755868536794847,1.4153621620210213,1st,1st,4th,-1.2808825069685528,-1.1846955799739554,1.28442901989045
mem,resp,603,1,mem1.3.3.bmp,mem1.3.1.bmp,mem3.2.1.bmp,ACC028,"[-3, 3, 3]","[-3, 3, -3]","[3, 0, -3]",non-match,0.4884773718476586,1,1.586119630783972,1.8061287806086885,1.5346663410922152,4th,4th,4th,1.3051260276041958,1.3039750494955062,1.28442901989045
mem,resp,800,1,mem2.2.2.bmp,mem2.1.3.bmp,mem2.2.2.bmp,ACC028,"[0, 0, 0]","[0, -3, 3]","[0, 0, 0]",match,1.591751709536137,,1.3590272579592806,2.00339931414317,1.8409110536185165,4th,4th,4th,1.3051260276041958,1.3039750494955062,1.28442901989045
mem,resp,1025,0,mem1.1.1.bmp,mem3.2.3.bmp,mem2.1.2.bmp,ACC028,"[-3, -3, -3]","[3, 0, 3]","[0, -3, 0]",non-match,1.091751709536137,4,0.2906338230469721,-0.019644816310025084,1.7486283568199663,3rd,3rd,4th,0.2704410385133673,0.2528397677227245,1.28442901989045
mem,resp,586,1,mem2.2.3.bmp,mem3.1.3.bmp,mem3.1.3.bmp,ACC028,"[0, 0, 3]","[3, -3, 3]","[3, -3, 3]",match,1.591751709536137,,1.7625431682646142,0.6491399127097333,1.6442377477495256,4th,4th,4th,1.3051260276041958,1.3039750494955062,1.28442901989045
mem,resp,900,1,mem3.2.2.bmp,mem1.3.2.bmp,mem1.3.3.bmp,ACC028,"[3, 0, 0]","[-3, 3, 0]","[-3, 3, 3]",non-match,1.0042180842186395,3,-1.3858708924827818,-0.8525315992327436,1.4715504397346413,1st,1st,4th,-1.2808825069685528,-1.1846955799739554,1.28442901989045
mem,resp,875,1,mem3.1.2.bmp,mem2.3.1.bmp,mem3.1.2.bmp,ACC028,"[3, -3, 0]","[0, 3, -3]","[3, -3, 0]",match,1.2928932188134525,,0.023726186279443978,1.7221613333052423,2.4745021513055323,3rd,4th,4th,0.2704410385133673,1.3039750494955062,1.28442901989045
mem,resp,878,1,mem1.2.3.bmp,mem3.1.1.bmp,mem1.3.1.bmp,ACC028,"[-3, 0, 3]","[3, -3, -3]","[-3, 3, -3]",non-match,0.5380061947043713,1,-0.3500579479775986,-0.4142260290187759,2.673117946468487,2nd,2nd,4th,-0.2911723378696163,-0.3688356038972274,1.28442901989045
mem,resp,914,1,mem3.3.2.bmp,mem1.1.3.bmp,mem2.1.1.bmp,ACC028,"[3, 3, 0]","[-3, -3, 3]","[0, -3, -3]",non-match,0.6473959944455496,1,-0.08554392634099041,4.049766866717457,2.413984947531214,2nd,4th,4th,-0.2911723378696163,1.3039750494955062,1.28442901989045
mem,resp,747,1,mem1.2.1.bmp,mem2.1.2.bmp,mem2.2.3.bmp,ACC028,"[-3, 0, -3]","[0, -3, 0]","[0, 0, 3]",non-match,0.9462544851682343,3,-0.29900693891745367,0.35615594754757646,1.9336982459446181,2nd,3rd,4th,-0.2911723378696163,0.2528397677227245,1.28442901989045
