mode,type,rt,acc,item_1,item_2,item_cue,subj_idx,item_1_number,item_2_number,item_cue_number,trial_type,summed_similarity,similarity_bin,ams,pams,slps,ams_quantile,pams_quantile,slps_quantile,ams_bin,pam_bin,slp_bin
mem,resp,954,1,mem1.2.1.bmp,mem3.1.2.bmp,mem3.1.2.bmp,ACC016,"[-3, 0, -3]","[3, -3, 0]","[3, -3, 0]",match,1.2928932188134525,,0.08679867460297924,-0.11951941230416034,-2.1861584768426097,3rd,2nd,1st,0.31745803969164954,-0.2559482793706119,-1.2994699926508708
mem,resp,1328,1,mem1.2.3.bmp,mem3.3.3.bmp,mem3.2.1.bmp,ACC016,"[-3, 0, 3]","[3, 3, 3]","[3, 0, -3]",non-match,0.5380061947043713,1,2.772147422725479,0.24852398758464966,-2.173674560761021,4th,3rd,1st,1.2591620033152082,0.16176174549555883,-1.2994699926508708
mem,resp,1032,1,mem1.1.2.bmp,mem1.2.2.bmp,mem1.1.2.bmp,ACC016,"[-3, -3, 0]","[-3, 0, 0]","[-3, -3, 0]",match,1.7113248654051871,,1.9433697945837516,-0.24156101483955764,-2.363768586079764,4th,2nd,1st,1.2591620033152082,-0.2559482793706119,-1.2994699926508708
mem,resp,1214,1,mem3.2.2.bmp,mem1.3.2.bmp,mem1.3.2.bmp,ACC016,"[3, 0, 0]","[-3, 3, 0]","[-3, 3, 0]",match,1.3545027756320973,,0.31361222496786,-1.1290527783864488,-2.2773249394080497,3rd,1st,1st,0.31745803969164954,-0.9386715209445801,-1.2994699926508708
mem,resp,875,1,mem2.1.2.bmp,mem1.1.3.bmp,mem3.1.1.bmp,ACC016,"[0, -3, 0]","[-3, -3, 3]","[3, -3, -3]",non-match,0.7752551286084112,2,0.07325813189869261,-0.20240715565785736,-2.172952774753223,3rd,2nd,1st,0.31745803969164954,-0.2559482793706119,-1.2994699926508708
mem,resp,815,1,mem2.2.3.bmp,mem2.3.3.bmp,mem3.1.3.bmp,ACC016,"[0, 0, 3]","[0, 3, 3]","[3, -3, 3]",non-match,0.9462544851682343,3,0.32104253927865234,0.0681042162962865,-2.1192750185215297,3rd,3rd,1st,0.31745803969164954,0.16176174549555883,-1.2994699926508708
mem,resp,572,0,mem3.2.1.bmp,mem3.3.1.bmp,mem3.3.3.bmp,ACC016,"[3, 0, -3]","[3, 3, -3]","[3, 3, 3]",non-match,0.7771525064424715,2,-0.8907726027439887,-0.43276936531516125,-2.070090761199757,1st,2nd,1st,-1.2592791171956434,-0.2559482793706119,-1.2994699926508708
mem,resp,850,1,mem2.1.1.bmp,mem1.2.1.bmp,mem2.2.2.bmp,ACC016,"[0, -3, -3]","[-3, 0, -3]","[0, 0, 0]",non-match,1.1835034190722742,4,1.7633388151817926,0.23925686859106807,-2.0941282833231667,4th,3rd,1st,1.2591620033152082,0.16176174549555883,-1.2994699926508708
mem,resp,808,1,mem2.3.2.bmp,mem1.3.3.bmp,mem1.3.3.bmp,ACC016,"[0, 3, 0]","[-3, 3, 3]","[-3, 3, 3]",match,1.591751709536137,,0.9593035462248631,-0.46780905525074956,-1.900682903006577,4th,2nd,1st,1.2591620033152082,-0.2559482793706119,-1.2994699926508708
mem,resp,735,1,mem1.3.2.bmp,mem3.1.3.bmp,mem3.1.3.bmp,ACC016,"[-3, 3, 0]","[3, -3, 3]","[3, -3, 3]",match,1.1339745962155614,,1.0718036575239995,0.0924751847414324,-1.72627378793208,4th,3rd,1st,1.2591620033152082,0.16176174549555883,-1.2994699926508708
mem,resp,618,0,mem3.1.2.bmp,mem2.1.3.bmp,mem3.2.2.bmp,ACC016,"[3, -3, 0]","[0, -3, 3]","[3, 0, 0]",non-match,1.2113248654051871,4,-0.02826676617249847,-0.5455415518603707,-1.8399813248771424,2nd,1st,1st,-0.3173409258112142,-0.9386715209445801,-1.2994699926508708
mem,resp,905,1,mem1.1.1.bmp,mem2.1.2.bmp,mem1.1.1.bmp,ACC016,"[-3, -3, -3]","[0, -3, 0]","[-3, -3, -3]",match,1.591751709536137,,-0.7066653112995247,0.36619655771893433,-1.8721561173718686,1st,3rd,1st,-1.2592791171956434,0.16176174549555883,-1.2994699926508708
mem,resp,1002,0,mem3.3.1.bmp,mem2.3.1.bmp,mem2.3.1.bmp,ACC016,"[3, 3, -3]","[0, 3, -3]","[0, 3, -3]",match,1.7113248654051871,,-0.24918179176997768,-0.9260426908572535,-2.002285099184055,2nd,1st,1st,-0.3173409258112142,-0.9386715209445801,-1.2994699926508708
mem,resp,1112,1,mem3.1.3.bmp,mem1.2.3.bmp,mem3.1.3.bmp,ACC016,"[3, -3, 3]","[-3, 0, 3]","[3, -3, 3]",match,1.3545027756320973,,-0.6342707229753127,0.45737432737462014,-2.085843437002585,2nd,4th,1st,-0.3173409258112142,1.0328580548196336,-1.2994699926508708
mem,resp,1134,1,mem3.3.3.bmp,mem3.3.2.bmp,mem2.3.3.bmp,ACC016,"[3, 3, 3]","[3, 3, 0]","[0, 3, 3]",non-match,1.3030765749413242,4,-0.996503730842205,-0.8734130057292443,-1.8276372582966174,1st,1st,1st,-1.2592791171956434,-0.9386715209445801,-1.2994699926508708
mem,resp,738,1,mem2.1.3.bmp,mem2.2.1.bmp,mem1.3.3.bmp,ACC016,"[0, -3, 3]","[0, 0, -3]","[-3, 3, 3]",non-match,0.6473959944455496,1,0.03075068918974501,0.27833366457130526,-1.8677405051107783,2nd,3rd,1st,-0.3173409258112142,0.16176174549555883,-1.2994699926508708
mem,resp,835,0,mem3.2.3.bmp,mem1.1.2.bmp,mem3.1.2.bmp,ACC016,"[3, 0, 3]","[-3, -3, 0]","[3, -3, 0]",non-match,1.0144014403465114,3,1.3488897940085904,-0.11043686009195657,-1.870722346900216,4th,2nd,1st,1.2591620033152082,-0.2559482793706119,-1.2994699926508708
mem,resp,536,1,mem3.1.1.bmp,mem2.1.1.bmp,mem2.1.1.bmp,ACC016,"[3, -3, -3]","[0, -3, -3]","[0, -3, -3]",match,1.7113248654051871,,-0.272247356741896,0.00042989534038049236,-1.8128755485512866,2nd,3rd,1st,-0.3173409258112142,0.16176174549555883,-1.2994699926508708
mem,resp,884,1,mem1.3.1.bmp,mem3.3.2.bmp,mem3.1.3.bmp,ACC016,"[-3, 3, -3]","[3, 3, 0]","[3, -3, 3]",non-match,0.3545027756320972,1,-0.3465452968089422,-0.405688665152612,-1.7819089004558977,2nd,2nd,1st,-0.3173409258112142,-0.2559482793706119,-1.2994699926508708
mem,resp,1050,1,mem2.2.1.bmp,mem2.3.1.bmp,mem3.2.1.bmp,ACC016,"[0, 0, -3]","[0, 3, -3]","[3, 0, -3]",non-match,1.3030765749413242,4,-1.4236544150690913,-0.5261403528567458,-1.673469131985351,1st,1st,1st,-1.2592791171956434,-0.9386715209445801,-1.2994699926508708
mem,resp,1150,1,mem2.2.2.bmp,mem2.3.3.bmp,mem3.3.1.bmp,ACC016,"[0, 0, 0]","[0, 3, 3]","[3, 3, -3]",non-match,0.8545027756320972,2,-1.5532556798119075,-0.4820287162113034,-1.5354387545363373,1st,1st,1st,-1.2592791171956434,-0.9386715209445801,-1.2994699926508708
mem,resp,1158,1,mem1.2.2.bmp,mem3.2.2.bmp,mem2.3.2.bmp,ACC016,"[-3, 0, 0]","[3, 0, 0]","[0, 3, 0]",non-match,1.1835034190722742,4,-0.24081066573579044,-0.6877335260853695,-1.4034772613924569,2nd,1st,1st,-0.3173409258112142,-0.9386715209445801,-1.2994699926508708
mem,resp,985,0,mem1.3.3.bmp,mem2.1.3.bmp,mem1.1.2.bmp,ACC016,"[-3, 3, 3]","[0, -3, 3]","[-3, -3, 0]",non-match,0.9462544851682343,3,-0.6442107826488049,0.08502182393309647,-1.4840859559378374,2nd,3rd,1st,-0.3173409258112142,0.16176174549555883,-1.2994699926508708
mem,resp,971,1,mem3.3.2.bmp,mem3.1.2.bmp,mem1.1.1.bmp,ACC016,"[3, 3, 0]","[3, -3, 0]","[-3, -3, -3]",non-match,0.4884773718476586,1,-1.8430716826396338,-1.1993348164739868,-1.5570116465499741,1st,1st,1st,-1.2592791171956434,-0.9386715209445801,-1.2994699926508708
mem,resp,966,1,mem1.1.3.bmp,mem2.2.3.bmp,mem1.1.3.bmp,ACC016,"[-3, -3, 3]","[0, 0, 3]","[-3, -3, 3]",match,1.591751709536137,,-0.0872051877131281,-0.08422291400923809,-1.679100106076364,2nd,2nd,1st,-0.3173409258112142,-0.2559482793706119,-1.2994699926508708
mem,resp,964,1,mem2.3.3.bmp,mem1.3.2.bmp,mem3.2.2.bmp,ACC016,"[0, 3, 3]","[-3, 3, 0]","[3, 0, 0]",non-match,0.8545027756320972,2,0.037164459321882407,-1.5220122575776502,-1.6733959170902681,2nd,1st,1st,-0.3173409258112142,-0.9386715209445801,-1.2994699926508708
mem,resp,1010,1,mem3.2.1.bmp,mem1.2.3.bmp,mem3.2.1.bmp,ACC016,"[3, 0, -3]","[-3, 0, 3]","[3, 0, -3]",match,1.1835034190722742,,-1.2293059810575158,0.3172805043471411,-1.627001592428521,1st,3rd,1st,-1.2592791171956434,0.16176174549555883,-1.2994699926508708
mem,resp,652,0,mem2.1.1.bmp,mem2.3.2.bmp,mem2.1.2.bmp,ACC016,"[0, -3, -3]","[0, 3, 0]","[0, -3, 0]",non-match,1.1339745962155614,4,-0.6907520718779596,-1.2278371505992984,-1.4393257647644508,1st,1st,1st,-1.2592791171956434,-0.9386715209445801,-1.2994699926508708
mem,resp,979,1,mem3.3.3.bmp,mem1.1.3.bmp,mem3.3.3.bmp,ACC016,"[3, 3, 3]","[-3, -3, 3]","[3, 3, 3]",match,1.1835034190722742,,-1.1707962458574706,-1.1891183136037315,-1.5132546570724583,1st,1st,1st,-1.2592791171956434,-0.9386715209445801,-1.2994699926508708
mem,resp,745,0,mem1.3.3.bmp,mem3.3.1.bmp,mem3.2.2.bmp,ACC016,"[-3, 3, 3]","[3, 3, -3]","[3, 0, 0]",non-match,0.8846449283495895,2,-0.10901084362997669,0.1914323645615914,-1.4836003017231774,2nd,3rd,1st,-0.3173409258112142,0.16176174549555883,-1.2994699926508708
mem,resp,900,1,mem3.1.1.bmp,mem2.2.2.bmp,mem1.2.1.bmp,ACC016,"[3, -3, -3]","[0, 0, 0]","[-3, 0, -3]",non-match,0.9462544851682343,3,0.5971305722341974,-0.4065274620935661,-1.5459112769830905,3rd,2nd,1st,0.31745803969164954,-0.2559482793706119,-1.2994699926508708
mem,resp,1130,1,mem1.3.1.bmp,mem1.2.2.bmp,mem1.2.2.bmp,ACC016,"[-3, 3, -3]","[-3, 0, 0]","[-3, 0, 0]",match,1.591751709536137,,-2.254034133161614,-1.9089992332471002,-1.4755797282556062,1st,1st,1st,-1.2592791171956434,-0.9386715209445801,-1.2994699926508708
mem,resp,591,1,mem2.3.2.bmp,mem3.3.3.bmp,mem2.3.2.bmp,ACC016,"[0, 3, 0]","[3, 3, 3]","[0, 3, 0]",match,1.591751709536137,,-1.147385473133162,-1.2800403196067325,-1.2247799329784124,1st,1st,1st,-1.2592791171956434,-0.9386715209445801,-1.2994699926508708
mem,resp,977,1,mem3.3.1.bmp,mem3.1.3.bmp,mem3.1.3.bmp,ACC016,"[3, 3, -3]","[3, -3, 3]","[3, -3, 3]",match,1.1835034190722742,,-0.9661499628602264,-0.3563095289874928,-1.2771673205650336,1st,2nd,1st,-1.2592791171956434,-0.2559482793706119,-1.2994699926508708
mem,resp,599,1,mem2.2.2.bmp,mem2.1.2.bmp,mem2.1.2.bmp,ACC016,"[0, 0, 0]","[0, -3, 0]","[0, -3, 0]",match,1.7113248654051871,,0.15596637773755698,-0.35494275392566477,-1.317176803350009,3rd,2nd,1st,0.31745803969164954,-0.2559482793706119,-1.2994699926508708
mem,resp,814,1,mem1.1.3.bmp,mem1.1.1.bmp,mem1.1.3.bmp,ACC016,"[-3, -3, 3]","[-3, -3, -3]","[-3, -3, 3]",match,1.4226497308103743,,-1.223685867993622,0.10259728312052879,-1.1655416319660377,1st,3rd,1st,-1.2592791171956434,0.16176174549555883,-1.2994699926508708
mem,resp,701,0,mem2.3.2.bmp,mem2.2.1.bmp,mem2.3.2.bmp,ACC016,"[0, 3, 0]","[0, 0, -3]","[0, 3, 0]",match,1.591751709536137,,1.9743889765427654,0.7162306143856502,-1.0603765560600393,4th,4th,1st,1.2591620033152082,1.0328580548196336,-1.2994699926508708
mem,resp,1590,0,mem3.2.3.bmp,mem1.2.3.bmp,mem3.2.3.bmp,ACC016,"[3, 0, 3]","[-3, 0, 3]","[3, 0, 3]",match,1.4226497308103743,,0.5914472282975585,-0.016533983327168357,-0.9464077229701428,3rd,3rd,1st,0.31745803969164954,0.16176174549555883,-1.2994699926508708
mem,resp,835,1,mem1.1.1.bmp,mem2.2.3.bmp,mem1.1.1.bmp,ACC016,"[-3, -3, -3]","[0, 0, 3]","[-3, -3, -3]",match,1.2928932188134525,,0.6484113223150252,-0.16311698731717766,-0.8536438339525564,4th,2nd,1st,1.2591620033152082,-0.2559482793706119,-1.2994699926508708
mem,resp,1128,0,mem1.3.3.bmp,mem3.2.2.bmp,mem2.2.2.bmp,ACC016,"[-3, 3, 3]","[3, 0, 0]","[0, 0, 0]",non-match,1.2113248654051871,4,1.4788558787061445,-0.06910097829610588,-0.6996374247801751,4th,2nd,1st,1.2591620033152082,-0.2559482793706119,-1.2994699926508708
mem,resp,864,0,mem1.1.3.bmp,mem2.3.2.bmp,mem2.1.1.bmp,ACC016,"[-3, -3, 3]","[0, 3, 0]","[0, -3, -3]",non-match,0.7090055512641944,2,0.4902907119126639,-0.6478265624216998,-0.6080189212781205,3rd,1st,2nd,0.31745803969164954,-0.9386715209445801,-0.40207086568589717
mem,resp,1082,1,mem2.1.2.bmp,mem2.3.1.bmp,mem2.3.1.bmp,ACC016,"[0, -3, 0]","[0, 3, -3]","[0, 3, -3]",match,1.3545027756320973,,0.1920221570290049,0.5089001827646046,-0.709599955311715,3rd,4th,1st,0.31745803969164954,1.0328580548196336,-1.2994699926508708
mem,resp,717,1,mem2.1.3.bmp,mem3.1.3.bmp,mem3.3.3.bmp,ACC016,"[0, -3, 3]","[3, -3, 3]","[3, 3, 3]",non-match,0.7771525064424715,2,1.3012855294411547,0.9086837507789823,-0.6888286068335561,4th,4th,1st,1.2591620033152082,1.0328580548196336,-1.2994699926508708
mem,resp,1203,1,mem3.1.2.bmp,mem1.1.1.bmp,mem1.2.3.bmp,ACC016,"[3, -3, 0]","[-3, -3, -3]","[-3, 0, 3]",non-match,0.6473959944455496,1,0.6756691977802222,-0.7092364873307294,-0.9040298776476006,4th,1st,1st,1.2591620033152082,-0.9386715209445801,-1.2994699926508708
mem,resp,1090,0,mem1.1.2.bmp,mem3.2.1.bmp,mem2.2.1.bmp,ACC016,"[-3, -3, 0]","[3, 0, -3]","[0, 0, -3]",non-match,1.2113248654051871,4,-1.5590700596965001,-0.8157288248361264,-0.8682235581984703,1st,1st,1st,-1.2592791171956434,-0.9386715209445801,-1.2994699926508708
mem,resp,1016,1,mem1.3.1.bmp,mem1.1.3.bmp,mem2.1.1.bmp,ACC016,"[-3, 3, -3]","[-3, -3, 3]","[0, -3, -3]",non-match,0.7090055512641944,2,0.15090977255119728,0.4890037223215002,-0.7269326519474844,3rd,4th,1st,0.31745803969164954,1.0328580548196336,-1.2994699926508708
mem,resp,1305,1,mem2.2.3.bmp,mem3.3.1.bmp,mem2.3.2.bmp,ACC016,"[0, 0, 3]","[3, 3, -3]","[0, 3, 0]",non-match,1.1835034190722742,4,-0.0006347946852450313,0.5769082097320032,-0.6137210043460593,2nd,4th,2nd,-0.3173409258112142,1.0328580548196336,-0.40207086568589717
mem,resp,1929,1,mem1.2.2.bmp,mem1.2.1.bmp,mem1.2.1.bmp,ACC016,"[-3, 0, 0]","[-3, 0, -3]","[-3, 0, -3]",match,1.7113248654051871,,-0.6100911425252282,-0.8418066117889231,-0.665825679610314,2nd,1st,2nd,-0.3173409258112142,-0.9386715209445801,-0.40207086568589717
mem,resp,1006,1,mem3.2.2.bmp,mem1.1.2.bmp,mem3.2.3.bmp,ACC016,"[3, 0, 0]","[-3, -3, 0]","[3, 0, 3]",non-match,1.0042180842186395,3,0.7411439524939499,0.07070019494751285,-0.5003494006923788,4th,3rd,2nd,1.2591620033152082,0.16176174549555883,-0.40207086568589717
mem,resp,931,1,mem1.3.2.bmp,mem2.3.3.bmp,mem3.3.2.bmp,ACC016,"[-3, 3, 0]","[0, 3, 3]","[3, 3, 0]",non-match,1.0144014403465114,3,0.4108677810178053,0.24474573857198356,-0.6019046839677683,3rd,3rd,2nd,0.31745803969164954,0.16176174549555883,-0.40207086568589717
mem,resp,1503,0,mem3.3.1.bmp,mem1.3.1.bmp,mem1.3.1.bmp,ACC016,"[3, 3, -3]","[-3, 3, -3]","[-3, 3, -3]",match,1.4226497308103743,,-1.1437956940264533,-1.1008123962891105,-0.4339914842642518,1st,1st,2nd,-1.2592791171956434,-0.9386715209445801,-0.40207086568589717
mem,resp,1380,0,mem3.3.3.bmp,mem3.1.2.bmp,mem3.1.2.bmp,ACC016,"[3, 3, 3]","[3, -3, 0]","[3, -3, 0]",match,1.3545027756320973,,-1.2786889956682,-0.6089761137286821,-0.5487073340158711,1st,1st,2nd,-1.2592791171956434,-0.9386715209445801,-0.40207086568589717
mem,resp,968,1,mem3.1.1.bmp,mem2.1.2.bmp,mem1.1.3.bmp,ACC016,"[3, -3, -3]","[0, -3, 0]","[-3, -3, 3]",non-match,0.7752551286084112,2,0.787057869583816,0.561691828140386,-0.4777833311191869,4th,4th,2nd,1.2591620033152082,1.0328580548196336,-0.40207086568589717
mem,resp,1063,1,mem2.2.1.bmp,mem2.2.2.bmp,mem2.2.1.bmp,ACC016,"[0, 0, -3]","[0, 0, 0]","[0, 0, -3]",match,1.7113248654051871,,0.29374996622198235,-0.3146746030658779,-0.22941325697370646,3rd,2nd,2nd,0.31745803969164954,-0.2559482793706119,-0.40207086568589717
mem,resp,1817,1,mem3.2.1.bmp,mem3.3.2.bmp,mem3.2.1.bmp,ACC016,"[3, 0, -3]","[3, 3, 0]","[3, 0, -3]",match,1.591751709536137,,-1.0669464066712273,-1.2330963804138504,-0.1529381276470504,1st,1st,2nd,-1.2592791171956434,-0.9386715209445801,-0.40207086568589717
mem,resp,1075,1,mem2.3.1.bmp,mem3.2.3.bmp,mem2.1.3.bmp,ACC016,"[0, 3, -3]","[3, 0, 3]","[0, -3, 3]",non-match,0.7752551286084112,2,-0.500080131831109,0.3215344179003109,-0.3810613187227407,2nd,3rd,2nd,-0.3173409258112142,0.16176174549555883,-0.40207086568589717
mem,resp,1021,0,mem1.2.3.bmp,mem2.1.1.bmp,mem2.1.1.bmp,ACC016,"[-3, 0, 3]","[0, -3, -3]","[0, -3, -3]",match,1.2928932188134525,,-0.9137437030646016,-1.2528970059163327,-0.4733352829241051,1st,1st,2nd,-1.2592791171956434,-0.9386715209445801,-0.40207086568589717
mem,resp,847,1,mem1.2.1.bmp,mem1.3.2.bmp,mem1.2.1.bmp,ACC016,"[-3, 0, -3]","[-3, 3, 0]","[-3, 0, -3]",match,1.591751709536137,,-0.7147497133190769,-0.8824804528607233,-0.4341319398607166,1st,1st,2nd,-1.2592791171956434,-0.9386715209445801,-0.40207086568589717
mem,resp,1951,1,mem2.3.3.bmp,mem1.3.1.bmp,mem2.2.3.bmp,ACC016,"[0, 3, 3]","[-3, 3, -3]","[0, 0, 3]",non-match,1.0042180842186395,3,-1.5234374078276751,0.10006392349390686,-0.35983724544444184,1st,3rd,2nd,-1.2592791171956434,0.16176174549555883,-0.40207086568589717
mem,resp,766,0,mem3.3.2.bmp,mem2.2.1.bmp,mem3.3.3.bmp,ACC016,"[3, 3, 0]","[0, 0, -3]","[3, 3, 3]",non-match,1.0042180842186395,3,-0.7955888917700672,0.03147494262804455,-0.43899331777491174,1st,3rd,2nd,-1.2592791171956434,0.16176174549555883,-0.40207086568589717
mem,resp,891,1,mem2.1.1.bmp,mem1.1.3.bmp,mem1.2.3.bmp,ACC016,"[0, -3, -3]","[-3, -3, 3]","[-3, 0, 3]",non-match,1.0042180842186395,3,-0.04608115513967246,0.22515057786392387,-0.39961617360500257,2nd,3rd,2nd,-0.3173409258112142,0.16176174549555883,-0.40207086568589717
mem,resp,1027,1,mem3.1.3.bmp,mem3.1.1.bmp,mem3.1.3.bmp,ACC016,"[3, -3, 3]","[3, -3, -3]","[3, -3, 3]",match,1.4226497308103743,,1.0784762822400364,2.1787527722358218,-0.2403663126258354,4th,4th,2nd,1.2591620033152082,1.0328580548196336,-0.40207086568589717
mem,resp,942,1,mem3.2.2.bmp,mem2.2.2.bmp,mem2.2.3.bmp,ACC016,"[3, 0, 0]","[0, 0, 0]","[0, 0, 3]",non-match,1.3030765749413242,4,-0.8485543051011015,0.5224581328063637,-0.31184994089462204,1st,4th,2nd,-1.2592791171956434,1.0328580548196336,-0.40207086568589717
mem,resp,1382,1,mem2.2.1.bmp,mem3.2.3.bmp,mem1.2.2.bmp,ACC016,"[0, 0, -3]","[3, 0, 3]","[-3, 0, 0]",non-match,0.9462544851682343,3,-0.29100842532503224,0.1728562426002709,-0.2512510711384727,2nd,3rd,2nd,-0.3173409258112142,0.16176174549555883,-0.40207086568589717
mem,resp,1766,0,mem2.1.3.bmp,mem2.3.1.bmp,mem2.3.1.bmp,ACC016,"[0, -3, 3]","[0, 3, -3]","[0, 3, -3]",match,1.1835034190722742,,-1.2334261227580898,-0.08388275157485231,-0.27426499430444995,1st,2nd,2nd,-1.2592791171956434,-0.2559482793706119,-0.40207086568589717
mem,resp,1001,1,mem2.1.1.bmp,mem2.3.2.bmp,mem3.1.3.bmp,ACC016,"[0, -3, -3]","[0, 3, 0]","[3, -3, 3]",non-match,0.6473959944455496,1,-0.015741029181844026,-0.7782403347548454,-0.4495444103089526,2nd,1st,2nd,-0.3173409258112142,-0.9386715209445801,-0.40207086568589717
mem,resp,787,1,mem3.2.1.bmp,mem2.1.2.bmp,mem2.1.2.bmp,ACC016,"[3, 0, -3]","[0, -3, 0]","[0, -3, 0]",match,1.5,,1.6257922933410958,0.09043824539942472,-0.5837008933202207,4th,3rd,2nd,1.2591620033152082,0.16176174549555883,-0.40207086568589717
mem,resp,1068,1,mem3.1.1.bmp,mem2.2.3.bmp,mem2.2.3.bmp,ACC016,"[3, -3, -3]","[0, 0, 3]","[0, 0, 3]",match,1.2928932188134525,,-0.4778491657425865,0.5179850733607411,-0.5803996130163754,2nd,4th,2nd,-0.3173409258112142,1.0328580548196336,-0.40207086568589717
mem,resp,1156,1,mem3.1.2.bmp,mem1.2.2.bmp,mem3.1.2.bmp,ACC016,"[3, -3, 0]","[-3, 0, 0]","[3, -3, 0]",match,1.3545027756320973,,-1.74125608641431,-1.5796228741150649,-0.6317933147080278,1st,1st,2nd,-1.2592791171956434,-0.9386715209445801,-0.40207086568589717
mem,resp,881,1,mem2.3.2.bmp,mem3.2.2.bmp,mem2.3.2.bmp,ACC016,"[0, 3, 0]","[3, 0, 0]","[0, 3, 0]",match,1.591751709536137,,-0.15313939812596927,0.0067271425774621295,-0.6056419753533412,2nd,3rd,2nd,-0.3173409258112142,0.16176174549555883,-0.40207086568589717
mem,resp,1109,0,mem1.3.3.bmp,mem3.2.1.bmp,mem2.2.1.bmp,ACC016,"[-3, 3, 3]","[3, 0, -3]","[0, 0, -3]",non-match,1.0042180842186395,3,1.0719597521787405,-0.9719463017274447,-0.7311435154304688,4th,1st,1st,1.2591620033152082,-0.9386715209445801,-1.2994699926508708
mem,resp,490,1,mem2.2.3.bmp,mem1.1.2.bmp,mem1.1.2.bmp,ACC016,"[0, 0, 3]","[-3, -3, 0]","[-3, -3, 0]",match,1.5,,1.9275741186100612,-0.2763703015299548,-0.7556802439576568,4th,2nd,1st,1.2591620033152082,-0.2559482793706119,-1.2994699926508708
mem,resp,2205,1,mem2.1.3.bmp,mem1.1.1.bmp,mem2.1.3.bmp,ACC016,"[0, -3, 3]","[-3, -3, -3]","[0, -3, 3]",match,1.3545027756320973,,-2.469050040169245,-1.704501458390806,-0.8090783384895746,1st,1st,1st,-1.2592791171956434,-0.9386715209445801,-1.2994699926508708
mem,resp,1144,1,mem3.1.2.bmp,mem3.1.1.bmp,mem1.1.2.bmp,ACC016,"[3, -3, 0]","[3, -3, -3]","[-3, -3, 0]",non-match,0.7771525064424715,2,-0.2285531088163895,-0.4681088029610598,-0.6456581121320427,2nd,2nd,2nd,-0.3173409258112142,-0.2559482793706119,-0.40207086568589717
mem,resp,1140,1,mem2.2.2.bmp,mem3.3.2.bmp,mem1.2.1.bmp,ACC016,"[0, 0, 0]","[3, 3, 0]","[-3, 0, -3]",non-match,0.8846449283495895,2,1.0451617589506943,1.132094855525565,-0.5240837042989631,4th,4th,2nd,1.2591620033152082,1.0328580548196336,-0.40207086568589717
mem,resp,1075,1,mem3.3.3.bmp,mem1.1.3.bmp,mem3.3.1.bmp,ACC016,"[3, 3, 3]","[-3, -3, 3]","[3, 3, -3]",non-match,0.42264973081037427,1,-0.29040416585871054,-0.14559574552712287,-0.2633284005765373,2nd,2nd,2nd,-0.3173409258112142,-0.2559482793706119,-0.40207086568589717
mem,resp,1184,1,mem2.1.2.bmp,mem2.3.3.bmp,mem2.3.3.bmp,ACC016,"[0, -3, 0]","[0, 3, 3]","[0, 3, 3]",match,1.3545027756320973,,0.29187167379579054,-0.1630455734857465,-0.24763042118892323,3rd,2nd,2nd,0.31745803969164954,-0.2559482793706119,-0.40207086568589717
mem,resp,878,0,mem2.2.3.bmp,mem2.2.1.bmp,mem3.1.2.bmp,ACC016,"[0, 0, 3]","[0, 0, -3]","[3, -3, 0]",non-match,1.0,3,-1.250422711824206,0.10319653021719218,-0.4432454047045461,1st,3rd,2nd,-1.2592791171956434,0.16176174549555883,-0.40207086568589717
mem,resp,1333,1,mem2.3.2.bmp,mem2.3.1.bmp,mem1.3.1.bmp,ACC016,"[0, 3, 0]","[0, 3, -3]","[-3, 3, -3]",non-match,1.3030765749413242,4,-0.8717800458458254,0.44592295085127126,-0.5083511062190985,1st,4th,2nd,-1.2592791171956434,1.0328580548196336,-0.40207086568589717
mem,resp,1081,1,mem1.3.2.bmp,mem3.2.1.bmp,mem1.3.2.bmp,ACC016,"[-3, 3, 0]","[3, 0, -3]","[-3, 3, 0]",match,1.2928932188134525,,-1.2962973833541147,0.05068230408921361,-0.5708557060923292,1st,3rd,2nd,-1.2592791171956434,0.16176174549555883,-0.40207086568589717
mem,resp,1187,0,mem3.3.1.bmp,mem2.1.3.bmp,mem1.1.1.bmp,ACC016,"[3, 3, -3]","[0, -3, 3]","[-3, -3, -3]",non-match,0.5380061947043713,1,-0.5653534332900929,-0.898481940390973,-0.5804571914762569,2nd,1st,2nd,-0.3173409258112142,-0.9386715209445801,-0.40207086568589717
mem,resp,873,1,mem1.3.3.bmp,mem1.2.2.bmp,mem1.2.2.bmp,ACC016,"[-3, 3, 3]","[-3, 0, 0]","[-3, 0, 0]",match,1.591751709536137,,-0.3074062384818282,-0.18567912266890063,-0.37520812895017236,2nd,2nd,2nd,-0.3173409258112142,-0.2559482793706119,-0.40207086568589717
mem,resp,894,1,mem1.2.1.bmp,mem2.3.2.bmp,mem2.3.1.bmp,ACC016,"[-3, 0, -3]","[0, 3, 0]","[0, 3, -3]",non-match,1.3030765749413242,4,1.0749041076272217,0.4617888651409365,-0.4079929179726938,4th,4th,2nd,1.2591620033152082,1.0328580548196336,-0.40207086568589717
mem,resp,829,1,mem1.1.3.bmp,mem1.1.2.bmp,mem1.1.3.bmp,ACC016,"[-3, -3, 3]","[-3, -3, 0]","[-3, -3, 3]",match,1.7113248654051871,,-0.19566158656996654,-0.5843479333977716,-0.6099191523940938,2nd,1st,2nd,-0.3173409258112142,-0.9386715209445801,-0.40207086568589717
mem,resp,1236,1,mem3.3.2.bmp,mem3.2.2.bmp,mem3.2.2.bmp,ACC016,"[3, 3, 0]","[3, 0, 0]","[3, 0, 0]",match,1.7113248654051871,,-1.839116986962578,-1.5173405638631274,-0.5028524871954954,1st,1st,2nd,-1.2592791171956434,-0.9386715209445801,-0.40207086568589717
mem,resp,1125,0,mem2.1.1.bmp,mem3.1.3.bmp,mem3.1.3.bmp,ACC016,"[0, -3, -3]","[3, -3, 3]","[3, -3, 3]",match,1.3545027756320973,,-1.2728809933972374,0.3771408153338359,-0.4497190842898844,1st,3rd,2nd,-1.2592791171956434,0.16176174549555883,-0.40207086568589717
mem,resp,838,1,mem1.3.1.bmp,mem1.3.2.bmp,mem1.3.1.bmp,ACC016,"[-3, 3, -3]","[-3, 3, 0]","[-3, 3, -3]",match,1.7113248654051871,,-0.651440469973096,0.05928875719398822,-0.4921054115564885,2nd,3rd,2nd,-0.3173409258112142,0.16176174549555883,-0.40207086568589717
mem,resp,979,1,mem1.1.1.bmp,mem3.2.3.bmp,mem2.1.3.bmp,ACC016,"[-3, -3, -3]","[3, 0, 3]","[0, -3, 3]",non-match,0.9462544851682343,3,-0.9785325940397024,-0.015508943418123445,-0.6112259664208818,1st,3rd,2nd,-1.2592791171956434,0.16176174549555883,-0.40207086568589717
mem,resp,1005,1,mem2.3.1.bmp,mem1.3.3.bmp,mem2.3.1.bmp,ACC016,"[0, 3, -3]","[-3, 3, 3]","[0, 3, -3]",match,1.3545027756320973,,0.08977342443026008,-0.5555708443337845,-0.6740550810336908,3rd,1st,2nd,0.31745803969164954,-0.9386715209445801,-0.40207086568589717
mem,resp,468,1,mem3.2.1.bmp,mem2.1.1.bmp,mem3.2.1.bmp,ACC016,"[3, 0, -3]","[0, -3, -3]","[3, 0, -3]",match,1.591751709536137,,0.17406858493642133,-0.3883305515089413,-0.6978575345151603,3rd,2nd,1st,0.31745803969164954,-0.2559482793706119,-1.2994699926508708
mem,resp,670,1,mem3.1.1.bmp,mem2.2.2.bmp,mem3.3.2.bmp,ACC016,"[3, -3, -3]","[0, 0, 0]","[3, 3, 0]",non-match,0.9462544851682343,3,-1.0625146534655558,-0.08654888174405935,-0.6541881961083101,1st,2nd,2nd,-1.2592791171956434,-0.2559482793706119,-0.40207086568589717
mem,resp,922,1,mem3.1.3.bmp,mem2.1.2.bmp,mem3.3.1.bmp,ACC016,"[3, -3, 3]","[0, -3, 0]","[3, 3, -3]",non-match,0.4763966378857265,1,0.5855722922442375,-0.36763318422205765,-0.803914040658884,3rd,2nd,1st,0.31745803969164954,-0.2559482793706119,-1.2994699926508708
mem,resp,857,1,mem2.3.3.bmp,mem3.3.3.bmp,mem2.3.3.bmp,ACC016,"[0, 3, 3]","[3, 3, 3]","[0, 3, 3]",match,1.7113248654051871,,-0.7256838404141416,-0.5831125630967632,-0.732804276697308,1st,1st,1st,-1.2592791171956434,-0.9386715209445801,-1.2994699926508708
mem,resp,669,1,mem1.2.3.bmp,mem2.2.3.bmp,mem3.1.2.bmp,ACC016,"[-3, 0, 3]","[0, 0, 3]","[3, -3, 0]",non-match,0.7928932188134524,2,-0.23132883891824677,-1.2260237235126628,-0.6292747420417908,2nd,1st,2nd,-0.3173409258112142,-0.9386715209445801,-0.40207086568589717
mem,resp,670,1,mem1.2.2.bmp,mem3.3.2.bmp,mem3.3.2.bmp,ACC016,"[-3, 0, 0]","[3, 3, 0]","[3, 3, 0]",match,1.3545027756320973,,-0.4000328796150941,0.8490572367982313,-0.4752930782253771,2nd,4th,2nd,-0.3173409258112142,1.0328580548196336,-0.40207086568589717
mem,resp,1003,1,mem2.2.1.bmp,mem1.3.3.bmp,mem2.2.1.bmp,ACC016,"[0, 0, -3]","[-3, 3, 3]","[0, 0, -3]",match,1.2928932188134525,,-0.6269724313968101,-0.09879644695599572,-0.37361930907894647,2nd,2nd,2nd,-0.3173409258112142,-0.2559482793706119,-0.40207086568589717
mem,resp,679,1,mem3.2.2.bmp,mem2.3.3.bmp,mem1.1.1.bmp,ACC016,"[3, 0, 0]","[0, 3, 3]","[-3, -3, -3]",non-match,0.42686781502901383,1,-0.6369282969236558,-0.2061892743855268,-0.650622206718369,2nd,2nd,2nd,-0.3173409258112142,-0.2559482793706119,-0.40207086568589717
mem,resp,1004,1,mem3.2.3.bmp,mem1.3.1.bmp,mem2.1.1.bmp,ACC016,"[3, 0, 3]","[-3, 3, -3]","[0, -3, -3]",non-match,0.6473959944455496,1,-0.6722951778003202,-0.4708936733692564,-0.7246245600243637,1st,2nd,1st,-1.2592791171956434,-0.2559482793706119,-1.2994699926508708
mem,resp,855,1,mem1.1.2.bmp,mem1.2.2.bmp,mem2.3.2.bmp,ACC016,"[-3, -3, 0]","[-3, 0, 0]","[0, 3, 0]",non-match,0.9462544851682343,3,-0.8003471764836104,-0.232427059568161,-0.9136194178953791,1st,2nd,1st,-1.2592791171956434,-0.2559482793706119,-1.2994699926508708
mem,resp,1000,1,mem1.3.2.bmp,mem2.1.3.bmp,mem3.1.1.bmp,ACC016,"[-3, 3, 0]","[0, -3, 3]","[3, -3, -3]",non-match,0.4884773718476586,1,0.09777765608312926,-0.10557078659633597,-0.8934004317514492,3rd,2nd,1st,0.31745803969164954,-0.2559482793706119,-1.2994699926508708
mem,resp,844,1,mem3.2.2.bmp,mem1.2.1.bmp,mem2.1.2.bmp,ACC016,"[3, 0, 0]","[-3, 0, -3]","[0, -3, 0]",non-match,1.091751709536137,4,1.276404052236224,-0.1303162068756598,-0.9109251662673811,4th,2nd,1st,1.2591620033152082,-0.2559482793706119,-1.2994699926508708
mem,resp,305,1,mem1.1.1.bmp,mem2.1.1.bmp,mem2.2.3.bmp,ACC016,"[-3, -3, -3]","[0, -3, -3]","[0, 0, 3]",non-match,0.6473959944455496,1,0.9043891385006267,-0.3149744128571777,-0.9052581317179039,4th,2nd,1st,1.2591620033152082,-0.2559482793706119,-1.2994699926508708
mem,resp,978,1,mem2.2.1.bmp,mem2.3.2.bmp,mem2.2.1.bmp,ACC016,"[0, 0, -3]","[0, 3, 0]","[0, 0, -3]",match,1.591751709536137,,-0.43882899762007094,0.5378924186706471,-0.9289452652834609,2nd,4th,1st,-0.3173409258112142,1.0328580548196336,-1.2994699926508708
mem,resp,629,0,mem2.3.3.bmp,mem1.1.2.bmp,mem1.1.2.bmp,ACC016,"[0, 3, 3]","[-3, -3, 0]","[-3, -3, 0]",match,1.2928932188134525,,0.4210687359116111,0.12358347186359488,-0.802935656144104,3rd,3rd,1st,0.31745803969164954,0.16176174549555883,-1.2994699926508708
mem,resp,1085,1,mem2.2.2.bmp,mem1.3.2.bmp,mem1.3.2.bmp,ACC016,"[0, 0, 0]","[-3, 3, 0]","[-3, 3, 0]",match,1.591751709536137,,-0.3298250608695251,0.1624986917221817,-0.898933541632599,2nd,3rd,1st,-0.3173409258112142,0.16176174549555883,-1.2994699926508708
mem,resp,1263,1,mem1.1.3.bmp,mem3.2.1.bmp,mem3.2.1.bmp,ACC016,"[-3, -3, 3]","[3, 0, -3]","[3, 0, -3]",match,1.1339745962155614,,-0.6331748026931935,0.07437040234502326,-1.045815560824731,2nd,3rd,1st,-0.3173409258112142,0.16176174549555883,-1.2994699926508708
mem,resp,677,1,mem2.2.3.bmp,mem2.3.1.bmp,mem1.3.1.bmp,ACC016,"[0, 0, 3]","[0, 3, -3]","[-3, 3, -3]",non-match,1.0042180842186395,3,-1.931860374809656,-0.06430362845571103,-0.9130110663142796,1st,2nd,1st,-1.2592791171956434,-0.2559482793706119,-1.2994699926508708
mem,resp,828,1,mem2.3.2.bmp,mem3.3.3.bmp,mem2.1.1.bmp,ACC016,"[0, 3, 0]","[3, 3, 3]","[0, -3, -3]",non-match,0.4884773718476586,1,0.8978293676944641,0.1678420024767029,-0.8515206555339895,4th,3rd,1st,1.2591620033152082,0.16176174549555883,-1.2994699926508708
mem,resp,1146,1,mem3.3.1.bmp,mem3.2.3.bmp,mem3.2.2.bmp,ACC016,"[3, 3, -3]","[3, 0, 3]","[3, 0, 0]",non-match,1.3030765749413242,4,0.5028718093204958,-0.46959264207516443,-0.9563046177178528,3rd,2nd,1st,0.31745803969164954,-0.2559482793706119,-1.2994699926508708
mem,resp,597,1,mem2.1.2.bmp,mem3.1.2.bmp,mem2.1.2.bmp,ACC016,"[0, -3, 0]","[3, -3, 0]","[0, -3, 0]",match,1.7113248654051871,,-0.7256974564095853,0.13063119548742932,-0.9985253988885413,1st,3rd,1st,-1.2592791171956434,0.16176174549555883,-1.2994699926508708
mem,resp,711,1,mem3.2.1.bmp,mem3.1.2.bmp,mem1.2.2.bmp,ACC016,"[3, 0, -3]","[3, -3, 0]","[-3, 0, 0]",non-match,0.7090055512641944,2,1.5244127889564956,0.39194282701511424,-1.1697888342719052,4th,3rd,1st,1.2591620033152082,0.16176174549555883,-1.2994699926508708
mem,resp,944,0,mem2.3.2.bmp,mem3.3.3.bmp,mem3.3.3.bmp,ACC016,"[0, 3, 0]","[3, 3, 3]","[3, 3, 3]",match,1.591751709536137,,-0.07365665378114737,1.118854635987368,-1.2744359342531084,2nd,4th,1st,-0.3173409258112142,1.0328580548196336,-1.2994699926508708
mem,resp,717,1,mem2.2.3.bmp,mem1.2.1.bmp,mem2.2.3.bmp,ACC016,"[0, 0, 3]","[-3, 0, -3]","[0, 0, 3]",match,1.3545027756320973,,-0.7747852434301244,-0.7074796263722355,-1.221575594823284,1st,1st,1st,-1.2592791171956434,-0.9386715209445801,-1.2994699926508708
mem,resp,368,1,mem3.2.2.bmp,mem1.3.2.bmp,mem2.2.1.bmp,ACC016,"[3, 0, 0]","[-3, 3, 0]","[0, 0, -3]",non-match,1.091751709536137,4,2.5175831084524916,1.64080369949825,-0.9862499186005558,4th,4th,1st,1.2591620033152082,1.0328580548196336,-1.2994699926508708
mem,resp,1123,0,mem1.1.2.bmp,mem2.3.3.bmp,mem2.3.3.bmp,ACC016,"[-3, -3, 0]","[0, 3, 3]","[0, 3, 3]",match,1.2928932188134525,,-0.39077346060666,-1.282290944624176,-0.8324391880885451,2nd,1st,1st,-0.3173409258112142,-0.9386715209445801,-1.2994699926508708
mem,resp,867,1,mem1.1.3.bmp,mem1.2.2.bmp,mem1.1.3.bmp,ACC016,"[-3, -3, 3]","[-3, 0, 0]","[-3, -3, 3]",match,1.591751709536137,,-1.0816755046279525,0.0257690375083139,-0.8439016466077235,1st,3rd,1st,-1.2592791171956434,0.16176174549555883,-1.2994699926508708
mem,resp,629,0,mem1.2.1.bmp,mem1.2.3.bmp,mem1.2.3.bmp,ACC016,"[-3, 0, -3]","[-3, 0, 3]","[-3, 0, 3]",match,1.4226497308103743,,0.6224662286066729,-0.02378011779300878,-0.8742577206926754,4th,3rd,1st,1.2591620033152082,0.16176174549555883,-1.2994699926508708
mem,resp,1406,1,mem3.3.2.bmp,mem3.1.3.bmp,mem3.1.3.bmp,ACC016,"[3, 3, 0]","[3, -3, 3]","[3, -3, 3]",match,1.3545027756320973,,-0.5090807587166356,0.9337862816027882,-0.6790525875577956,2nd,4th,1st,-0.3173409258112142,1.0328580548196336,-1.2994699926508708
mem,resp,2060,1,mem2.1.2.bmp,mem2.2.2.bmp,mem2.1.2.bmp,ACC016,"[0, -3, 0]","[0, 0, 0]","[0, -3, 0]",match,1.7113248654051871,,1.0486145442833181,-0.49808525017880895,-0.5756244744591332,4th,1st,2nd,1.2591620033152082,-0.9386715209445801,-0.40207086568589717
mem,resp,993,0,mem2.3.1.bmp,mem3.1.1.bmp,mem2.3.1.bmp,ACC016,"[0, 3, -3]","[3, -3, -3]","[0, 3, -3]",match,1.3545027756320973,,0.5349545472313576,1.4833871696847007,-0.6144580258586788,3rd,4th,2nd,0.31745803969164954,1.0328580548196336,-0.40207086568589717
mem,resp,849,0,mem1.3.1.bmp,mem3.2.2.bmp,mem1.3.1.bmp,ACC016,"[-3, 3, -3]","[3, 0, 0]","[-3, 3, -3]",match,1.2928932188134525,,0.5491554508535432,0.5941988413402354,-0.5770703873592636,3rd,4th,2nd,0.31745803969164954,1.0328580548196336,-0.40207086568589717
mem,resp,912,1,mem2.1.3.bmp,mem3.2.3.bmp,mem1.3.3.bmp,ACC016,"[0, -3, 3]","[3, 0, 3]","[-3, 3, 3]",non-match,0.7090055512641944,2,0.7970982629354795,-0.24423825750586106,-0.5966110343488931,4th,2nd,2nd,1.2591620033152082,-0.2559482793706119,-0.40207086568589717
mem,resp,1262,1,mem3.1.3.bmp,mem1.1.1.bmp,mem1.2.1.bmp,ACC016,"[3, -3, 3]","[-3, -3, -3]","[-3, 0, -3]",non-match,0.8452994616207485,2,-0.3483101703719657,-0.2698557087491115,-0.6021572878313435,2nd,2nd,2nd,-0.3173409258112142,-0.2559482793706119,-0.40207086568589717
mem,resp,1408,1,mem3.1.1.bmp,mem2.1.1.bmp,mem2.1.1.bmp,ACC016,"[3, -3, -3]","[0, -3, -3]","[0, -3, -3]",match,1.7113248654051871,,-0.6001544274309509,1.4374431815976987,-0.6316635724244143,2nd,4th,2nd,-0.3173409258112142,1.0328580548196336,-0.40207086568589717
mem,resp,1116,1,mem3.3.3.bmp,mem2.2.1.bmp,mem2.2.1.bmp,ACC016,"[3, 3, 3]","[0, 0, -3]","[0, 0, -3]",match,1.2928932188134525,,0.47323785364893,0.5450018094105831,-0.7426630355239655,3rd,4th,1st,0.31745803969164954,1.0328580548196336,-1.2994699926508708
mem,resp,1133,0,mem3.1.2.bmp,mem1.3.3.bmp,mem2.1.2.bmp,ACC016,"[3, -3, 0]","[-3, 3, 3]","[0, -3, 0]",non-match,1.0042180842186395,3,-1.048030108384535,-0.457075438432759,-0.6316460409500623,1st,2nd,2nd,-1.2592791171956434,-0.2559482793706119,-0.40207086568589717
mem,resp,706,0,mem1.3.2.bmp,mem3.2.2.bmp,mem1.1.1.bmp,ACC016,"[-3, 3, 0]","[3, 0, 0]","[-3, -3, -3]",non-match,0.6473959944455496,1,0.057531199054344416,0.3514628351259558,-0.5959365786716322,3rd,3rd,2nd,0.31745803969164954,0.16176174549555883,-0.40207086568589717
mem,resp,1805,0,mem3.3.1.bmp,mem2.3.1.bmp,mem3.3.1.bmp,ACC016,"[3, 3, -3]","[0, 3, -3]","[3, 3, -3]",match,1.7113248654051871,,0.39504066321244485,-0.262737999156601,-0.6836389750644492,3rd,2nd,1st,0.31745803969164954,-0.2559482793706119,-1.2994699926508708
mem,resp,670,1,mem2.3.3.bmp,mem3.1.3.bmp,mem3.1.3.bmp,ACC016,"[0, 3, 3]","[3, -3, 3]","[3, -3, 3]",match,1.3545027756320973,,-1.6771802498957682,-0.0005098039019526346,-0.5321525737381405,1st,3rd,2nd,-1.2592791171956434,0.16176174549555883,-0.40207086568589717
mem,resp,683,0,mem3.2.3.bmp,mem3.1.1.bmp,mem3.2.3.bmp,ACC016,"[3, 0, 3]","[3, -3, -3]","[3, 0, 3]",match,1.3545027756320973,,0.7112828616447291,0.17049149494076044,-0.5419210383006979,4th,3rd,2nd,1.2591620033152082,0.16176174549555883,-0.40207086568589717
mem,resp,756,1,mem2.1.1.bmp,mem3.2.1.bmp,mem1.2.1.bmp,ACC016,"[0, -3, -3]","[3, 0, -3]","[-3, 0, -3]",non-match,1.0144014403465114,3,0.0396696740781457,-0.616816151152685,-0.13360863602257184,3rd,1st,2nd,0.31745803969164954,-0.9386715209445801,-0.40207086568589717
mem,resp,1313,1,mem1.3.3.bmp,mem1.1.2.bmp,mem1.3.2.bmp,ACC016,"[-3, 3, 3]","[-3, -3, 0]","[-3, 3, 0]",non-match,1.1339745962155614,4,0.5447462376183453,-0.32359027123184075,-0.20761560395359915,3rd,2nd,2nd,0.31745803969164954,-0.2559482793706119,-0.40207086568589717
mem,resp,960,0,mem1.2.3.bmp,mem3.3.1.bmp,mem1.1.3.bmp,ACC016,"[-3, 0, 3]","[3, 3, -3]","[-3, -3, 3]",non-match,0.7113248654051871,2,-1.4385420641001794,-0.3890512807549575,-0.20199907040865836,1st,2nd,2nd,-1.2592791171956434,-0.2559482793706119,-0.40207086568589717
mem,resp,698,0,mem1.1.1.bmp,mem3.3.2.bmp,mem3.2.3.bmp,ACC016,"[-3, -3, -3]","[3, 3, 0]","[3, 0, 3]",non-match,0.7257263057516985,2,0.6088802486929229,-0.9148114444687101,-0.07464759439520259,3rd,1st,2nd,0.31745803969164954,-0.9386715209445801,-0.40207086568589717
mem,resp,1295,0,mem2.2.2.bmp,mem2.1.3.bmp,mem2.1.3.bmp,ACC016,"[0, 0, 0]","[0, -3, 3]","[0, -3, 3]",match,1.591751709536137,,0.1744136823001158,-1.5768113994162178,0.035842352205801765,3rd,1st,3rd,0.31745803969164954,-0.9386715209445801,0.5075849462191957
mem,resp,841,1,mem1.2.2.bmp,mem2.3.2.bmp,mem1.2.2.bmp,ACC016,"[-3, 0, 0]","[0, 3, 0]","[-3, 0, 0]",match,1.591751709536137,,-0.3519467031111231,-1.4319757010857563,0.24288006340575344,2nd,1st,3rd,-0.3173409258112142,-0.9386715209445801,0.5075849462191957
mem,resp,892,1,mem3.3.3.bmp,mem1.1.3.bmp,mem3.3.3.bmp,ACC016,"[3, 3, 3]","[-3, -3, 3]","[3, 3, 3]",match,1.1835034190722742,,1.5442044379576296,-0.11798832955715015,0.2621218491260837,4th,2nd,3rd,1.2591620033152082,-0.2559482793706119,0.5075849462191957
mem,resp,706,1,mem3.3.1.bmp,mem3.2.3.bmp,mem3.2.3.bmp,ACC016,"[3, 3, -3]","[3, 0, 3]","[3, 0, 3]",match,1.3545027756320973,,-0.6476777556580238,1.5288113329540993,0.1967059176717522,2nd,4th,3rd,-0.3173409258112142,1.0328580548196336,0.5075849462191957
mem,resp,1233,0,mem1.1.2.bmp,mem2.2.1.bmp,mem3.1.3.bmp,ACC016,"[-3, -3, 0]","[0, 0, -3]","[3, -3, 3]",non-match,0.6473959944455496,1,-1.5676604721232852,-1.1291430493183992,0.14281161255425143,1st,1st,3rd,-1.2592791171956434,-0.9386715209445801,0.5075849462191957
mem,resp,1112,1,mem1.1.3.bmp,mem2.1.2.bmp,mem1.1.3.bmp,ACC016,"[-3, -3, 3]","[0, -3, 0]","[-3, -3, 3]",match,1.591751709536137,,-1.723987422098112,-0.7518775643736981,0.04270550934043179,1st,1st,3rd,-1.2592791171956434,-0.9386715209445801,0.5075849462191957
mem,resp,473,0,mem3.2.3.bmp,mem1.3.3.bmp,mem2.2.2.bmp,ACC016,"[3, 0, 3]","[-3, 3, 3]","[0, 0, 0]",non-match,1.091751709536137,4,0.25503232486550254,-0.33022611853174283,0.18700001419624185,3rd,2nd,3rd,0.31745803969164954,-0.2559482793706119,0.5075849462191957
mem,resp,724,1,mem1.2.1.bmp,mem1.2.3.bmp,mem1.2.3.bmp,ACC016,"[-3, 0, -3]","[-3, 0, 3]","[-3, 0, 3]",match,1.4226497308103743,,0.9598200898536753,0.7332869523400246,0.3280371815416042,4th,4th,3rd,1.2591620033152082,1.0328580548196336,0.5075849462191957
mem,resp,590,1,mem1.3.1.bmp,mem1.3.2.bmp,mem1.3.2.bmp,ACC016,"[-3, 3, -3]","[-3, 3, 0]","[-3, 3, 0]",match,1.7113248654051871,,-0.22415295954162012,0.038681179711387376,0.6805261120443615,2nd,3rd,3rd,-0.3173409258112142,0.16176174549555883,0.5075849462191957
mem,resp,679,1,mem3.1.2.bmp,mem3.3.3.bmp,mem1.1.2.bmp,ACC016,"[3, -3, 0]","[3, 3, 3]","[-3, -3, 0]",non-match,0.5566243270259357,1,-0.37920172790268253,0.5209532896241914,0.6968114189095742,2nd,4th,3rd,-0.3173409258112142,1.0328580548196336,0.5075849462191957
mem,resp,734,1,mem3.2.1.bmp,mem3.2.2.bmp,mem3.2.2.bmp,ACC016,"[3, 0, -3]","[3, 0, 0]","[3, 0, 0]",match,1.7113248654051871,,-0.4489917783893788,-0.3660383236053079,0.5539111544197969,2nd,2nd,3rd,-0.3173409258112142,-0.2559482793706119,0.5075849462191957
mem,resp,616,1,mem2.1.1.bmp,mem2.1.3.bmp,mem2.3.1.bmp,ACC016,"[0, -3, -3]","[0, -3, 3]","[0, 3, -3]",non-match,0.6061531498826483,1,-0.15386246257690014,0.5108266800265343,0.8155631126404896,2nd,4th,3rd,-0.3173409258112142,1.0328580548196336,0.5075849462191957
mem,resp,837,1,mem1.1.3.bmp,mem1.1.1.bmp,mem1.3.3.bmp,ACC016,"[-3, -3, 3]","[-3, -3, -3]","[-3, 3, 3]",non-match,0.6061531498826483,1,0.6889806311138598,-0.2738682514156355,0.6999593694454728,4th,2nd,3rd,1.2591620033152082,-0.2559482793706119,0.5075849462191957
mem,resp,910,1,mem2.3.3.bmp,mem1.3.1.bmp,mem3.1.3.bmp,ACC016,"[0, 3, 3]","[-3, 3, -3]","[3, -3, 3]",non-match,0.3545027756320972,1,0.8968389674655927,-0.24044678524246063,0.7718914190958496,4th,2nd,3rd,1.2591620033152082,-0.2559482793706119,0.5075849462191957
mem,resp,1248,1,mem2.1.2.bmp,mem2.2.2.bmp,mem1.2.1.bmp,ACC016,"[0, -3, 0]","[0, 0, 0]","[-3, 0, -3]",non-match,1.091751709536137,4,0.25726761009526805,-0.6373160051852004,0.7563987826866827,3rd,1st,3rd,0.31745803969164954,-0.9386715209445801,0.5075849462191957
mem,resp,802,1,mem2.3.2.bmp,mem2.2.1.bmp,mem1.2.3.bmp,ACC016,"[0, 3, 0]","[0, 0, -3]","[-3, 0, 3]",non-match,0.8545027756320972,2,-1.2438693367464466,0.3517117385059773,0.8220534581353749,1st,3rd,3rd,-1.2592791171956434,0.16176174549555883,0.5075849462191957
mem,resp,815,0,mem3.3.2.bmp,mem1.3.3.bmp,mem3.2.1.bmp,ACC016,"[3, 3, 0]","[-3, 3, 3]","[3, 0, -3]",non-match,0.7257263057516985,2,-1.1338666054764848,-1.5071726626474202,0.7480101691884834,1st,1st,3rd,-1.2592791171956434,-0.9386715209445801,0.5075849462191957
mem,resp,1221,1,mem1.2.2.bmp,mem3.3.1.bmp,mem2.1.3.bmp,ACC016,"[-3, 0, 0]","[3, 3, -3]","[0, -3, 3]",non-match,0.6339745962155614,1,0.26839990564305116,0.4217542008821458,0.6653805799899092,3rd,3rd,3rd,0.31745803969164954,0.16176174549555883,0.5075849462191957
mem,resp,755,1,mem1.1.1.bmp,mem3.1.2.bmp,mem3.1.2.bmp,ACC016,"[-3, -3, -3]","[3, -3, 0]","[3, -3, 0]",match,1.3545027756320973,,-0.31291589887493515,0.00428380038541753,0.6084313800717472,2nd,3rd,3rd,-0.3173409258112142,0.16176174549555883,0.5075849462191957
mem,resp,696,0,mem1.3.1.bmp,mem2.2.3.bmp,mem2.2.2.bmp,ACC016,"[-3, 3, -3]","[0, 0, 3]","[0, 0, 0]",non-match,1.2113248654051871,4,1.509354062132516,-0.46485875969956214,0.8389725430253376,4th,2nd,4th,1.2591620033152082,-0.2559482793706119,1.1939559121175718
mem,resp,740,1,mem3.2.3.bmp,mem1.2.3.bmp,mem1.2.3.bmp,ACC016,"[3, 0, 3]","[-3, 0, 3]","[-3, 0, 3]",match,1.4226497308103743,,0.09492162381823922,11.67320233313374,0.6942900368451501,3rd,4th,3rd,0.31745803969164954,1.0328580548196336,0.5075849462191957
mem,resp,579,1,mem2.1.3.bmp,mem3.2.2.bmp,mem2.1.3.bmp,ACC016,"[0, -3, 3]","[3, 0, 0]","[0, -3, 3]",match,1.5,,0.5608830143166169,1.4296841339977369,0.5022007995929392,3rd,4th,3rd,0.31745803969164954,1.0328580548196336,0.5075849462191957
mem,resp,904,1,mem1.3.3.bmp,mem2.3.1.bmp,mem3.1.2.bmp,ACC016,"[-3, 3, 3]","[0, 3, -3]","[3, -3, 0]",non-match,0.42686781502901383,1,0.8097136674267403,-1.042517441928971,0.6093391140609528,4th,1st,3rd,1.2591620033152082,-0.9386715209445801,0.5075849462191957
mem,resp,936,1,mem2.1.1.bmp,mem1.2.1.bmp,mem2.1.1.bmp,ACC016,"[0, -3, -3]","[-3, 0, -3]","[0, -3, -3]",match,1.591751709536137,,-0.08513962058548247,-0.4672456909659383,0.6462042425269998,2nd,2nd,3rd,-0.3173409258112142,-0.2559482793706119,0.5075849462191957
mem,resp,898,0,mem2.2.2.bmp,mem3.2.1.bmp,mem2.2.2.bmp,ACC016,"[0, 0, 0]","[3, 0, -3]","[0, 0, 0]",match,1.591751709536137,,2.946033911040339,0.4539994806308385,0.529834365636567,4th,4th,3rd,1.2591620033152082,1.0328580548196336,0.5075849462191957
mem,resp,902,1,mem1.2.3.bmp,mem1.1.2.bmp,mem1.3.2.bmp,ACC016,"[-3, 0, 3]","[-3, -3, 0]","[-3, 3, 0]",non-match,1.0144014403465114,3,0.2769229140017147,0.4969924281947813,0.465151520518864,3rd,4th,3rd,0.31745803969164954,1.0328580548196336,0.5075849462191957
mem,resp,865,1,mem2.2.1.bmp,mem1.2.2.bmp,mem1.2.2.bmp,ACC016,"[0, 0, -3]","[-3, 0, 0]","[-3, 0, 0]",match,1.591751709536137,,-0.34495807046836013,0.07225553066770127,0.47419306077226897,2nd,3rd,3rd,-0.3173409258112142,0.16176174549555883,0.5075849462191957
mem,resp,699,1,mem3.3.3.bmp,mem3.1.3.bmp,mem3.1.3.bmp,ACC016,"[3, 3, 3]","[3, -3, 3]","[3, -3, 3]",match,1.4226497308103743,,-0.03947396071813739,0.7283866929129279,0.7386077941604166,2nd,4th,3rd,-0.3173409258112142,1.0328580548196336,0.5075849462191957
mem,resp,698,1,mem2.2.3.bmp,mem3.1.1.bmp,mem3.1.1.bmp,ACC016,"[0, 0, 3]","[3, -3, -3]","[3, -3, -3]",match,1.2928932188134525,,1.2498957379984068,0.5053420729402216,0.7965130265732011,4th,4th,3rd,1.2591620033152082,1.0328580548196336,0.5075849462191957
mem,resp,509,1,mem3.2.1.bmp,mem3.3.2.bmp,mem1.2.3.bmp,ACC016,"[3, 0, -3]","[3, 3, 0]","[-3, 0, 3]",non-match,0.4763966378857265,1,1.2272842659009642,-0.6576518929779755,0.6794239553649647,4th,1st,3rd,1.2591620033152082,-0.9386715209445801,0.5075849462191957
mem,resp,1043,1,mem1.2.1.bmp,mem2.1.2.bmp,mem2.3.2.bmp,ACC016,"[-3, 0, -3]","[0, -3, 0]","[0, 3, 0]",non-match,0.9226497308103743,3,0.5740324203316315,-0.31448496633703527,0.6631461228566937,3rd,2nd,3rd,0.31745803969164954,-0.2559482793706119,0.5075849462191957
mem,resp,626,0,mem1.3.2.bmp,mem2.1.1.bmp,mem2.1.1.bmp,ACC016,"[-3, 3, 0]","[0, -3, -3]","[0, -3, -3]",match,1.2928932188134525,,0.46217694636591744,0.9468752304635689,0.7920436990024387,3rd,4th,3rd,0.31745803969164954,1.0328580548196336,0.5075849462191957
mem,resp,759,1,mem3.1.2.bmp,mem3.2.3.bmp,mem3.1.2.bmp,ACC016,"[3, -3, 0]","[3, 0, 3]","[3, -3, 0]",match,1.591751709536137,,-0.3205246305488712,-0.7991050361751428,0.8641817792616507,2nd,1st,4th,-0.3173409258112142,-0.9386715209445801,1.1939559121175718
mem,resp,719,1,mem3.2.2.bmp,mem3.3.3.bmp,mem3.2.2.bmp,ACC016,"[3, 0, 0]","[3, 3, 3]","[3, 0, 0]",match,1.591751709536137,,0.9668157263094667,-0.26527791867443223,1.111998498590939,4th,2nd,4th,1.2591620033152082,-0.2559482793706119,1.1939559121175718
mem,resp,782,1,mem3.1.3.bmp,mem1.2.1.bmp,mem3.2.1.bmp,ACC016,"[3, -3, 3]","[-3, 0, -3]","[3, 0, -3]",non-match,0.7771525064424715,2,-0.6260414094788785,-0.23163569250308078,1.1527649901115113,2nd,2nd,4th,-0.3173409258112142,-0.2559482793706119,1.1939559121175718
mem,resp,1127,1,mem3.1.1.bmp,mem1.2.2.bmp,mem3.3.2.bmp,ACC016,"[3, -3, -3]","[-3, 0, 0]","[3, 3, 0]",non-match,0.7090055512641944,2,-1.7588755790994006,-1.2149969343958187,1.14759223146195,1st,1st,4th,-1.2592791171956434,-0.9386715209445801,1.1939559121175718
mem,resp,569,0,mem3.3.1.bmp,mem1.1.2.bmp,mem2.3.2.bmp,ACC016,"[3, 3, -3]","[-3, -3, 0]","[0, 3, 0]",non-match,0.9462544851682343,3,0.26461918962989645,0.039191506137618896,1.166296120404268,3rd,3rd,4th,0.31745803969164954,0.16176174549555883,1.1939559121175718
mem,resp,892,1,mem2.3.1.bmp,mem1.3.3.bmp,mem2.1.3.bmp,ACC016,"[0, 3, -3]","[-3, 3, 3]","[0, -3, 3]",non-match,0.5380061947043713,1,0.6944032391347829,-0.1836843777059971,1.2354215622701836,4th,2nd,4th,1.2591620033152082,-0.2559482793706119,1.1939559121175718
mem,resp,825,1,mem2.3.3.bmp,mem3.1.2.bmp,mem1.3.1.bmp,ACC016,"[0, 3, 3]","[3, -3, 0]","[-3, 3, -3]",non-match,0.4884773718476586,1,0.30293607667221706,0.5437826215541349,1.4872140659142319,3rd,4th,4th,0.31745803969164954,1.0328580548196336,1.1939559121175718
mem,resp,978,1,mem1.3.2.bmp,mem2.2.2.bmp,mem2.2.3.bmp,ACC016,"[-3, 3, 0]","[0, 0, 0]","[0, 0, 3]",non-match,1.2113248654051871,4,1.8676364075794092,0.2397781212714276,1.3164548228056656,4th,3rd,4th,1.2591620033152082,0.16176174549555883,1.1939559121175718
mem,resp,752,1,mem3.1.3.bmp,mem3.2.3.bmp,mem3.2.3.bmp,ACC016,"[3, -3, 3]","[3, 0, 3]","[3, 0, 3]",match,1.7113248654051871,,1.8194692941682533,0.9052248877629285,1.2271990375831323,4th,4th,4th,1.2591620033152082,1.0328580548196336,1.1939559121175718
mem,resp,695,1,mem3.2.2.bmp,mem2.1.3.bmp,mem3.2.2.bmp,ACC016,"[3, 0, 0]","[0, -3, 3]","[3, 0, 0]",match,1.5,,0.4318014408350011,0.9849608413676275,1.6611934865161941,3rd,4th,4th,0.31745803969164954,1.0328580548196336,1.1939559121175718
mem,resp,587,0,mem3.3.3.bmp,mem1.3.1.bmp,mem3.3.3.bmp,ACC016,"[3, 3, 3]","[-3, 3, -3]","[3, 3, 3]",match,1.1835034190722742,,-0.3239026334134672,0.24612538509227308,1.5131984885350276,2nd,3rd,4th,-0.3173409258112142,0.16176174549555883,1.1939559121175718
mem,resp,860,0,mem1.2.3.bmp,mem3.3.1.bmp,mem3.3.1.bmp,ACC016,"[-3, 0, 3]","[3, 3, -3]","[3, 3, -3]",match,1.1339745962155614,,0.9163626137141478,-0.013349766608059364,1.3833942982957768,4th,3rd,4th,1.2591620033152082,0.16176174549555883,1.1939559121175718
mem,resp,661,1,mem2.2.1.bmp,mem3.2.1.bmp,mem2.2.1.bmp,ACC016,"[0, 0, -3]","[3, 0, -3]","[0, 0, -3]",match,1.7113248654051871,,-1.1049347206987594,0.20910392512055836,1.452941014429517,1st,3rd,4th,-1.2592791171956434,0.16176174549555883,1.1939559121175718
mem,resp,824,1,mem1.3.3.bmp,mem2.3.3.bmp,mem2.1.1.bmp,ACC016,"[-3, 3, 3]","[0, 3, 3]","[0, -3, -3]",non-match,0.3174780152878355,1,-0.6777189972656413,-0.17416485810332644,1.5549945148905822,1st,2nd,4th,-1.2592791171956434,-0.2559482793706119,1.1939559121175718
mem,resp,847,1,mem2.3.2.bmp,mem3.1.1.bmp,mem3.2.2.bmp,ACC016,"[0, 3, 0]","[3, -3, -3]","[3, 0, 0]",non-match,1.1835034190722742,4,-0.548969742629664,-0.4331822452817551,1.7999896275232155,2nd,2nd,4th,-0.3173409258112142,-0.2559482793706119,1.1939559121175718
mem,resp,750,1,mem1.2.2.bmp,mem2.2.3.bmp,mem1.2.2.bmp,ACC016,"[-3, 0, 0]","[0, 0, 3]","[-3, 0, 0]",match,1.591751709536137,,-0.5803359341751025,0.7009087364994411,1.4512159285987394,2nd,4th,4th,-0.3173409258112142,1.0328580548196336,1.1939559121175718
mem,resp,1056,0,mem3.1.2.bmp,mem1.1.1.bmp,mem1.1.1.bmp,ACC016,"[3, -3, 0]","[-3, -3, -3]","[-3, -3, -3]",match,1.3545027756320973,,0.5618755781858863,0.5622556476857857,1.6765852246213933,3rd,4th,4th,0.31745803969164954,1.0328580548196336,1.1939559121175718
mem,resp,1845,1,mem2.1.3.bmp,mem3.1.1.bmp,mem3.1.1.bmp,ACC016,"[0, -3, 3]","[3, -3, -3]","[3, -3, -3]",match,1.3545027756320973,,-1.426505148603373,-1.47205107754003,1.6134059973841763,1st,1st,4th,-1.2592791171956434,-0.9386715209445801,1.1939559121175718
mem,resp,553,1,mem3.1.2.bmp,mem2.1.1.bmp,mem2.1.1.bmp,ACC016,"[3, -3, 0]","[0, -3, -3]","[0, -3, -3]",match,1.591751709536137,,0.9385041546126517,-0.6890444075631073,1.6139378571500036,4th,1st,4th,1.2591620033152082,-0.9386715209445801,1.1939559121175718
mem,resp,523,0,mem3.2.1.bmp,mem1.2.2.bmp,mem1.1.2.bmp,ACC016,"[3, 0, -3]","[-3, 0, 0]","[-3, -3, 0]",non-match,1.0042180842186395,3,0.3015372602694402,-0.6133255699244823,1.5983367265732635,3rd,1st,4th,0.31745803969164954,-0.9386715209445801,1.1939559121175718
mem,resp,786,0,mem2.1.2.bmp,mem1.3.3.bmp,mem2.1.2.bmp,ACC016,"[0, -3, 0]","[-3, 3, 3]","[0, -3, 0]",match,1.2928932188134525,,-1.1529541032854593,-1.155898170905647,1.5348519488217982,1st,1st,4th,-1.2592791171956434,-0.9386715209445801,1.1939559121175718
mem,resp,366,0,mem3.2.2.bmp,mem3.1.3.bmp,mem3.1.1.bmp,ACC016,"[3, 0, 0]","[3, -3, 3]","[3, -3, -3]",non-match,1.0144014403465114,3,-0.7711515830725075,-1.138213727248033,1.5785810480941467,1st,1st,4th,-1.2592791171956434,-0.9386715209445801,1.1939559121175718
mem,resp,1663,1,mem1.3.2.bmp,mem1.2.3.bmp,mem1.2.3.bmp,ACC016,"[-3, 3, 0]","[-3, 0, 3]","[-3, 0, 3]",match,1.591751709536137,,0.17034186349284683,-0.8080453556672986,1.5609825563827266,3rd,1st,4th,0.31745803969164954,-0.9386715209445801,1.1939559121175718
mem,resp,645,0,mem2.1.1.bmp,mem3.3.2.bmp,mem3.3.2.bmp,ACC016,"[0, -3, -3]","[3, 3, 0]","[3, 3, 0]",match,1.2928932188134525,,0.40968414846404827,-0.5287850857782855,1.7121010653480735,3rd,1st,4th,0.31745803969164954,-0.9386715209445801,1.1939559121175718
mem,resp,1514,1,mem2.3.2.bmp,mem3.2.3.bmp,mem3.1.2.bmp,ACC016,"[0, 3, 0]","[3, 0, 3]","[3, -3, 0]",non-match,0.9462544851682343,3,-1.901599514869174,-1.076433043030339,1.9473817503861839,1st,1st,4th,-1.2592791171956434,-0.9386715209445801,1.1939559121175718
mem,resp,788,1,mem1.1.2.bmp,mem1.1.3.bmp,mem1.1.3.bmp,ACC016,"[-3, -3, 0]","[-3, -3, 3]","[-3, -3, 3]",match,1.7113248654051871,,-0.7363453461394912,-0.39255723220144345,1.7806098268904125,1st,2nd,4th,-1.2592791171956434,-0.2559482793706119,1.1939559121175718
mem,resp,659,1,mem2.3.3.bmp,mem2.1.3.bmp,mem2.3.3.bmp,ACC016,"[0, 3, 3]","[0, -3, 3]","[0, 3, 3]",match,1.4226497308103743,,0.16676992522472361,0.5517397075101667,1.7041433128652175,3rd,4th,4th,0.31745803969164954,1.0328580548196336,1.1939559121175718
mem,resp,1358,1,mem3.3.2.bmp,mem1.3.2.bmp,mem1.2.1.bmp,ACC016,"[3, 3, 0]","[-3, 3, 0]","[-3, 0, -3]",non-match,0.8846449283495895,2,-0.6441978834449326,-0.8009149194719688,1.4318755879244407,2nd,1st,4th,-0.3173409258112142,-0.9386715209445801,1.1939559121175718
mem,resp,700,0,mem2.2.2.bmp,mem2.2.3.bmp,mem2.2.3.bmp,ACC016,"[0, 0, 0]","[0, 0, 3]","[0, 0, 3]",match,1.7113248654051871,,-1.0146242745616705,-0.03492005468638384,1.2995106137975152,1st,3rd,4th,-1.2592791171956434,0.16176174549555883,1.1939559121175718
mem,resp,1255,1,mem1.2.2.bmp,mem3.2.1.bmp,mem1.2.2.bmp,ACC016,"[-3, 0, 0]","[3, 0, -3]","[-3, 0, 0]",match,1.3545027756320973,,0.22925489037645175,-0.14331230327001565,1.1639646698359554,3rd,2nd,4th,0.31745803969164954,-0.2559482793706119,1.1939559121175718
mem,resp,1353,0,mem3.3.1.bmp,mem1.3.1.bmp,mem1.3.1.bmp,ACC016,"[3, 3, -3]","[-3, 3, -3]","[-3, 3, -3]",match,1.4226497308103743,,1.1393422906781328,-0.05252338823804026,0.833743035810166,4th,2nd,4th,1.2591620033152082,-0.2559482793706119,1.1939559121175718
mem,resp,961,1,mem3.2.3.bmp,mem3.1.2.bmp,mem3.2.3.bmp,ACC016,"[3, 0, 3]","[3, -3, 0]","[3, 0, 3]",match,1.591751709536137,,-1.8159129666413216,-0.6044778830285804,0.8343756841057047,1st,1st,4th,-1.2592791171956434,-0.9386715209445801,1.1939559121175718
mem,resp,601,1,mem3.1.1.bmp,mem3.3.3.bmp,mem3.1.1.bmp,ACC016,"[3, -3, -3]","[3, 3, 3]","[3, -3, -3]",match,1.1835034190722742,,0.7332725202475269,0.4583686165002668,0.8510543544777188,4th,4th,4th,1.2591620033152082,1.0328580548196336,1.1939559121175718
mem,resp,674,1,mem1.2.1.bmp,mem1.1.1.bmp,mem1.2.3.bmp,ACC016,"[-3, 0, -3]","[-3, -3, -3]","[-3, 0, 3]",non-match,0.7771525064424715,2,0.6557683919244159,-1.0615976751041398,0.8513758035745252,4th,1st,4th,1.2591620033152082,-0.9386715209445801,1.1939559121175718
mem,resp,976,0,mem2.3.1.bmp,mem1.1.2.bmp,mem1.1.2.bmp,ACC016,"[0, 3, -3]","[-3, -3, 0]","[-3, -3, 0]",match,1.2928932188134525,,-0.840202894624948,0.10483989678029769,0.7845396011826032,1st,3rd,3rd,-1.2592791171956434,0.16176174549555883,0.5075849462191957
mem,resp,834,0,mem2.2.1.bmp,mem2.3.3.bmp,mem1.3.1.bmp,ACC016,"[0, 0, -3]","[0, 3, 3]","[-3, 3, -3]",non-match,0.9462544851682343,3,0.445401932405417,0.7561185191855851,0.9919969007143977,3rd,4th,4th,0.31745803969164954,1.0328580548196336,1.1939559121175718
mem,resp,707,1,mem3.3.3.bmp,mem2.2.2.bmp,mem3.3.3.bmp,ACC016,"[3, 3, 3]","[0, 0, 0]","[3, 3, 3]",match,1.5,,0.4008698343844899,0.8264902177420119,1.1722908435482284,3rd,4th,4th,0.31745803969164954,1.0328580548196336,1.1939559121175718
mem,resp,873,1,mem1.1.1.bmp,mem1.2.1.bmp,mem3.2.3.bmp,ACC016,"[-3, -3, -3]","[-3, 0, -3]","[3, 0, 3]",non-match,0.3174780152878355,1,0.5573349343917882,1.0850046040509538,1.1676365921533425,3rd,4th,4th,0.31745803969164954,1.0328580548196336,1.1939559121175718
mem,resp,876,1,mem1.2.3.bmp,mem3.3.1.bmp,mem3.3.1.bmp,ACC016,"[-3, 0, 3]","[3, 3, -3]","[3, 3, -3]",match,1.1339745962155614,,0.20964984953107116,-0.16281854330764403,0.9273281320919895,3rd,2nd,4th,0.31745803969164954,-0.2559482793706119,1.1939559121175718
mem,resp,838,1,mem1.1.3.bmp,mem3.3.2.bmp,mem1.1.3.bmp,ACC016,"[-3, -3, 3]","[3, 3, 0]","[-3, -3, 3]",match,1.1339745962155614,,1.104129788467712,1.2053004270844585,0.7862227375834637,4th,4th,3rd,1.2591620033152082,1.0328580548196336,0.5075849462191957
mem,resp,944,0,mem1.3.1.bmp,mem1.2.2.bmp,mem1.2.2.bmp,ACC016,"[-3, 3, -3]","[-3, 0, 0]","[-3, 0, 0]",match,1.591751709536137,,0.07188596732236238,-0.45393544407173947,0.8556530323773687,3rd,2nd,4th,0.31745803969164954,-0.2559482793706119,1.1939559121175718
mem,resp,1249,0,mem2.2.3.bmp,mem2.1.1.bmp,mem2.2.3.bmp,ACC016,"[0, 0, 3]","[0, -3, -3]","[0, 0, 3]",match,1.3545027756320973,,-0.21747758334126274,0.0323305014361267,0.9148697845468707,2nd,3rd,4th,-0.3173409258112142,0.16176174549555883,1.1939559121175718
mem,resp,1155,0,mem1.3.3.bmp,mem2.3.1.bmp,mem1.3.2.bmp,ACC016,"[-3, 3, 3]","[0, 3, -3]","[-3, 3, 0]",non-match,1.3030765749413242,4,-2.452100873119955,1.139087058051245,0.8889450406241574,1st,4th,4th,-1.2592791171956434,1.0328580548196336,1.1939559121175718
mem,resp,859,1,mem1.3.3.bmp,mem1.1.1.bmp,mem1.1.1.bmp,ACC016,"[-3, 3, 3]","[-3, -3, -3]","[-3, -3, -3]",match,1.1835034190722742,,0.002530449997741255,-0.8506335222470516,1.1694840967546383,2nd,1st,4th,-0.3173409258112142,-0.9386715209445801,1.1939559121175718
mem,resp,818,1,mem2.3.2.bmp,mem3.2.1.bmp,mem2.3.3.bmp,ACC016,"[0, 3, 0]","[3, 0, -3]","[0, 3, 3]",non-match,1.0042180842186395,3,0.2223025659349045,0.4402116653791289,1.3259544869763977,3rd,3rd,4th,0.31745803969164954,0.16176174549555883,1.1939559121175718
mem,resp,672,1,mem1.3.1.bmp,mem3.1.1.bmp,mem1.1.3.bmp,ACC016,"[-3, 3, -3]","[3, -3, -3]","[-3, -3, 3]",non-match,0.36700683814454815,1,0.06683109011068596,0.21518657907107339,1.4803466581417,3rd,3rd,4th,0.31745803969164954,0.16176174549555883,1.1939559121175718
mem,resp,1077,0,mem2.2.1.bmp,mem2.1.2.bmp,mem3.3.1.bmp,ACC016,"[0, 0, -3]","[0, -3, 0]","[3, 3, -3]",non-match,0.8846449283495895,2,0.003423084109565383,0.26024649248221227,1.4131232454687654,2nd,3rd,4th,-0.3173409258112142,0.16176174549555883,1.1939559121175718
mem,resp,728,1,mem3.2.2.bmp,mem1.1.2.bmp,mem2.3.1.bmp,ACC016,"[3, 0, 0]","[-3, -3, 0]","[0, 3, -3]",non-match,0.7928932188134524,2,-0.403347944236638,-0.4440261179368552,1.2306236166087827,2nd,2nd,4th,-0.3173409258112142,-0.2559482793706119,1.1939559121175718
mem,resp,729,1,mem3.3.2.bmp,mem1.2.3.bmp,mem1.2.3.bmp,ACC016,"[3, 3, 0]","[-3, 0, 3]","[-3, 0, 3]",match,1.2928932188134525,,0.5215053484157327,-0.08159202514832628,1.3179718691802913,3rd,2nd,4th,0.31745803969164954,-0.2559482793706119,1.1939559121175718
mem,resp,590,1,mem2.2.2.bmp,mem3.3.3.bmp,mem2.2.2.bmp,ACC016,"[0, 0, 0]","[3, 3, 3]","[0, 0, 0]",match,1.5,,2.7297874594455505,0.4671843239265232,1.406238056472444,4th,4th,4th,1.2591620033152082,1.0328580548196336,1.1939559121175718
mem,resp,894,0,mem1.2.1.bmp,mem2.1.3.bmp,mem1.1.1.bmp,ACC016,"[-3, 0, -3]","[0, -3, 3]","[-3, -3, -3]",non-match,1.0658276410372842,4,0.8583509829336546,0.19052126396169172,1.3058964448996553,4th,3rd,4th,1.2591620033152082,0.16176174549555883,1.1939559121175718
mem,resp,787,1,mem3.2.3.bmp,mem3.1.2.bmp,mem1.3.1.bmp,ACC016,"[3, 0, 3]","[3, -3, 0]","[-3, 3, -3]",non-match,0.2679491924311228,1,0.18538100777656868,-0.5570569959647428,1.1700426632894547,3rd,1st,4th,0.31745803969164954,-0.9386715209445801,1.1939559121175718
mem,resp,941,0,mem3.2.1.bmp,mem3.1.3.bmp,mem3.1.3.bmp,ACC016,"[3, 0, -3]","[3, -3, 3]","[3, -3, 3]",match,1.3545027756320973,,-0.11263097644486467,-0.4774359956586822,0.9953561299435166,2nd,1st,4th,-0.3173409258112142,-0.9386715209445801,1.1939559121175718
mem,resp,434,0,mem2.1.2.bmp,mem2.1.1.bmp,mem2.1.1.bmp,ACC016,"[0, -3, 0]","[0, -3, -3]","[0, -3, -3]",match,1.7113248654051871,,2.3741627484455297,-0.3811167198512332,0.8236241688735796,4th,2nd,3rd,1.2591620033152082,-0.2559482793706119,0.5075849462191957
mem,resp,565,1,mem1.2.2.bmp,mem1.1.3.bmp,mem1.1.3.bmp,ACC016,"[-3, 0, 0]","[-3, -3, 3]","[-3, -3, 3]",match,1.591751709536137,,1.1032822831381959,-0.2686631329434376,0.8281609861130584,4th,2nd,3rd,1.2591620033152082,-0.2559482793706119,0.5075849462191957
mem,resp,1412,1,mem1.2.3.bmp,mem3.1.2.bmp,mem1.2.3.bmp,ACC016,"[-3, 0, 3]","[3, -3, 0]","[-3, 0, 3]",match,1.2928932188134525,,-0.14849357005709773,-1.0889625982029199,0.9348941100709672,2nd,1st,4th,-0.3173409258112142,-0.9386715209445801,1.1939559121175718
mem,resp,925,1,mem3.2.2.bmp,mem1.2.1.bmp,mem2.3.3.bmp,ACC016,"[3, 0, 0]","[-3, 0, -3]","[0, 3, 3]",non-match,0.7928932188134524,2,1.1254565323331869,0.3314478413804931,0.9516714377204958,4th,3rd,4th,1.2591620033152082,0.16176174549555883,1.1939559121175718
mem,resp,818,0,mem3.2.1.bmp,mem1.1.2.bmp,mem2.1.3.bmp,ACC016,"[3, 0, -3]","[-3, -3, 0]","[0, -3, 3]",non-match,0.8846449283495895,2,-0.17703439700863097,1.1744713802524536,0.8576449845568784,2nd,4th,4th,-0.3173409258112142,1.0328580548196336,1.1939559121175718
mem,resp,830,1,mem1.3.1.bmp,mem1.3.2.bmp,mem3.2.3.bmp,ACC016,"[-3, 3, -3]","[-3, 3, 0]","[3, 0, 3]",non-match,0.42686781502901383,1,0.20513850258703697,-0.05682131721266843,0.8510573349799999,3rd,2nd,4th,0.31745803969164954,-0.2559482793706119,1.1939559121175718
mem,resp,483,1,mem3.3.2.bmp,mem3.3.1.bmp,mem3.3.2.bmp,ACC016,"[3, 3, 0]","[3, 3, -3]","[3, 3, 0]",match,1.7113248654051871,,1.642533146364969,0.1372249622233742,0.77311578410604,4th,3rd,3rd,1.2591620033152082,0.16176174549555883,0.5075849462191957
mem,resp,1338,1,mem3.1.3.bmp,mem3.3.3.bmp,mem2.2.3.bmp,ACC016,"[3, -3, 3]","[3, 3, 3]","[0, 0, 3]",non-match,1.1835034190722742,4,0.3123582674055509,0.02331327911839678,0.3202030134477816,3rd,3rd,3rd,0.31745803969164954,0.16176174549555883,0.5075849462191957
mem,resp,732,1,mem2.2.2.bmp,mem1.2.2.bmp,mem2.2.2.bmp,ACC016,"[0, 0, 0]","[-3, 0, 0]","[0, 0, 0]",match,1.7113248654051871,,-0.46906256477558766,0.7019927947357074,0.3688951477791183,2nd,4th,3rd,-0.3173409258112142,1.0328580548196336,0.5075849462191957
mem,resp,916,1,mem2.1.3.bmp,mem1.3.3.bmp,mem2.1.3.bmp,ACC016,"[0, -3, 3]","[-3, 3, 3]","[0, -3, 3]",match,1.3545027756320973,,0.9639984229084927,0.3197893626766275,0.2726012629313639,4th,3rd,3rd,1.2591620033152082,0.16176174549555883,0.5075849462191957
mem,resp,454,1,mem2.3.1.bmp,mem2.3.2.bmp,mem2.3.1.bmp,ACC016,"[0, 3, -3]","[0, 3, 0]","[0, 3, -3]",match,1.7113248654051871,,0.8019566735277853,-0.06671884795957392,0.30091276279406365,4th,2nd,3rd,1.2591620033152082,-0.2559482793706119,0.5075849462191957
mem,resp,555,1,mem1.3.2.bmp,mem2.3.3.bmp,mem1.3.2.bmp,ACC016,"[-3, 3, 0]","[0, 3, 3]","[-3, 3, 0]",match,1.591751709536137,,0.09372472556731667,0.23032391086956736,0.218275549599484,3rd,3rd,3rd,0.31745803969164954,0.16176174549555883,0.5075849462191957
mem,resp,575,1,mem3.3.1.bmp,mem2.2.3.bmp,mem2.2.3.bmp,ACC016,"[3, 3, -3]","[0, 0, 3]","[0, 0, 3]",match,1.2928932188134525,,1.1164892961553132,0.7033239353096409,-0.06396295785410741,4th,4th,2nd,1.2591620033152082,1.0328580548196336,-0.40207086568589717
mem,resp,760,0,mem1.2.1.bmp,mem2.2.2.bmp,mem1.1.1.bmp,ACC016,"[-3, 0, -3]","[0, 0, 0]","[-3, -3, -3]",non-match,1.2113248654051871,4,-0.46052952403671005,0.8285016004100647,-0.10616395530211156,2nd,4th,2nd,-0.3173409258112142,1.0328580548196336,-0.40207086568589717
mem,resp,609,1,mem1.1.3.bmp,mem3.3.2.bmp,mem3.3.2.bmp,ACC016,"[-3, -3, 3]","[3, 3, 0]","[3, 3, 0]",match,1.1339745962155614,,0.3576025703718529,0.5745550505238405,-0.04551664022733786,3rd,4th,2nd,0.31745803969164954,1.0328580548196336,-0.40207086568589717
mem,resp,702,1,mem2.1.1.bmp,mem3.2.1.bmp,mem3.2.1.bmp,ACC016,"[0, -3, -3]","[3, 0, -3]","[3, 0, -3]",match,1.591751709536137,,1.033984932242025,-0.0039873946831307065,-0.02218955421466976,4th,3rd,2nd,1.2591620033152082,0.16176174549555883,-0.40207086568589717
mem,resp,766,0,mem3.1.2.bmp,mem1.2.3.bmp,mem1.3.3.bmp,ACC016,"[3, -3, 0]","[-3, 0, 3]","[-3, 3, 3]",non-match,0.8452994616207485,2,-0.1277937607376232,-0.13767385949206026,-0.10259018862676628,2nd,2nd,2nd,-0.3173409258112142,-0.2559482793706119,-0.40207086568589717
mem,resp,817,0,mem3.3.3.bmp,mem2.3.1.bmp,mem3.3.3.bmp,ACC016,"[3, 3, 3]","[0, 3, -3]","[3, 3, 3]",match,1.3545027756320973,,-0.451789281221568,-0.06054201714819442,0.028629694314830464,2nd,2nd,3rd,-0.3173409258112142,-0.2559482793706119,0.5075849462191957
mem,resp,882,1,mem3.2.3.bmp,mem3.1.3.bmp,mem3.2.3.bmp,ACC016,"[3, 0, 3]","[3, -3, 3]","[3, 0, 3]",match,1.7113248654051871,,0.3776551901464975,-1.2144798928759042,0.05168775495840663,3rd,1st,3rd,0.31745803969164954,-0.9386715209445801,0.5075849462191957
mem,resp,571,1,mem2.2.1.bmp,mem3.1.1.bmp,mem1.2.1.bmp,ACC016,"[0, 0, -3]","[3, -3, -3]","[-3, 0, -3]",non-match,1.0658276410372842,4,-0.2402691888839722,0.23131012946659696,-0.10773819775904016,2nd,3rd,2nd,-0.3173409258112142,0.16176174549555883,-0.40207086568589717
mem,resp,754,1,mem1.1.1.bmp,mem2.2.2.bmp,mem1.1.1.bmp,ACC016,"[-3, -3, -3]","[0, 0, 0]","[-3, -3, -3]",match,1.5,,1.0964894141391466,0.19570962056676144,-0.02518121244485576,4th,3rd,2nd,1.2591620033152082,0.16176174549555883,-0.40207086568589717
mem,resp,334,1,mem1.1.2.bmp,mem1.2.3.bmp,mem1.1.2.bmp,ACC016,"[-3, -3, 0]","[-3, 0, 3]","[-3, -3, 0]",match,1.591751709536137,,1.118139076078245,0.3538984792753195,0.01047364291715466,4th,3rd,3rd,1.2591620033152082,0.16176174549555883,0.5075849462191957
mem,resp,343,1,mem2.3.2.bmp,mem2.2.3.bmp,mem2.3.2.bmp,ACC016,"[0, 3, 0]","[0, 0, 3]","[0, 3, 0]",match,1.591751709536137,,0.9772533197279096,0.5170541482315714,-0.18241107296644077,4th,4th,2nd,1.2591620033152082,1.0328580548196336,-0.40207086568589717
mem,resp,444,0,mem1.3.3.bmp,mem2.1.2.bmp,mem1.2.2.bmp,ACC016,"[-3, 3, 3]","[0, -3, 0]","[-3, 0, 0]",non-match,1.1835034190722742,4,1.8304252501609541,-0.13362903471106702,-0.16836618131334813,4th,2nd,2nd,1.2591620033152082,-0.2559482793706119,-0.40207086568589717
mem,resp,607,1,mem3.1.1.bmp,mem3.2.2.bmp,mem3.1.1.bmp,ACC016,"[3, -3, -3]","[3, 0, 0]","[3, -3, -3]",match,1.591751709536137,,2.200946174253024,0.7243846626272695,-0.21455278035468697,4th,4th,2nd,1.2591620033152082,1.0328580548196336,-0.40207086568589717
mem,resp,678,0,mem2.3.3.bmp,mem2.3.1.bmp,mem1.1.1.bmp,ACC016,"[0, 3, 3]","[0, 3, -3]","[-3, -3, -3]",non-match,0.4884773718476586,1,0.49836779187615826,-0.03725351352725475,-0.1507122329491373,3rd,2nd,2nd,0.31745803969164954,-0.2559482793706119,-0.40207086568589717
mem,resp,578,1,mem2.2.3.bmp,mem2.1.3.bmp,mem2.1.1.bmp,ACC016,"[0, 0, 3]","[0, -3, 3]","[0, -3, -3]",non-match,0.7771525064424715,2,0.6411821131438431,0.7995164003494836,-0.0694967985303449,4th,4th,2nd,1.2591620033152082,1.0328580548196336,-0.40207086568589717
mem,resp,742,0,mem1.3.2.bmp,mem3.3.3.bmp,mem3.2.3.bmp,ACC016,"[-3, 3, 0]","[3, 3, 3]","[3, 0, 3]",non-match,1.0042180842186395,3,0.18332628481733948,-0.5257811108649619,0.14547585134681557,3rd,1st,3rd,0.31745803969164954,-0.9386715209445801,0.5075849462191957
mem,resp,669,0,mem2.2.2.bmp,mem3.2.1.bmp,mem1.2.1.bmp,ACC016,"[0, 0, 0]","[3, 0, -3]","[-3, 0, -3]",non-match,1.0144014403465114,3,1.6537111806092106,1.019637543758407,0.1189743884379567,4th,4th,3rd,1.2591620033152082,1.0328580548196336,0.5075849462191957
mem,resp,814,0,mem3.1.2.bmp,mem3.1.3.bmp,mem3.1.3.bmp,ACC016,"[3, -3, 0]","[3, -3, 3]","[3, -3, 3]",match,1.7113248654051871,,-0.707105866059526,-0.2372203948379104,0.17155290214221378,1st,2nd,3rd,-1.2592791171956434,-0.2559482793706119,0.5075849462191957
mem,resp,576,1,mem2.1.2.bmp,mem3.3.2.bmp,mem2.1.2.bmp,ACC016,"[0, -3, 0]","[3, 3, 0]","[0, -3, 0]",match,1.3545027756320973,,1.1875631678485203,-1.063036785512085,-0.00195655079696566,4th,1st,2nd,1.2591620033152082,-0.9386715209445801,-0.40207086568589717
mem,resp,547,0,mem3.1.1.bmp,mem1.3.3.bmp,mem1.3.2.bmp,ACC016,"[3, -3, -3]","[-3, 3, 3]","[-3, 3, 0]",non-match,0.8452994616207485,2,1.0388276333925799,1.3004426887209006,0.0808454563958456,4th,4th,3rd,1.2591620033152082,1.0328580548196336,0.5075849462191957
mem,resp,810,0,mem3.2.1.bmp,mem2.1.1.bmp,mem3.2.2.bmp,ACC016,"[3, 0, -3]","[0, -3, -3]","[3, 0, 0]",non-match,1.2113248654051871,4,1.073269835417147,0.6927907780063055,0.2684509948869282,4th,4th,3rd,1.2591620033152082,1.0328580548196336,0.5075849462191957
mem,resp,933,1,mem1.3.1.bmp,mem1.2.2.bmp,mem1.2.3.bmp,ACC016,"[-3, 3, -3]","[-3, 0, 0]","[-3, 0, 3]",non-match,1.0658276410372842,4,1.0432328748775155,-0.5462536001147077,-0.03716698210247165,4th,1st,2nd,1.2591620033152082,-0.9386715209445801,-0.40207086568589717
mem,resp,806,1,mem3.1.3.bmp,mem1.2.1.bmp,mem2.3.3.bmp,ACC016,"[3, -3, 3]","[-3, 0, -3]","[0, 3, 3]",non-match,0.6473959944455496,1,-0.6694862159383961,0.19766529589369233,0.008681753794739785,2nd,3rd,3rd,-0.3173409258112142,0.16176174549555883,0.5075849462191957
mem,resp,840,0,mem3.3.3.bmp,mem1.1.2.bmp,mem3.3.2.bmp,ACC016,"[3, 3, 3]","[-3, -3, 0]","[3, 3, 0]",non-match,0.8948282844774612,3,0.2109586988581582,0.18361938927553526,0.24321250884519557,3rd,3rd,3rd,0.31745803969164954,0.16176174549555883,0.5075849462191957
mem,resp,993,1,mem2.3.2.bmp,mem1.1.3.bmp,mem3.1.1.bmp,ACC016,"[0, 3, 0]","[-3, -3, 3]","[3, -3, -3]",non-match,0.4763966378857265,1,0.6411830529830365,1.0453285609740532,0.350054141399647,4th,4th,3rd,1.2591620033152082,1.0328580548196336,0.5075849462191957
mem,resp,857,0,mem1.2.3.bmp,mem2.2.1.bmp,mem1.3.3.bmp,ACC016,"[-3, 0, 3]","[0, 0, -3]","[-3, 3, 3]",non-match,1.0042180842186395,3,-3.331287115872096,-0.5626028149065677,0.5468073131330482,1st,1st,3rd,-1.2592791171956434,-0.9386715209445801,0.5075849462191957
mem,resp,638,1,mem3.2.3.bmp,mem3.3.1.bmp,mem3.2.3.bmp,ACC016,"[3, 0, 3]","[3, 3, -3]","[3, 0, 3]",match,1.3545027756320973,,-0.5708580167143811,0.4724777629529217,0.7234433402850202,2nd,4th,3rd,-0.3173409258112142,1.0328580548196336,0.5075849462191957
mem,resp,762,1,mem1.1.1.bmp,mem1.3.2.bmp,mem3.2.2.bmp,ACC016,"[-3, -3, -3]","[-3, 3, 0]","[3, 0, 0]",non-match,0.6473959944455496,1,-1.0923443353190747,-0.6372563634613773,0.9423875825095703,1st,1st,4th,-1.2592791171956434,-0.9386715209445801,1.1939559121175718
mem,resp,611,0,mem1.1.1.bmp,mem1.2.3.bmp,mem2.1.3.bmp,ACC016,"[-3, -3, -3]","[-3, 0, 3]","[0, -3, 3]",non-match,0.9462544851682343,3,-1.1884005327207887,0.5054383812483878,0.8686129373564525,1st,4th,4th,-1.2592791171956434,1.0328580548196336,1.1939559121175718
mem,resp,442,0,mem2.3.2.bmp,mem1.3.3.bmp,mem2.2.3.bmp,ACC016,"[0, 3, 0]","[-3, 3, 3]","[0, 0, 3]",non-match,1.1835034190722742,4,1.7191817310510307,0.48662957973893306,0.8680774438922282,4th,4th,4th,1.2591620033152082,1.0328580548196336,1.1939559121175718
mem,resp,1087,1,mem1.1.3.bmp,mem2.2.2.bmp,mem2.2.2.bmp,ACC016,"[-3, -3, 3]","[0, 0, 0]","[0, 0, 0]",match,1.5,,-0.8893676841500705,1.1647907604823842,0.9211762655000449,1st,4th,4th,-1.2592791171956434,1.0328580548196336,1.1939559121175718
mem,resp,1395,1,mem2.1.2.bmp,mem1.2.1.bmp,mem3.3.1.bmp,ACC016,"[0, -3, 0]","[-3, 0, -3]","[3, 3, -3]",non-match,0.6473959944455496,1,0.44729529073206065,0.3507212570143449,0.7553666478999738,3rd,3rd,3rd,0.31745803969164954,0.16176174549555883,0.5075849462191957
mem,resp,596,1,mem3.2.2.bmp,mem1.1.1.bmp,mem1.1.1.bmp,ACC016,"[3, 0, 0]","[-3, -3, -3]","[-3, -3, -3]",match,1.2928932188134525,,-0.48892157550031906,-0.29923156378209453,0.6988924002496024,2nd,2nd,3rd,-0.3173409258112142,-0.2559482793706119,0.5075849462191957
mem,resp,909,0,mem3.3.2.bmp,mem2.2.3.bmp,mem2.3.1.bmp,ACC016,"[3, 3, 0]","[0, 0, 3]","[0, 3, -3]",non-match,0.9462544851682343,3,-1.0832556198998213,1.5235780711000566,0.7479886759571751,1st,4th,3rd,-1.2592791171956434,1.0328580548196336,0.5075849462191957
mem,resp,943,0,mem1.2.2.bmp,mem2.3.2.bmp,mem1.3.1.bmp,ACC016,"[-3, 0, 0]","[0, 3, 0]","[-3, 3, -3]",non-match,1.1835034190722742,4,0.8078243566951816,1.5922446118152969,0.6405318355508793,4th,4th,3rd,1.2591620033152082,1.0328580548196336,0.5075849462191957
mem,resp,392,0,mem3.2.3.bmp,mem2.1.1.bmp,mem2.2.2.bmp,ACC016,"[3, 0, 3]","[0, -3, -3]","[0, 0, 0]",non-match,1.1835034190722742,4,1.719046278577077,-0.5961547132383954,0.6115629650987856,4th,1st,3rd,1.2591620033152082,-0.9386715209445801,0.5075849462191957
mem,resp,1761,0,mem3.3.3.bmp,mem3.2.1.bmp,mem3.1.2.bmp,ACC016,"[3, 3, 3]","[3, 0, -3]","[3, -3, 0]",non-match,0.9462544851682343,3,0.25856214198163363,0.051784790032489224,0.45360394397582593,3rd,3rd,3rd,0.31745803969164954,0.16176174549555883,0.5075849462191957
mem,resp,2413,0,mem1.3.2.bmp,mem2.3.1.bmp,mem2.3.3.bmp,ACC016,"[-3, 3, 0]","[0, 3, -3]","[0, 3, 3]",non-match,1.0144014403465114,3,-1.6738287452822163,-0.5603865830805703,0.6424118503135502,1st,1st,3rd,-1.2592791171956434,-0.9386715209445801,0.5075849462191957
mem,resp,1302,1,mem1.1.2.bmp,mem3.1.3.bmp,mem1.1.2.bmp,ACC016,"[-3, -3, 0]","[3, -3, 3]","[-3, -3, 0]",match,1.3545027756320973,,0.4771967746634523,-0.34911839827822877,0.5890084207600843,3rd,2nd,3rd,0.31745803969164954,-0.2559482793706119,0.5075849462191957
mem,resp,746,1,mem1.2.3.bmp,mem3.2.2.bmp,mem3.2.2.bmp,ACC016,"[-3, 0, 3]","[3, 0, 0]","[3, 0, 0]",match,1.3545027756320973,,1.2371976649469398,0.8914327682292901,0.6273953176079442,4th,4th,3rd,1.2591620033152082,1.0328580548196336,0.5075849462191957
mem,resp,929,1,mem3.1.2.bmp,mem3.1.1.bmp,mem3.3.1.bmp,ACC016,"[3, -3, 0]","[3, -3, -3]","[3, 3, -3]",non-match,0.7771525064424715,2,-0.7642922214797148,0.6897460365766329,0.5715874601331693,1st,4th,3rd,-1.2592791171956434,1.0328580548196336,0.5075849462191957
mem,resp,1357,1,mem2.2.3.bmp,mem2.3.3.bmp,mem2.3.3.bmp,ACC016,"[0, 0, 3]","[0, 3, 3]","[0, 3, 3]",match,1.7113248654051871,,-1.5946825224704946,-1.1930501613309146,0.5340201076386603,1st,1st,3rd,-1.2592791171956434,-0.9386715209445801,0.5075849462191957
mem,resp,1110,1,mem2.2.1.bmp,mem2.1.3.bmp,mem2.2.1.bmp,ACC016,"[0, 0, -3]","[0, -3, 3]","[0, 0, -3]",match,1.3545027756320973,,-2.098460907549409,-0.6395714049420705,0.3957458164750354,1st,1st,3rd,-1.2592791171956434,-0.9386715209445801,0.5075849462191957
mem,resp,1007,0,mem1.3.3.bmp,mem2.1.2.bmp,mem3.1.3.bmp,ACC016,"[-3, 3, 3]","[0, -3, 0]","[3, -3, 3]",non-match,0.7752551286084112,2,0.07770340220612075,-0.01840804284674926,0.32444683991458767,3rd,3rd,3rd,0.31745803969164954,0.16176174549555883,0.5075849462191957
mem,resp,680,1,mem2.3.1.bmp,mem3.2.3.bmp,mem2.1.1.bmp,ACC016,"[0, 3, -3]","[3, 0, 3]","[0, -3, -3]",non-match,0.7155429496238267,2,-0.9163424258037098,0.7693437151243557,0.4598260185818591,1st,4th,3rd,-1.2592791171956434,1.0328580548196336,0.5075849462191957
mem,resp,864,1,mem3.3.1.bmp,mem3.3.3.bmp,mem1.2.3.bmp,ACC016,"[3, 3, -3]","[3, 3, 3]","[-3, 0, 3]",non-match,0.4884773718476586,1,0.13679355743907057,0.8788679898553692,0.6497873979518917,3rd,4th,3rd,0.31745803969164954,1.0328580548196336,0.5075849462191957
mem,resp,1925,0,mem3.1.1.bmp,mem2.2.1.bmp,mem3.2.1.bmp,ACC016,"[3, -3, -3]","[0, 0, -3]","[3, 0, -3]",non-match,1.4226497308103743,4,-1.0974233289618267,-1.5018814792303012,0.7455568861189507,1st,1st,3rd,-1.2592791171956434,-0.9386715209445801,0.5075849462191957
mem,resp,1545,1,mem1.2.1.bmp,mem3.1.2.bmp,mem3.3.2.bmp,ACC016,"[-3, 0, -3]","[3, -3, 0]","[3, 3, 0]",non-match,0.7155429496238267,2,0.6202422571379862,0.04037017580167513,0.7224240071756155,3rd,3rd,3rd,0.31745803969164954,0.16176174549555883,0.5075849462191957
mem,resp,1039,1,mem2.1.3.bmp,mem1.3.1.bmp,mem2.1.3.bmp,ACC016,"[0, -3, 3]","[-3, 3, -3]","[0, -3, 3]",match,1.1339745962155614,,0.0067869222575053295,1.5421452533989086,0.8365944213051131,2nd,4th,4th,-0.3173409258112142,1.0328580548196336,1.1939559121175718
mem,resp,872,0,mem2.1.1.bmp,mem1.3.2.bmp,mem1.1.2.bmp,ACC016,"[0, -3, -3]","[-3, 3, 0]","[-3, -3, 0]",non-match,1.0144014403465114,3,0.2616844577041963,0.1349132938097698,0.8586977661962718,3rd,3rd,4th,0.31745803969164954,0.16176174549555883,1.1939559121175718
mem,resp,666,1,mem3.2.1.bmp,mem3.3.3.bmp,mem1.1.1.bmp,ACC016,"[3, 0, -3]","[3, 3, 3]","[-3, -3, -3]",non-match,0.3545027756320972,1,-0.010073377602679871,1.283633722815477,0.8588221399291115,2nd,4th,4th,-0.3173409258112142,1.0328580548196336,1.1939559121175718
mem,resp,955,1,mem3.1.3.bmp,mem3.3.2.bmp,mem3.3.2.bmp,ACC016,"[3, -3, 3]","[3, 3, 0]","[3, 3, 0]",match,1.3545027756320973,,-0.33080990527846443,3.6181105263627913,1.0461329923396572,2nd,4th,4th,-0.3173409258112142,1.0328580548196336,1.1939559121175718
mem,resp,1403,0,mem2.3.3.bmp,mem3.2.2.bmp,mem3.2.3.bmp,ACC016,"[0, 3, 3]","[3, 0, 0]","[3, 0, 3]",non-match,1.3030765749413242,4,-0.8058282972335099,-0.25787231884058,1.1995136639034902,1st,2nd,4th,-1.2592791171956434,-0.2559482793706119,1.1939559121175718
mem,resp,585,1,mem2.2.2.bmp,mem1.1.2.bmp,mem1.1.2.bmp,ACC016,"[0, 0, 0]","[-3, -3, 0]","[-3, -3, 0]",match,1.591751709536137,,0.03643910955608787,-0.17321516382170588,1.052694928452959,2nd,2nd,4th,-0.3173409258112142,-0.2559482793706119,1.1939559121175718
mem,resp,808,0,mem1.2.2.bmp,mem2.2.3.bmp,mem2.2.3.bmp,ACC016,"[-3, 0, 0]","[0, 0, 3]","[0, 0, 3]",match,1.591751709536137,,-1.813510571998889,-0.43345560857158594,1.1235969310139937,1st,2nd,4th,-1.2592791171956434,-0.2559482793706119,1.1939559121175718
mem,resp,1000,1,mem1.3.3.bmp,mem1.3.1.bmp,mem3.2.1.bmp,ACC016,"[-3, 3, 3]","[-3, 3, -3]","[3, 0, -3]",non-match,0.4884773718476586,1,-1.1700961072915081,-0.19433387478340017,1.1633604145041125,1st,2nd,4th,-1.2592791171956434,-0.2559482793706119,1.1939559121175718
mem,resp,2012,0,mem2.3.3.bmp,mem2.3.2.bmp,mem1.3.2.bmp,ACC016,"[0, 3, 3]","[0, 3, 0]","[-3, 3, 0]",non-match,1.3030765749413242,4,0.3298509928744637,-0.32554477736680537,0.8628473881729957,3rd,2nd,4th,0.31745803969164954,-0.2559482793706119,1.1939559121175718
mem,resp,1158,0,mem2.2.2.bmp,mem2.1.3.bmp,mem2.2.2.bmp,ACC016,"[0, 0, 0]","[0, -3, 3]","[0, 0, 0]",match,1.591751709536137,,0.30225978572234646,0.3489490517046468,0.7728708787803078,3rd,3rd,3rd,0.31745803969164954,0.16176174549555883,0.5075849462191957
mem,resp,618,0,mem1.1.1.bmp,mem3.2.3.bmp,mem2.1.2.bmp,ACC016,"[-3, -3, -3]","[3, 0, 3]","[0, -3, 0]",non-match,1.091751709536137,4,-0.8061354018793673,-0.7409664224398839,1.0287852568984255,1st,1st,4th,-1.2592791171956434,-0.9386715209445801,1.1939559121175718
mem,resp,819,1,mem2.2.3.bmp,mem3.1.3.bmp,mem3.1.3.bmp,ACC016,"[0, 0, 3]","[3, -3, 3]","[3, -3, 3]",match,1.591751709536137,,-0.2890492151068469,1.2076617395958908,0.8934176460311297,2nd,4th,4th,-0.3173409258112142,1.0328580548196336,1.1939559121175718
mem,resp,967,1,mem3.2.2.bmp,mem1.3.2.bmp,mem1.3.3.bmp,ACC016,"[3, 0, 0]","[-3, 3, 0]","[-3, 3, 3]",non-match,1.0042180842186395,3,1.1850680228332093,0.31524755888211625,0.7270813289796866,4th,3rd,3rd,1.2591620033152082,0.16176174549555883,0.5075849462191957
mem,resp,858,1,mem3.1.2.bmp,mem2.3.1.bmp,mem3.1.2.bmp,ACC016,"[3, -3, 0]","[0, 3, -3]","[3, -3, 0]",match,1.2928932188134525,,0.12492154887601147,0.5142487910968847,0.8699041838681721,3rd,4th,4th,0.31745803969164954,1.0328580548196336,1.1939559121175718
mem,resp,800,1,mem1.2.3.bmp,mem3.1.1.bmp,mem1.3.1.bmp,ACC016,"[-3, 0, 3]","[3, -3, -3]","[-3, 3, -3]",non-match,0.5380061947043713,1,-0.23614251737272143,0.00016812050189730416,0.8465710454801485,2nd,3rd,4th,-0.3173409258112142,0.16176174549555883,1.1939559121175718
mem,resp,762,0,mem3.3.2.bmp,mem1.1.3.bmp,mem2.1.1.bmp,ACC016,"[3, 3, 0]","[-3, -3, 3]","[0, -3, -3]",non-match,0.6473959944455496,1,0.4122210045799544,0.34244482644902724,0.8183472692074166,3rd,3rd,3rd,0.31745803969164954,0.16176174549555883,0.5075849462191957
mem,resp,993,0,mem1.2.1.bmp,mem2.1.2.bmp,mem2.2.3.bmp,ACC016,"[-3, 0, -3]","[0, -3, 0]","[0, 0, 3]",non-match,0.9462544851682343,3,0.31668215761114143,0.8761394062108621,0.8306789539647473,3rd,4th,4th,0.31745803969164954,1.0328580548196336,1.1939559121175718
