mode,type,rt,acc,item_1,item_2,item_cue,subj_idx,item_1_number,item_2_number,item_cue_number,trial_type,summed_similarity,similarity_bin,ams,pams,slps,ams_quantile,pams_quantile,slps_quantile,ams_bin,pam_bin,slp_bin
mem,resp,1282,0,mem1.1.3.bmp,mem2.2.2.bmp,mem2.2.2.bmp,ACC023,"[-3, -3, 3]","[0, 0, 0]","[0, 0, 0]",match,1.5,,0.3708539213106747,-0.10235246612011417,2.14777870977028,3rd,2nd,4th,0.2814812163593199,-0.345444972785282,1.2456630467749445
mem,resp,1534,1,mem2.1.2.bmp,mem1.2.1.bmp,mem3.3.1.bmp,ACC023,"[0, -3, 0]","[-3, 0, -3]","[3, 3, -3]",non-match,0.6473959944455496,1,0.17191231004863158,0.6167129764667902,1.9300006913251824,3rd,3rd,4th,0.2814812163593199,0.33485573526849355,1.2456630467749445
mem,resp,1352,1,mem3.2.2.bmp,mem1.1.1.bmp,mem1.1.1.bmp,ACC023,"[3, 0, 0]","[-3, -3, -3]","[-3, -3, -3]",match,1.2928932188134525,,0.14898496431982586,0.8876181359576963,1.8970537404367505,3rd,4th,4th,0.2814812163593199,1.2619930643557389,1.2456630467749445
mem,resp,1886,0,mem3.3.2.bmp,mem2.2.3.bmp,mem2.3.1.bmp,ACC023,"[3, 3, 0]","[0, 0, 3]","[0, 3, -3]",non-match,0.9462544851682343,3,-1.556947036426485,-0.37637858824374876,1.7697034846596136,1st,2nd,4th,-1.1857962694998232,-0.345444972785282,1.2456630467749445
mem,resp,1438,0,mem1.2.2.bmp,mem2.3.2.bmp,mem1.3.1.bmp,ACC023,"[-3, 0, 0]","[0, 3, 0]","[-3, 3, -3]",non-match,1.1835034190722742,4,-0.4024205529266115,1.3379199586339234,1.7414926625954257,2nd,4th,4th,-0.4181283601389357,1.2619930643557389,1.2456630467749445
mem,resp,2012,0,mem3.2.3.bmp,mem2.1.1.bmp,mem2.2.2.bmp,ACC023,"[3, 0, 3]","[0, -3, -3]","[0, 0, 0]",non-match,1.1835034190722742,4,0.9020412564397399,-0.1321571018809783,1.535042994910661,4th,2nd,4th,1.326247213500511,-0.345444972785282,1.2456630467749445
mem,resp,1523,0,mem3.3.3.bmp,mem3.2.1.bmp,mem3.1.2.bmp,ACC023,"[3, 3, 3]","[3, 0, -3]","[3, -3, 0]",non-match,0.9462544851682343,3,-0.7503741856133332,-1.3121834069426175,1.6986748847644375,2nd,1st,4th,-0.4181283601389357,-1.246878749335321,1.2456630467749445
mem,resp,1495,0,mem1.3.2.bmp,mem2.3.1.bmp,mem2.3.3.bmp,ACC023,"[-3, 3, 0]","[0, 3, -3]","[0, 3, 3]",non-match,1.0144014403465114,3,-0.9433537429159846,-0.04138407175553733,1.7758921523767968,1st,2nd,4th,-1.1857962694998232,-0.345444972785282,1.2456630467749445
mem,resp,1694,1,mem1.1.2.bmp,mem3.1.3.bmp,mem1.1.2.bmp,ACC023,"[-3, -3, 0]","[3, -3, 3]","[-3, -3, 0]",match,1.3545027756320973,,-0.558166482943488,0.09250931080322153,1.6708221540302313,2nd,3rd,4th,-0.4181283601389357,0.33485573526849355,1.2456630467749445
mem,resp,1506,1,mem3.1.2.bmp,mem3.1.1.bmp,mem3.3.1.bmp,ACC023,"[3, -3, 0]","[3, -3, -3]","[3, 3, -3]",non-match,0.7771525064424715,2,-0.30316866503823603,0.37026353206761375,1.5221561198721087,2nd,3rd,4th,-0.4181283601389357,0.33485573526849355,1.2456630467749445
mem,resp,1405,1,mem2.2.3.bmp,mem2.3.3.bmp,mem2.3.3.bmp,ACC023,"[0, 0, 3]","[0, 3, 3]","[0, 3, 3]",match,1.7113248654051871,,-0.87044644473183,0.42993061024822155,1.2741977491429068,1st,3rd,4th,-1.1857962694998232,0.33485573526849355,1.2456630467749445
mem,resp,1492,1,mem2.2.1.bmp,mem2.1.3.bmp,mem2.2.1.bmp,ACC023,"[0, 0, -3]","[0, -3, 3]","[0, 0, -3]",match,1.3545027756320973,,-0.8230103899575211,0.9576743090564289,1.2062293314587869,1st,4th,4th,-1.1857962694998232,1.2619930643557389,1.2456630467749445
mem,resp,1472,1,mem1.3.1.bmp,mem1.2.2.bmp,mem2.2.2.bmp,ACC023,"[-3, 3, -3]","[-3, 0, 0]","[0, 0, 0]",non-match,1.2113248654051871,4,-0.368472681039104,1.3675779398452195,1.3406901166347174,2nd,4th,4th,-0.4181283601389357,1.2619930643557389,1.2456630467749445
mem,resp,1432,1,mem1.3.3.bmp,mem2.1.2.bmp,mem3.1.3.bmp,ACC023,"[-3, 3, 3]","[0, -3, 0]","[3, -3, 3]",non-match,0.7752551286084112,2,-0.9718306232352852,-0.8645610422948089,1.248157859694126,1st,1st,4th,-1.1857962694998232,-1.246878749335321,1.2456630467749445
mem,resp,2260,1,mem2.3.1.bmp,mem3.2.3.bmp,mem2.1.1.bmp,ACC023,"[0, 3, -3]","[3, 0, 3]","[0, -3, -3]",non-match,0.7155429496238267,2,0.677283858404378,-0.037648545486417107,1.0764561782573485,4th,2nd,4th,1.326247213500511,-0.345444972785282,1.2456630467749445
mem,resp,1854,1,mem3.3.1.bmp,mem3.3.3.bmp,mem1.2.3.bmp,ACC023,"[3, 3, -3]","[3, 3, 3]","[-3, 0, 3]",non-match,0.4884773718476586,1,0.1300197438353897,0.23961348622852388,1.0433622993936928,3rd,3rd,4th,0.2814812163593199,0.33485573526849355,1.2456630467749445
mem,resp,1230,0,mem3.1.1.bmp,mem2.2.1.bmp,mem3.2.1.bmp,ACC023,"[3, -3, -3]","[0, 0, -3]","[3, 0, -3]",non-match,1.4226497308103743,4,-0.8757523534557226,1.343389934554122,1.0438048309943657,1st,4th,4th,-1.1857962694998232,1.2619930643557389,1.2456630467749445
mem,resp,1228,1,mem1.2.1.bmp,mem3.1.2.bmp,mem3.3.2.bmp,ACC023,"[-3, 0, -3]","[3, -3, 0]","[3, 3, 0]",non-match,0.7155429496238267,2,0.012063885751762758,-0.3672311287155191,0.7637203200812874,3rd,2nd,4th,0.2814812163593199,-0.345444972785282,1.2456630467749445
mem,resp,1248,1,mem2.1.3.bmp,mem1.3.1.bmp,mem2.1.3.bmp,ACC023,"[0, -3, 3]","[-3, 3, -3]","[0, -3, 3]",match,1.1339745962155614,,-0.49678235461225617,-0.5816107812044401,0.6392263214458906,2nd,2nd,3rd,-0.4181283601389357,-0.345444972785282,0.45062652593370495
mem,resp,1580,1,mem2.1.1.bmp,mem1.3.2.bmp,mem1.1.2.bmp,ACC023,"[0, -3, -3]","[-3, 3, 0]","[-3, -3, 0]",non-match,1.0144014403465114,3,-0.265075981058125,-0.6452686498088629,0.59789998939848,2nd,2nd,3rd,-0.4181283601389357,-0.345444972785282,0.45062652593370495
mem,resp,1590,1,mem3.2.1.bmp,mem3.3.3.bmp,mem1.1.1.bmp,ACC023,"[3, 0, -3]","[3, 3, 3]","[-3, -3, -3]",non-match,0.3545027756320972,1,0.6242295891441688,0.6290458966433949,0.5573860472017226,3rd,3rd,3rd,0.2814812163593199,0.33485573526849355,0.45062652593370495
mem,resp,2286,0,mem3.1.3.bmp,mem3.3.2.bmp,mem3.3.2.bmp,ACC023,"[3, -3, 3]","[3, 3, 0]","[3, 3, 0]",match,1.3545027756320973,,0.9915905251017739,-2.9502598620500886,0.6797838159237519,4th,1st,3rd,1.326247213500511,-1.246878749335321,0.45062652593370495
mem,resp,1005,1,mem2.3.3.bmp,mem3.2.2.bmp,mem3.2.3.bmp,ACC023,"[0, 3, 3]","[3, 0, 0]","[3, 0, 3]",non-match,1.3030765749413242,4,0.524736972283691,-0.1271492182872603,0.7212477791602364,3rd,2nd,3rd,0.2814812163593199,-0.345444972785282,0.45062652593370495
mem,resp,1195,1,mem2.2.2.bmp,mem1.1.2.bmp,mem1.1.2.bmp,ACC023,"[0, 0, 0]","[-3, -3, 0]","[-3, -3, 0]",match,1.591751709536137,,-0.2836321522806298,-0.4654145171638739,0.7274160579139737,2nd,2nd,3rd,-0.4181283601389357,-0.345444972785282,0.45062652593370495
mem,resp,609,1,mem1.2.2.bmp,mem2.2.3.bmp,mem2.2.3.bmp,ACC023,"[-3, 0, 0]","[0, 0, 3]","[0, 0, 3]",match,1.591751709536137,,-0.45903726301651265,1.6686520114488135,0.8624386218163249,2nd,4th,4th,-0.4181283601389357,1.2619930643557389,1.2456630467749445
mem,resp,1488,1,mem1.3.3.bmp,mem1.3.1.bmp,mem3.2.1.bmp,ACC023,"[-3, 3, 3]","[-3, 3, -3]","[3, 0, -3]",non-match,0.4884773718476586,1,-0.11742088371856875,0.7300046988421124,0.9593883427377374,2nd,4th,4th,-0.4181283601389357,1.2619930643557389,1.2456630467749445
mem,resp,1144,1,mem2.3.3.bmp,mem2.3.2.bmp,mem1.3.2.bmp,ACC023,"[0, 3, 3]","[0, 3, 0]","[-3, 3, 0]",non-match,1.3030765749413242,4,0.4605197914494245,-0.21928670212899157,0.7619520879937977,3rd,2nd,4th,0.2814812163593199,-0.345444972785282,1.2456630467749445
mem,resp,1696,1,mem2.2.2.bmp,mem2.1.3.bmp,mem2.2.2.bmp,ACC023,"[0, 0, 0]","[0, -3, 3]","[0, 0, 0]",match,1.591751709536137,,-1.8130770281799202,-0.5714756038401666,0.6835668947852002,1st,2nd,3rd,-1.1857962694998232,-0.345444972785282,0.45062652593370495
mem,resp,1334,0,mem1.1.1.bmp,mem3.2.3.bmp,mem2.1.2.bmp,ACC023,"[-3, -3, -3]","[3, 0, 3]","[0, -3, 0]",non-match,1.091751709536137,4,-0.5941258779544281,0.8336430978940776,0.657308173706753,2nd,4th,3rd,-0.4181283601389357,1.2619930643557389,0.45062652593370495
mem,resp,1938,0,mem2.2.3.bmp,mem3.1.3.bmp,mem3.1.3.bmp,ACC023,"[0, 0, 3]","[3, -3, 3]","[3, -3, 3]",match,1.591751709536137,,-1.127162170792662,-1.0103214627858552,0.6332465558300151,1st,1st,3rd,-1.1857962694998232,-1.246878749335321,0.45062652593370495
mem,resp,2184,0,mem3.2.2.bmp,mem1.3.2.bmp,mem1.3.3.bmp,ACC023,"[3, 0, 0]","[-3, 3, 0]","[-3, 3, 3]",non-match,1.0042180842186395,3,0.6825040797223779,0.31951639340265686,0.46354695937334556,4th,3rd,3rd,1.326247213500511,0.33485573526849355,0.45062652593370495
mem,resp,1321,1,mem3.1.2.bmp,mem2.3.1.bmp,mem3.1.2.bmp,ACC023,"[3, -3, 0]","[0, 3, -3]","[3, -3, 0]",match,1.2928932188134525,,0.023303952085872326,-1.8348821906339172,0.573796819040403,3rd,1st,3rd,0.2814812163593199,-1.246878749335321,0.45062652593370495
mem,resp,1168,0,mem2.3.1.bmp,mem3.1.1.bmp,mem2.2.1.bmp,ACC023,"[0, 3, -3]","[3, -3, -3]","[0, 0, -3]",non-match,1.3030765749413242,4,0.21307959147879835,-0.256132672051786,0.4912594192074794,3rd,2nd,3rd,0.2814812163593199,-0.345444972785282,0.45062652593370495
mem,resp,1146,1,mem1.2.1.bmp,mem3.1.2.bmp,mem3.1.2.bmp,ACC023,"[-3, 0, -3]","[3, -3, 0]","[3, -3, 0]",match,1.2928932188134525,,-0.8632704005466509,-0.4171061420384661,0.38376336679896866,1st,2nd,3rd,-1.1857962694998232,-0.345444972785282,0.45062652593370495
mem,resp,1818,1,mem1.2.3.bmp,mem3.3.3.bmp,mem3.2.1.bmp,ACC023,"[-3, 0, 3]","[3, 3, 3]","[3, 0, -3]",non-match,0.5380061947043713,1,-0.9573654658167209,0.26226020273589445,-0.014933578470038886,1st,3rd,2nd,-1.1857962694998232,0.33485573526849355,-0.3508139934912868
mem,resp,1388,1,mem1.1.2.bmp,mem1.2.2.bmp,mem1.1.2.bmp,ACC023,"[-3, -3, 0]","[-3, 0, 0]","[-3, -3, 0]",match,1.7113248654051871,,0.0891143319389772,-0.05276737457047182,-0.16451137926720127,3rd,2nd,2nd,0.2814812163593199,-0.345444972785282,-0.3508139934912868
mem,resp,1939,1,mem3.2.2.bmp,mem1.3.2.bmp,mem1.3.2.bmp,ACC023,"[3, 0, 0]","[-3, 3, 0]","[-3, 3, 0]",match,1.3545027756320973,,-0.08190145031792943,-0.012981455709745194,-0.1347921391010691,2nd,3rd,2nd,-0.4181283601389357,0.33485573526849355,-0.3508139934912868
mem,resp,1327,0,mem2.1.2.bmp,mem1.1.3.bmp,mem3.1.1.bmp,ACC023,"[0, -3, 0]","[-3, -3, 3]","[3, -3, -3]",non-match,0.7752551286084112,2,-1.5805477216491781,0.6151316506023219,-0.204939135450448,1st,3rd,2nd,-1.1857962694998232,0.33485573526849355,-0.3508139934912868
mem,resp,1791,0,mem2.2.3.bmp,mem2.3.3.bmp,mem3.1.3.bmp,ACC023,"[0, 0, 3]","[0, 3, 3]","[3, -3, 3]",non-match,0.9462544851682343,3,-1.231580200231242,-1.6300610232862838,-0.22163450908487628,1st,1st,2nd,-1.1857962694998232,-1.246878749335321,-0.3508139934912868
mem,resp,1491,1,mem3.2.1.bmp,mem3.3.1.bmp,mem3.3.3.bmp,ACC023,"[3, 0, -3]","[3, 3, -3]","[3, 3, 3]",non-match,0.7771525064424715,2,0.2621579920347739,-1.0119065924506438,-0.164961919220795,3rd,1st,2nd,0.2814812163593199,-1.246878749335321,-0.3508139934912868
mem,resp,1067,1,mem2.1.1.bmp,mem1.2.1.bmp,mem2.2.2.bmp,ACC023,"[0, -3, -3]","[-3, 0, -3]","[0, 0, 0]",non-match,1.1835034190722742,4,-0.4297619831018706,-0.6222976801479264,0.061976530185079405,2nd,2nd,2nd,-0.4181283601389357,-0.345444972785282,-0.3508139934912868
mem,resp,1245,1,mem2.3.2.bmp,mem1.3.3.bmp,mem1.3.3.bmp,ACC023,"[0, 3, 0]","[-3, 3, 3]","[-3, 3, 3]",match,1.591751709536137,,-1.0918593588449874,-2.644549166093509,0.003509740334502569,1st,1st,2nd,-1.1857962694998232,-1.246878749335321,-0.3508139934912868
mem,resp,2021,0,mem1.3.2.bmp,mem3.1.3.bmp,mem3.1.3.bmp,ACC023,"[-3, 3, 0]","[3, -3, 3]","[3, -3, 3]",match,1.1339745962155614,,1.0062570196671072,-0.016035129947759144,0.10464840820891713,4th,2nd,2nd,1.326247213500511,-0.345444972785282,-0.3508139934912868
mem,resp,1037,0,mem3.1.2.bmp,mem2.1.3.bmp,mem3.2.2.bmp,ACC023,"[3, -3, 0]","[0, -3, 3]","[3, 0, 0]",non-match,1.2113248654051871,4,-1.3030595255668278,-0.36282071942171845,-0.07569280607008222,1st,2nd,2nd,-1.1857962694998232,-0.345444972785282,-0.3508139934912868
mem,resp,1201,1,mem1.1.1.bmp,mem2.1.2.bmp,mem1.1.1.bmp,ACC023,"[-3, -3, -3]","[0, -3, 0]","[-3, -3, -3]",match,1.591751709536137,,-0.9572425487724245,-0.9153546595125824,0.07647219571834726,1st,1st,2nd,-1.1857962694998232,-1.246878749335321,-0.3508139934912868
mem,resp,2238,0,mem3.3.1.bmp,mem2.3.1.bmp,mem2.3.1.bmp,ACC023,"[3, 3, -3]","[0, 3, -3]","[0, 3, -3]",match,1.7113248654051871,,-1.3273092562281996,-1.737247923797469,0.3050491609868771,1st,1st,3rd,-1.1857962694998232,-1.246878749335321,0.45062652593370495
mem,resp,1204,0,mem3.1.3.bmp,mem1.2.3.bmp,mem3.1.3.bmp,ACC023,"[3, -3, 3]","[-3, 0, 3]","[3, -3, 3]",match,1.3545027756320973,,0.345214922713461,-1.1691003707841034,0.16818298596367595,3rd,1st,2nd,0.2814812163593199,-1.246878749335321,-0.3508139934912868
mem,resp,1384,1,mem3.3.3.bmp,mem3.3.2.bmp,mem2.3.3.bmp,ACC023,"[3, 3, 3]","[3, 3, 0]","[0, 3, 3]",non-match,1.3030765749413242,4,1.3572099896863716,0.32938500627113976,0.3482099406931345,4th,3rd,3rd,1.326247213500511,0.33485573526849355,0.45062652593370495
mem,resp,1322,1,mem2.1.3.bmp,mem2.2.1.bmp,mem1.3.3.bmp,ACC023,"[0, -3, 3]","[0, 0, -3]","[-3, 3, 3]",non-match,0.6473959944455496,1,1.7752137269591124,0.24990318256894056,0.29258670722537605,4th,3rd,3rd,1.326247213500511,0.33485573526849355,0.45062652593370495
mem,resp,1498,0,mem3.2.3.bmp,mem1.1.2.bmp,mem3.1.2.bmp,ACC023,"[3, 0, 3]","[-3, -3, 0]","[3, -3, 0]",non-match,1.0144014403465114,3,-0.7562541000644422,-0.8204776342563542,0.22442680482896982,1st,1st,3rd,-1.1857962694998232,-1.246878749335321,0.45062652593370495
mem,resp,1154,0,mem3.1.1.bmp,mem2.1.1.bmp,mem2.1.1.bmp,ACC023,"[3, -3, -3]","[0, -3, -3]","[0, -3, -3]",match,1.7113248654051871,,-0.3896470906245069,1.89764656583303,0.26514480542872915,2nd,4th,3rd,-0.4181283601389357,1.2619930643557389,0.45062652593370495
mem,resp,1161,1,mem1.3.1.bmp,mem3.3.2.bmp,mem3.1.3.bmp,ACC023,"[-3, 3, -3]","[3, 3, 0]","[3, -3, 3]",non-match,0.3545027756320972,1,-0.013049952124449267,-1.037028687546265,0.1706878343815215,3rd,1st,3rd,0.2814812163593199,-1.246878749335321,0.45062652593370495
mem,resp,1519,0,mem2.2.1.bmp,mem2.3.1.bmp,mem3.2.1.bmp,ACC023,"[0, 0, -3]","[0, 3, -3]","[3, 0, -3]",non-match,1.3030765749413242,4,-1.1065374066931741,-1.3431350759135179,0.22988019564388815,1st,1st,3rd,-1.1857962694998232,-1.246878749335321,0.45062652593370495
mem,resp,1266,1,mem2.2.2.bmp,mem2.3.3.bmp,mem3.3.1.bmp,ACC023,"[0, 0, 0]","[0, 3, 3]","[3, 3, -3]",non-match,0.8545027756320972,2,0.2692079158192032,-1.1255654648517552,0.2254711452486921,3rd,1st,3rd,0.2814812163593199,-1.246878749335321,0.45062652593370495
mem,resp,2282,0,mem1.2.2.bmp,mem3.2.2.bmp,mem2.3.2.bmp,ACC023,"[-3, 0, 0]","[3, 0, 0]","[0, 3, 0]",non-match,1.1835034190722742,4,-2.0296199489761917,-0.4729075734375431,0.26304067021685346,1st,2nd,3rd,-1.1857962694998232,-0.345444972785282,0.45062652593370495
mem,resp,1403,1,mem1.3.3.bmp,mem2.1.3.bmp,mem1.1.2.bmp,ACC023,"[-3, 3, 3]","[0, -3, 3]","[-3, -3, 0]",non-match,0.9462544851682343,3,-0.8585151559263517,-0.7283781051229268,0.26995214331218603,1st,1st,3rd,-1.1857962694998232,-1.246878749335321,0.45062652593370495
mem,resp,1169,1,mem3.3.2.bmp,mem3.1.2.bmp,mem1.1.1.bmp,ACC023,"[3, 3, 0]","[3, -3, 0]","[-3, -3, -3]",non-match,0.4884773718476586,1,-1.0742656553962748,-0.57850349975863,0.2499792971522414,1st,2nd,3rd,-1.1857962694998232,-0.345444972785282,0.45062652593370495
mem,resp,1074,1,mem1.1.3.bmp,mem2.2.3.bmp,mem1.1.3.bmp,ACC023,"[-3, -3, 3]","[0, 0, 3]","[-3, -3, 3]",match,1.591751709536137,,0.45121018843029675,-0.6486678173993106,0.04619740787631706,3rd,2nd,2nd,0.2814812163593199,-0.345444972785282,-0.3508139934912868
mem,resp,1250,1,mem2.3.3.bmp,mem1.3.2.bmp,mem3.2.2.bmp,ACC023,"[0, 3, 3]","[-3, 3, 0]","[3, 0, 0]",non-match,0.8545027756320972,2,-0.19017596723775343,-1.5850515911658818,-0.15938027782810327,2nd,1st,2nd,-0.4181283601389357,-1.246878749335321,-0.3508139934912868
mem,resp,1974,1,mem3.2.1.bmp,mem1.2.3.bmp,mem3.2.1.bmp,ACC023,"[3, 0, -3]","[-3, 0, 3]","[3, 0, -3]",match,1.1835034190722742,,-0.6189382765419184,-1.273829459253863,-0.14283828160314557,2nd,1st,2nd,-0.4181283601389357,-1.246878749335321,-0.3508139934912868
mem,resp,1070,0,mem2.1.1.bmp,mem2.3.2.bmp,mem2.1.2.bmp,ACC023,"[0, -3, -3]","[0, 3, 0]","[0, -3, 0]",non-match,1.1339745962155614,4,-0.6473022668800948,-1.623316975554847,-0.06746794403127901,2nd,1st,2nd,-0.4181283601389357,-1.246878749335321,-0.3508139934912868
mem,resp,2074,0,mem3.3.3.bmp,mem1.1.3.bmp,mem3.3.3.bmp,ACC023,"[3, 3, 3]","[-3, -3, 3]","[3, 3, 3]",match,1.1835034190722742,,0.803820242913972,0.953231414752595,0.13714022487825503,4th,4th,2nd,1.326247213500511,1.2619930643557389,-0.3508139934912868
mem,resp,1341,1,mem1.3.3.bmp,mem3.3.1.bmp,mem3.2.2.bmp,ACC023,"[-3, 3, 3]","[3, 3, -3]","[3, 0, 0]",non-match,0.8846449283495895,2,-0.05470063667446386,-0.5474113192368535,0.13070356666723734,2nd,2nd,2nd,-0.4181283601389357,-0.345444972785282,-0.3508139934912868
mem,resp,1743,1,mem3.1.1.bmp,mem2.2.2.bmp,mem1.2.1.bmp,ACC023,"[3, -3, -3]","[0, 0, 0]","[-3, 0, -3]",non-match,0.9462544851682343,3,0.4771962703323725,-1.5250470228842437,0.08426725430151388,3rd,1st,2nd,0.2814812163593199,-1.246878749335321,-0.3508139934912868
mem,resp,1019,1,mem1.3.1.bmp,mem1.2.2.bmp,mem1.2.2.bmp,ACC023,"[-3, 3, -3]","[-3, 0, 0]","[-3, 0, 0]",match,1.591751709536137,,-0.44002662209373644,-0.06396009865987853,0.1696657186485959,2nd,2nd,2nd,-0.4181283601389357,-0.345444972785282,-0.3508139934912868
mem,resp,1619,1,mem2.3.2.bmp,mem3.3.3.bmp,mem2.3.2.bmp,ACC023,"[0, 3, 0]","[3, 3, 3]","[0, 3, 0]",match,1.591751709536137,,-0.8108571462798418,-0.3978583293543682,0.34990780513536385,1st,2nd,3rd,-1.1857962694998232,-0.345444972785282,0.45062652593370495
mem,resp,1357,1,mem3.3.1.bmp,mem3.1.3.bmp,mem3.1.3.bmp,ACC023,"[3, 3, -3]","[3, -3, 3]","[3, -3, 3]",match,1.1835034190722742,,-1.404405854545927,-0.6272647492418593,0.3516643973911549,1st,2nd,3rd,-1.1857962694998232,-0.345444972785282,0.45062652593370495
mem,resp,769,1,mem2.2.2.bmp,mem2.1.2.bmp,mem2.1.2.bmp,ACC023,"[0, 0, 0]","[0, -3, 0]","[0, -3, 0]",match,1.7113248654051871,,0.8228860020603459,-0.895056623113092,0.4088415734084743,4th,1st,3rd,1.326247213500511,-1.246878749335321,0.45062652593370495
mem,resp,733,1,mem1.1.3.bmp,mem1.1.1.bmp,mem1.3.3.bmp,ACC023,"[-3, -3, 3]","[-3, -3, -3]","[-3, 3, 3]",non-match,0.6061531498826483,1,0.7908825833384978,0.37538011550259653,0.5788304500810428,4th,3rd,3rd,1.326247213500511,0.33485573526849355,0.45062652593370495
mem,resp,914,1,mem2.3.3.bmp,mem1.3.1.bmp,mem3.1.3.bmp,ACC023,"[0, 3, 3]","[-3, 3, -3]","[3, -3, 3]",non-match,0.3545027756320972,1,0.6077571247089272,-0.7712608866260321,0.499114621072637,3rd,1st,3rd,0.2814812163593199,-1.246878749335321,0.45062652593370495
mem,resp,1404,0,mem2.1.2.bmp,mem2.2.2.bmp,mem1.2.1.bmp,ACC023,"[0, -3, 0]","[0, 0, 0]","[-3, 0, -3]",non-match,1.091751709536137,4,-1.2781776354416636,-0.9671666262649635,0.5261190674428312,1st,1st,3rd,-1.1857962694998232,-1.246878749335321,0.45062652593370495
mem,resp,678,1,mem2.3.2.bmp,mem2.2.1.bmp,mem1.2.3.bmp,ACC023,"[0, 3, 0]","[0, 0, -3]","[-3, 0, 3]",non-match,0.8545027756320972,2,0.9237282260590437,0.8361626019542902,0.44486363347027463,4th,4th,3rd,1.326247213500511,1.2619930643557389,0.45062652593370495
mem,resp,1333,0,mem3.3.2.bmp,mem1.3.3.bmp,mem3.2.1.bmp,ACC023,"[3, 3, 0]","[-3, 3, 3]","[3, 0, -3]",non-match,0.7257263057516985,2,-0.9777873751750358,-2.7808266152091115,0.38439325580895023,1st,1st,3rd,-1.1857962694998232,-1.246878749335321,0.45062652593370495
mem,resp,1411,1,mem1.2.2.bmp,mem3.3.1.bmp,mem2.1.3.bmp,ACC023,"[-3, 0, 0]","[3, 3, -3]","[0, -3, 3]",non-match,0.6339745962155614,1,1.0378270556605298,-0.2397056410722336,0.2031756357590115,4th,2nd,3rd,1.326247213500511,-0.345444972785282,0.45062652593370495
mem,resp,1531,0,mem1.1.1.bmp,mem3.1.2.bmp,mem3.1.2.bmp,ACC023,"[-3, -3, -3]","[3, -3, 0]","[3, -3, 0]",match,1.3545027756320973,,-1.0440545679477062,0.5326642045933829,0.17280485568311993,1st,3rd,3rd,-1.1857962694998232,0.33485573526849355,0.45062652593370495
mem,resp,854,1,mem1.3.1.bmp,mem2.2.3.bmp,mem2.2.2.bmp,ACC023,"[-3, 3, -3]","[0, 0, 3]","[0, 0, 0]",non-match,1.2113248654051871,4,0.8997252531745913,-0.029375501909879097,0.043317681171437264,4th,2nd,2nd,1.326247213500511,-0.345444972785282,-0.3508139934912868
mem,resp,968,1,mem3.2.3.bmp,mem1.2.3.bmp,mem1.2.3.bmp,ACC023,"[3, 0, 3]","[-3, 0, 3]","[-3, 0, 3]",match,1.4226497308103743,,-0.6772765998965826,-2.3074104723533146,-0.05565398394278665,2nd,1st,2nd,-0.4181283601389357,-1.246878749335321,-0.3508139934912868
mem,resp,1083,1,mem2.1.3.bmp,mem3.2.2.bmp,mem2.1.3.bmp,ACC023,"[0, -3, 3]","[3, 0, 0]","[0, -3, 3]",match,1.5,,-1.4221989790510463,-2.2430846307300856,0.1180778856594197,1st,1st,2nd,-1.1857962694998232,-1.246878749335321,-0.3508139934912868
mem,resp,1420,1,mem1.3.3.bmp,mem2.3.1.bmp,mem3.1.2.bmp,ACC023,"[-3, 3, 3]","[0, 3, -3]","[3, -3, 0]",non-match,0.42686781502901383,1,-0.5409654668588617,-0.4970853195737626,0.1454260041920852,2nd,2nd,2nd,-0.4181283601389357,-0.345444972785282,-0.3508139934912868
mem,resp,956,1,mem2.1.1.bmp,mem1.2.1.bmp,mem2.1.1.bmp,ACC023,"[0, -3, -3]","[-3, 0, -3]","[0, -3, -3]",match,1.591751709536137,,-0.9545208434272909,-1.456769407555447,0.31631143874987555,1st,1st,3rd,-1.1857962694998232,-1.246878749335321,0.45062652593370495
mem,resp,1060,1,mem2.2.2.bmp,mem3.2.1.bmp,mem2.2.2.bmp,ACC023,"[0, 0, 0]","[3, 0, -3]","[0, 0, 0]",match,1.591751709536137,,-1.5832703870770877,-1.2623134190784877,0.40412564726755346,1st,1st,3rd,-1.1857962694998232,-1.246878749335321,0.45062652593370495
mem,resp,943,1,mem1.2.3.bmp,mem1.1.2.bmp,mem1.3.2.bmp,ACC023,"[-3, 0, 3]","[-3, -3, 0]","[-3, 3, 0]",non-match,1.0144014403465114,3,1.440680677552672,1.9599734722112074,0.572286013413459,4th,4th,3rd,1.326247213500511,1.2619930643557389,0.45062652593370495
mem,resp,1885,0,mem2.2.1.bmp,mem1.2.2.bmp,mem1.2.2.bmp,ACC023,"[0, 0, -3]","[-3, 0, 0]","[-3, 0, 0]",match,1.591751709536137,,-1.5072903790047496,0.47450754055448824,0.35685576081449244,1st,3rd,3rd,-1.1857962694998232,0.33485573526849355,0.45062652593370495
mem,resp,1163,0,mem3.3.3.bmp,mem3.1.3.bmp,mem3.1.3.bmp,ACC023,"[3, 3, 3]","[3, -3, 3]","[3, -3, 3]",match,1.4226497308103743,,-0.9688330893931376,-1.2060779865571194,0.24486304882143206,1st,1st,3rd,-1.1857962694998232,-1.246878749335321,0.45062652593370495
mem,resp,847,1,mem2.2.3.bmp,mem3.1.1.bmp,mem3.1.1.bmp,ACC023,"[0, 0, 3]","[3, -3, -3]","[3, -3, -3]",match,1.2928932188134525,,0.5035277261553042,0.6439543505812777,0.2531601152649403,3rd,3rd,3rd,0.2814812163593199,0.33485573526849355,0.45062652593370495
mem,resp,779,1,mem3.2.1.bmp,mem3.3.2.bmp,mem1.2.3.bmp,ACC023,"[3, 0, -3]","[3, 3, 0]","[-3, 0, 3]",non-match,0.4763966378857265,1,0.8247702336168842,0.8540143643909713,0.3044983879746272,4th,4th,3rd,1.326247213500511,1.2619930643557389,0.45062652593370495
mem,resp,851,1,mem1.2.1.bmp,mem2.1.2.bmp,mem2.3.2.bmp,ACC023,"[-3, 0, -3]","[0, -3, 0]","[0, 3, 0]",non-match,0.9226497308103743,2,-0.2891539824685741,0.6606513125587291,0.4133663490684383,2nd,4th,3rd,-0.4181283601389357,1.2619930643557389,0.45062652593370495
mem,resp,1104,1,mem1.3.2.bmp,mem2.1.1.bmp,mem2.1.1.bmp,ACC023,"[-3, 3, 0]","[0, -3, -3]","[0, -3, -3]",match,1.2928932188134525,,-0.8803130756288713,-0.019832794210430365,0.3185333731925679,1st,2nd,3rd,-1.1857962694998232,-0.345444972785282,0.45062652593370495
mem,resp,1150,1,mem3.1.2.bmp,mem3.2.3.bmp,mem3.1.2.bmp,ACC023,"[3, -3, 0]","[3, 0, 3]","[3, -3, 0]",match,1.591751709536137,,-0.20083942696379706,-0.7027793757999664,0.2701510806426463,2nd,1st,3rd,-0.4181283601389357,-1.246878749335321,0.45062652593370495
mem,resp,883,1,mem1.1.2.bmp,mem2.1.3.bmp,mem2.1.3.bmp,ACC023,"[-3, -3, 0]","[0, -3, 3]","[0, -3, 3]",match,1.591751709536137,,-0.24875885798577452,0.38817354540262894,0.2858726818790482,2nd,3rd,3rd,-0.4181283601389357,0.33485573526849355,0.45062652593370495
mem,resp,1129,1,mem3.2.2.bmp,mem3.3.3.bmp,mem3.2.2.bmp,ACC023,"[3, 0, 0]","[3, 3, 3]","[3, 0, 0]",match,1.591751709536137,,1.0971829654196208,1.74976036237987,0.29141597243982337,4th,4th,3rd,1.326247213500511,1.2619930643557389,0.45062652593370495
mem,resp,975,1,mem3.1.3.bmp,mem1.2.1.bmp,mem3.2.1.bmp,ACC023,"[3, -3, 3]","[-3, 0, -3]","[3, 0, -3]",non-match,0.7771525064424715,2,-0.8568904256058942,-1.5522871371634062,0.16135066303368828,1st,1st,2nd,-1.1857962694998232,-1.246878749335321,-0.3508139934912868
mem,resp,1080,1,mem3.1.1.bmp,mem1.2.2.bmp,mem3.3.2.bmp,ACC023,"[3, -3, -3]","[-3, 0, 0]","[3, 3, 0]",non-match,0.7090055512641944,1,0.731735117913152,-0.05570174275027017,0.11035608408392594,4th,2nd,2nd,1.326247213500511,-0.345444972785282,-0.3508139934912868
mem,resp,914,1,mem3.3.1.bmp,mem1.1.2.bmp,mem2.3.2.bmp,ACC023,"[3, 3, -3]","[-3, -3, 0]","[0, 3, 0]",non-match,0.9462544851682343,3,-0.5712077846907595,-0.8462636521563903,0.10096371162014038,2nd,1st,2nd,-0.4181283601389357,-1.246878749335321,-0.3508139934912868
mem,resp,1179,1,mem2.3.1.bmp,mem1.3.3.bmp,mem2.1.3.bmp,ACC023,"[0, 3, -3]","[-3, 3, 3]","[0, -3, 3]",non-match,0.5380061947043713,1,-0.6247565798591003,-1.0178609420824092,0.10999443063091284,2nd,1st,2nd,-0.4181283601389357,-1.246878749335321,-0.3508139934912868
mem,resp,1214,0,mem2.3.3.bmp,mem3.1.2.bmp,mem1.3.1.bmp,ACC023,"[0, 3, 3]","[3, -3, 0]","[-3, 3, -3]",non-match,0.4884773718476586,1,-0.08275789954272392,0.9166926641768237,-0.1424688641454224,2nd,4th,2nd,-0.4181283601389357,1.2619930643557389,-0.3508139934912868
mem,resp,1017,1,mem1.3.2.bmp,mem2.2.2.bmp,mem2.2.3.bmp,ACC023,"[-3, 3, 0]","[0, 0, 0]","[0, 0, 3]",non-match,1.2113248654051871,4,-0.27558276818689337,-1.168271355757492,-0.31292525361443985,2nd,1st,2nd,-0.4181283601389357,-1.246878749335321,-0.3508139934912868
mem,resp,1345,1,mem3.1.3.bmp,mem3.2.3.bmp,mem3.2.3.bmp,ACC023,"[3, -3, 3]","[3, 0, 3]","[3, 0, 3]",match,1.7113248654051871,,-0.21860013641185877,0.7222762095406003,-0.17080298440646519,2nd,4th,2nd,-0.4181283601389357,1.2619930643557389,-0.3508139934912868
mem,resp,1243,0,mem3.2.2.bmp,mem2.1.3.bmp,mem3.2.2.bmp,ACC023,"[3, 0, 0]","[0, -3, 3]","[3, 0, 0]",match,1.5,,-0.42536050212791127,-1.2017157633615347,-0.2758333889803928,2nd,1st,2nd,-0.4181283601389357,-1.246878749335321,-0.3508139934912868
mem,resp,777,0,mem3.3.3.bmp,mem1.3.1.bmp,mem3.3.3.bmp,ACC023,"[3, 3, 3]","[-3, 3, -3]","[3, 3, 3]",match,1.1835034190722742,,-0.9918395269496245,-1.126063262924306,-0.37407860076940247,1st,1st,2nd,-1.1857962694998232,-1.246878749335321,-0.3508139934912868
mem,resp,980,1,mem1.2.3.bmp,mem3.3.1.bmp,mem3.3.1.bmp,ACC023,"[-3, 0, 3]","[3, 3, -3]","[3, 3, -3]",match,1.1339745962155614,,0.0006039562159327477,0.2313510766339033,-0.3733789138237956,3rd,3rd,2nd,0.2814812163593199,0.33485573526849355,-0.3508139934912868
mem,resp,1024,1,mem2.2.1.bmp,mem3.2.1.bmp,mem2.2.1.bmp,ACC023,"[0, 0, -3]","[3, 0, -3]","[0, 0, -3]",match,1.7113248654051871,,-1.6767022031260226,-0.8962979392058802,-0.47817342688060493,1st,1st,2nd,-1.1857962694998232,-1.246878749335321,-0.3508139934912868
mem,resp,899,1,mem1.3.3.bmp,mem2.3.3.bmp,mem2.1.1.bmp,ACC023,"[-3, 3, 3]","[0, 3, 3]","[0, -3, -3]",non-match,0.3174780152878355,1,-0.596109953526218,-0.4252276999613794,-0.5521529415051828,2nd,2nd,2nd,-0.4181283601389357,-0.345444972785282,-0.3508139934912868
mem,resp,731,0,mem2.3.2.bmp,mem3.1.1.bmp,mem3.2.2.bmp,ACC023,"[0, 3, 0]","[3, -3, -3]","[3, 0, 0]",non-match,1.1835034190722742,4,0.18843148336814805,0.4127603666630563,-0.5165520842605401,3rd,3rd,2nd,0.2814812163593199,0.33485573526849355,-0.3508139934912868
mem,resp,663,1,mem1.2.2.bmp,mem2.2.3.bmp,mem1.2.2.bmp,ACC023,"[-3, 0, 0]","[0, 0, 3]","[-3, 0, 0]",match,1.591751709536137,,0.4102498282046825,0.853642869148028,-0.5799662931195882,3rd,4th,2nd,0.2814812163593199,1.2619930643557389,-0.3508139934912868
mem,resp,896,1,mem3.1.2.bmp,mem1.1.1.bmp,mem1.1.1.bmp,ACC023,"[3, -3, 0]","[-3, -3, -3]","[-3, -3, -3]",match,1.3545027756320973,,0.22400622352520494,0.27812071735244154,-0.6978501662284073,3rd,3rd,2nd,0.2814812163593199,0.33485573526849355,-0.3508139934912868
mem,resp,1096,1,mem2.1.3.bmp,mem1.1.1.bmp,mem2.1.3.bmp,ACC023,"[0, -3, 3]","[-3, -3, -3]","[0, -3, 3]",match,1.3545027756320973,,-1.2888989213194515,0.3589008308573328,-0.9459008613586353,1st,3rd,2nd,-1.1857962694998232,0.33485573526849355,-0.3508139934912868
mem,resp,1454,1,mem3.1.2.bmp,mem3.1.1.bmp,mem1.1.2.bmp,ACC023,"[3, -3, 0]","[3, -3, -3]","[-3, -3, 0]",non-match,0.7771525064424715,2,0.3113630305920261,0.15331791778938766,-0.8749360740410643,3rd,3rd,2nd,0.2814812163593199,0.33485573526849355,-0.3508139934912868
mem,resp,938,0,mem2.2.2.bmp,mem3.3.2.bmp,mem1.2.1.bmp,ACC023,"[0, 0, 0]","[3, 3, 0]","[-3, 0, -3]",non-match,0.8846449283495895,2,-1.2278240978370503,-0.8842801375090803,-0.7580265517135667,1st,1st,2nd,-1.1857962694998232,-1.246878749335321,-0.3508139934912868
mem,resp,808,1,mem3.3.3.bmp,mem1.1.3.bmp,mem3.3.1.bmp,ACC023,"[3, 3, 3]","[-3, -3, 3]","[3, 3, -3]",non-match,0.42264973081037427,1,-0.52746464200872,-1.5027199644285925,-0.681766583934809,2nd,1st,2nd,-0.4181283601389357,-1.246878749335321,-0.3508139934912868
mem,resp,1043,0,mem2.1.2.bmp,mem2.3.3.bmp,mem2.3.3.bmp,ACC023,"[0, -3, 0]","[0, 3, 3]","[0, 3, 3]",match,1.3545027756320973,,-0.5901922091043743,-0.6594611702200703,-0.6512752317534807,2nd,2nd,2nd,-0.4181283601389357,-0.345444972785282,-0.3508139934912868
mem,resp,1411,0,mem2.2.3.bmp,mem2.2.1.bmp,mem3.1.2.bmp,ACC023,"[0, 0, 3]","[0, 0, -3]","[3, -3, 0]",non-match,1.0,3,-1.7714324538180897,-1.791445265530709,-0.7688741446956595,1st,1st,2nd,-1.1857962694998232,-1.246878749335321,-0.3508139934912868
mem,resp,753,1,mem2.3.2.bmp,mem2.3.1.bmp,mem1.3.1.bmp,ACC023,"[0, 3, 0]","[0, 3, -3]","[-3, 3, -3]",non-match,1.3030765749413242,4,0.6953618586905185,-0.14818398417284037,-0.945519444422017,4th,2nd,2nd,1.326247213500511,-0.345444972785282,-0.3508139934912868
mem,resp,1008,1,mem1.3.2.bmp,mem3.2.1.bmp,mem1.3.2.bmp,ACC023,"[-3, 3, 0]","[3, 0, -3]","[-3, 3, 0]",match,1.2928932188134525,,-1.0231716582974852,-0.6821691640070504,-0.8544443273318382,1st,1st,2nd,-1.1857962694998232,-1.246878749335321,-0.3508139934912868
mem,resp,1034,1,mem3.3.1.bmp,mem2.1.3.bmp,mem1.1.1.bmp,ACC023,"[3, 3, -3]","[0, -3, 3]","[-3, -3, -3]",non-match,0.5380061947043713,1,0.45972443720088335,0.6760146121670085,-0.8820268736929684,3rd,4th,2nd,0.2814812163593199,1.2619930643557389,-0.3508139934912868
mem,resp,957,1,mem1.3.3.bmp,mem1.2.2.bmp,mem1.2.2.bmp,ACC023,"[-3, 3, 3]","[-3, 0, 0]","[-3, 0, 0]",match,1.591751709536137,,-0.9783181394284751,-1.3235731304059026,-1.0229389003199847,1st,1st,2nd,-1.1857962694998232,-1.246878749335321,-0.3508139934912868
mem,resp,821,1,mem1.2.1.bmp,mem2.3.2.bmp,mem2.3.1.bmp,ACC023,"[-3, 0, -3]","[0, 3, 0]","[0, 3, -3]",non-match,1.3030765749413242,4,0.8703784186688713,1.0727671447658114,-1.190022993024132,4th,4th,1st,1.326247213500511,1.2619930643557389,-1.3393860315696096
mem,resp,963,1,mem1.1.3.bmp,mem1.1.2.bmp,mem1.1.3.bmp,ACC023,"[-3, -3, 3]","[-3, -3, 0]","[-3, -3, 3]",match,1.7113248654051871,,-0.8089840712428463,0.6044006578948389,-1.1851876548253228,1st,3rd,1st,-1.1857962694998232,0.33485573526849355,-1.3393860315696096
mem,resp,937,1,mem3.3.2.bmp,mem3.2.2.bmp,mem3.2.2.bmp,ACC023,"[3, 3, 0]","[3, 0, 0]","[3, 0, 0]",match,1.7113248654051871,,-1.138080239810618,-0.7396185988360616,-1.234140710655165,1st,1st,1st,-1.1857962694998232,-1.246878749335321,-1.3393860315696096
mem,resp,690,1,mem2.1.1.bmp,mem3.1.3.bmp,mem3.1.3.bmp,ACC023,"[0, -3, -3]","[3, -3, 3]","[3, -3, 3]",match,1.3545027756320973,,-0.028973040002239707,0.49065764376474874,-1.3694421653057374,3rd,3rd,1st,0.2814812163593199,0.33485573526849355,-1.3393860315696096
mem,resp,804,0,mem1.3.1.bmp,mem1.3.2.bmp,mem1.3.1.bmp,ACC023,"[-3, 3, -3]","[-3, 3, 0]","[-3, 3, -3]",match,1.7113248654051871,,0.021666859371800556,-0.6144080152197116,-1.1946166540576064,3rd,2nd,1st,0.2814812163593199,-0.345444972785282,-1.3393860315696096
mem,resp,1211,1,mem1.1.1.bmp,mem3.2.3.bmp,mem2.1.3.bmp,ACC023,"[-3, -3, -3]","[3, 0, 3]","[0, -3, 3]",non-match,0.9462544851682343,3,0.7149838723534707,0.4291178741681444,-1.1258851265419363,4th,3rd,1st,1.326247213500511,0.33485573526849355,-1.3393860315696096
mem,resp,1077,0,mem2.3.1.bmp,mem1.3.3.bmp,mem2.3.1.bmp,ACC023,"[0, 3, -3]","[-3, 3, 3]","[0, 3, -3]",match,1.3545027756320973,,2.2190773644433244,0.478131868135418,-1.0455518685069636,4th,3rd,1st,1.326247213500511,0.33485573526849355,-1.3393860315696096
mem,resp,638,1,mem3.2.1.bmp,mem2.1.1.bmp,mem3.2.1.bmp,ACC023,"[3, 0, -3]","[0, -3, -3]","[3, 0, -3]",match,1.591751709536137,,0.8780429540215905,-0.39871179663933326,-1.2393016039694953,4th,2nd,1st,1.326247213500511,-0.345444972785282,-1.3393860315696096
mem,resp,1054,1,mem3.1.1.bmp,mem2.2.2.bmp,mem3.3.2.bmp,ACC023,"[3, -3, -3]","[0, 0, 0]","[3, 3, 0]",non-match,0.9462544851682343,3,-1.163329128967488,-0.06596034232894579,-1.1350962471996329,1st,2nd,1st,-1.1857962694998232,-0.345444972785282,-1.3393860315696096
mem,resp,967,1,mem3.1.3.bmp,mem2.1.2.bmp,mem3.3.1.bmp,ACC023,"[3, -3, 3]","[0, -3, 0]","[3, 3, -3]",non-match,0.4763966378857265,1,-0.8969896185115199,-0.3948791485197035,-1.1728638644126093,1st,2nd,1st,-1.1857962694998232,-0.345444972785282,-1.3393860315696096
mem,resp,920,0,mem2.3.3.bmp,mem3.3.3.bmp,mem2.3.3.bmp,ACC023,"[0, 3, 3]","[3, 3, 3]","[0, 3, 3]",match,1.7113248654051871,,-1.403896152109271,-0.3729652605207218,-1.1713451917320719,1st,2nd,1st,-1.1857962694998232,-0.345444972785282,-1.3393860315696096
mem,resp,683,1,mem1.2.3.bmp,mem2.2.3.bmp,mem3.1.2.bmp,ACC023,"[-3, 0, 3]","[0, 0, 3]","[3, -3, 0]",non-match,0.7928932188134524,2,1.6548412995133335,1.7673073765514884,-1.1072367928994837,4th,4th,1st,1.326247213500511,1.2619930643557389,-1.3393860315696096
mem,resp,1036,1,mem1.2.2.bmp,mem3.3.2.bmp,mem3.3.2.bmp,ACC023,"[-3, 0, 0]","[3, 3, 0]","[3, 3, 0]",match,1.3545027756320973,,-1.6377802917014554,-0.6634333928229793,-1.3282673111358791,1st,1st,1st,-1.1857962694998232,-1.246878749335321,-1.3393860315696096
mem,resp,920,1,mem2.2.1.bmp,mem1.3.3.bmp,mem2.2.1.bmp,ACC023,"[0, 0, -3]","[-3, 3, 3]","[0, 0, -3]",match,1.2928932188134525,,0.009571087710651061,1.3573002379700458,-1.1022399747810059,3rd,4th,1st,0.2814812163593199,1.2619930643557389,-1.3393860315696096
mem,resp,1115,1,mem3.2.2.bmp,mem2.3.3.bmp,mem1.1.1.bmp,ACC023,"[3, 0, 0]","[0, 3, 3]","[-3, -3, -3]",non-match,0.42686781502901383,1,0.6754626008175512,0.3890934542508495,-1.0430549530518203,3rd,3rd,1st,0.2814812163593199,0.33485573526849355,-1.3393860315696096
mem,resp,1473,1,mem3.2.3.bmp,mem1.3.1.bmp,mem2.1.1.bmp,ACC023,"[3, 0, 3]","[-3, 3, -3]","[0, -3, -3]",non-match,0.6473959944455496,1,-0.6175283944782245,-0.19369251237794624,-1.217111017984345,2nd,2nd,1st,-0.4181283601389357,-0.345444972785282,-1.3393860315696096
mem,resp,797,1,mem1.1.2.bmp,mem1.2.2.bmp,mem2.3.2.bmp,ACC023,"[-3, -3, 0]","[-3, 0, 0]","[0, 3, 0]",non-match,0.9462544851682343,3,-1.183883569743107,-0.8871561576131652,-1.3071451993235388,1st,1st,1st,-1.1857962694998232,-1.246878749335321,-1.3393860315696096
mem,resp,738,1,mem1.3.2.bmp,mem2.1.3.bmp,mem3.1.1.bmp,ACC023,"[-3, 3, 0]","[0, -3, 3]","[3, -3, -3]",non-match,0.4884773718476586,1,1.2236949838363098,0.2976338242851432,-1.09633956342652,4th,3rd,1st,1.326247213500511,0.33485573526849355,-1.3393860315696096
mem,resp,1092,0,mem3.2.2.bmp,mem1.2.1.bmp,mem2.1.2.bmp,ACC023,"[3, 0, 0]","[-3, 0, -3]","[0, -3, 0]",non-match,1.091751709536137,4,0.058167908027803465,0.23674486548783555,-0.9857660718769083,3rd,3rd,2nd,0.2814812163593199,0.33485573526849355,-0.3508139934912868
mem,resp,1206,0,mem1.1.1.bmp,mem2.1.1.bmp,mem2.2.3.bmp,ACC023,"[-3, -3, -3]","[0, -3, -3]","[0, 0, 3]",non-match,0.6473959944455496,1,0.06156319856930548,0.48643953462435835,-0.9619506018283401,3rd,3rd,2nd,0.2814812163593199,0.33485573526849355,-0.3508139934912868
mem,resp,1212,0,mem2.2.1.bmp,mem2.3.2.bmp,mem2.2.1.bmp,ACC023,"[0, 0, -3]","[0, 3, 0]","[0, 0, -3]",match,1.591751709536137,,-0.7398385303140661,-1.479119826759232,-1.0662419515279669,2nd,1st,1st,-0.4181283601389357,-1.246878749335321,-1.3393860315696096
mem,resp,814,1,mem2.3.3.bmp,mem1.1.2.bmp,mem1.1.2.bmp,ACC023,"[0, 3, 3]","[-3, -3, 0]","[-3, -3, 0]",match,1.2928932188134525,,-0.867094642010475,-0.5043142060799438,-0.8571158742357496,1st,2nd,2nd,-1.1857962694998232,-0.345444972785282,-0.3508139934912868
mem,resp,929,1,mem2.2.2.bmp,mem1.3.2.bmp,mem1.3.2.bmp,ACC023,"[0, 0, 0]","[-3, 3, 0]","[-3, 3, 0]",match,1.591751709536137,,-0.6818291611750912,-0.29915654122880886,-0.9445724916297487,2nd,2nd,2nd,-0.4181283601389357,-0.345444972785282,-0.3508139934912868
mem,resp,1114,1,mem1.1.3.bmp,mem3.2.1.bmp,mem3.2.1.bmp,ACC023,"[-3, -3, 3]","[3, 0, -3]","[3, 0, -3]",match,1.1339745962155614,,-1.3785362158984948,-1.837779830102185,-0.8186310791789485,1st,1st,2nd,-1.1857962694998232,-1.246878749335321,-0.3508139934912868
mem,resp,1078,1,mem2.2.3.bmp,mem2.3.1.bmp,mem1.3.1.bmp,ACC023,"[0, 0, 3]","[0, 3, -3]","[-3, 3, -3]",non-match,1.0042180842186395,3,0.008513178914571078,1.8263252543008184,-0.8098545655313996,3rd,4th,2nd,0.2814812163593199,1.2619930643557389,-0.3508139934912868
mem,resp,700,1,mem2.3.2.bmp,mem3.3.3.bmp,mem2.1.1.bmp,ACC023,"[0, 3, 0]","[3, 3, 3]","[0, -3, -3]",non-match,0.4884773718476586,1,2.884627325827814,1.367253422924478,-1.0562455571537894,4th,4th,1st,1.326247213500511,1.2619930643557389,-1.3393860315696096
mem,resp,875,1,mem3.3.1.bmp,mem3.2.3.bmp,mem3.2.2.bmp,ACC023,"[3, 3, -3]","[3, 0, 3]","[3, 0, 0]",non-match,1.3030765749413242,4,-0.7138304359997639,0.048560035314741276,-1.064148232387609,2nd,3rd,1st,-0.4181283601389357,0.33485573526849355,-1.3393860315696096
mem,resp,604,1,mem2.1.2.bmp,mem3.1.2.bmp,mem2.1.2.bmp,ACC023,"[0, -3, 0]","[3, -3, 0]","[0, -3, 0]",match,1.7113248654051871,,0.8996505450976208,2.210620035436599,-1.0105443877113236,4th,4th,2nd,1.326247213500511,1.2619930643557389,-0.3508139934912868
mem,resp,1307,1,mem2.1.3.bmp,mem3.1.1.bmp,mem3.1.1.bmp,ACC023,"[0, -3, 3]","[3, -3, -3]","[3, -3, -3]",match,1.3545027756320973,,-0.6894072220445607,-1.3891463929437842,-1.027647734891431,2nd,1st,1st,-0.4181283601389357,-1.246878749335321,-1.3393860315696096
mem,resp,881,1,mem3.1.2.bmp,mem2.1.1.bmp,mem2.1.1.bmp,ACC023,"[3, -3, 0]","[0, -3, -3]","[0, -3, -3]",match,1.591751709536137,,-0.04303278017707631,-0.4621204538516146,-1.0106560888260427,3rd,2nd,2nd,0.2814812163593199,-0.345444972785282,-0.3508139934912868
mem,resp,794,0,mem3.2.1.bmp,mem1.2.2.bmp,mem1.1.2.bmp,ACC023,"[3, 0, -3]","[-3, 0, 0]","[-3, -3, 0]",non-match,1.0042180842186395,3,0.14965618629393482,-0.24962381440474132,-1.0457469522349494,3rd,2nd,1st,0.2814812163593199,-0.345444972785282,-1.3393860315696096
mem,resp,1068,1,mem2.1.2.bmp,mem1.3.3.bmp,mem2.1.2.bmp,ACC023,"[0, -3, 0]","[-3, 3, 3]","[0, -3, 0]",match,1.2928932188134525,,0.13509351055154223,-1.0693733526183395,-1.3215135172363124,3rd,1st,1st,0.2814812163593199,-1.246878749335321,-1.3393860315696096
mem,resp,943,1,mem3.2.2.bmp,mem3.1.3.bmp,mem3.1.1.bmp,ACC023,"[3, 0, 0]","[3, -3, 3]","[3, -3, -3]",non-match,1.0144014403465114,3,1.6447069308984552,-0.18850374003177855,-1.4562520401659917,4th,2nd,1st,1.326247213500511,-0.345444972785282,-1.3393860315696096
mem,resp,917,1,mem1.3.2.bmp,mem1.2.3.bmp,mem1.2.3.bmp,ACC023,"[-3, 3, 0]","[-3, 0, 3]","[-3, 0, 3]",match,1.591751709536137,,-0.6378831785377319,-0.14251990337645273,-1.4855595427059487,2nd,2nd,1st,-0.4181283601389357,-0.345444972785282,-1.3393860315696096
mem,resp,848,1,mem2.1.1.bmp,mem3.3.2.bmp,mem3.3.2.bmp,ACC023,"[0, -3, -3]","[3, 3, 0]","[3, 3, 0]",match,1.2928932188134525,,-0.40434670495665787,0.1804846596756964,-1.5947883281925277,2nd,3rd,1st,-0.4181283601389357,0.33485573526849355,-1.3393860315696096
mem,resp,974,1,mem2.3.2.bmp,mem3.2.3.bmp,mem3.1.2.bmp,ACC023,"[0, 3, 0]","[3, 0, 3]","[3, -3, 0]",non-match,0.9462544851682343,3,-0.4205070691282487,-0.5627038459472055,-1.5856387168213566,2nd,2nd,1st,-0.4181283601389357,-0.345444972785282,-1.3393860315696096
mem,resp,754,1,mem1.1.2.bmp,mem1.1.3.bmp,mem1.1.3.bmp,ACC023,"[-3, -3, 0]","[-3, -3, 3]","[-3, -3, 3]",match,1.7113248654051871,,0.850020195111911,-0.7002923012198553,-1.5526645808003927,4th,1st,1st,1.326247213500511,-1.246878749335321,-1.3393860315696096
mem,resp,728,0,mem2.3.3.bmp,mem2.1.3.bmp,mem2.3.3.bmp,ACC023,"[0, 3, 3]","[0, -3, 3]","[0, 3, 3]",match,1.4226497308103743,,-0.16289747718965183,0.1810511760387023,-1.4214340924019502,2nd,3rd,1st,-0.4181283601389357,0.33485573526849355,-1.3393860315696096
mem,resp,901,1,mem3.3.2.bmp,mem1.3.2.bmp,mem1.2.1.bmp,ACC023,"[3, 3, 0]","[-3, 3, 0]","[-3, 0, -3]",non-match,0.8846449283495895,2,-0.46678950879142017,-0.7094634303814636,-1.5459781178332452,2nd,1st,1st,-0.4181283601389357,-1.246878749335321,-1.3393860315696096
mem,resp,976,1,mem2.2.2.bmp,mem2.2.3.bmp,mem2.2.3.bmp,ACC023,"[0, 0, 0]","[0, 0, 3]","[0, 0, 3]",match,1.7113248654051871,,-0.6970121983342391,0.11113849228343195,-1.4831401086906109,2nd,3rd,1st,-0.4181283601389357,0.33485573526849355,-1.3393860315696096
mem,resp,1062,0,mem1.2.2.bmp,mem3.2.1.bmp,mem1.2.2.bmp,ACC023,"[-3, 0, 0]","[3, 0, -3]","[-3, 0, 0]",match,1.3545027756320973,,-1.2789293045429546,-1.6627069208846217,-1.4055980581248642,1st,1st,1st,-1.1857962694998232,-1.246878749335321,-1.3393860315696096
mem,resp,814,1,mem3.3.1.bmp,mem1.3.1.bmp,mem1.3.1.bmp,ACC023,"[3, 3, -3]","[-3, 3, -3]","[-3, 3, -3]",match,1.4226497308103743,,0.5861799862229232,-0.5677685644259983,-1.3253824911801644,3rd,2nd,1st,0.2814812163593199,-0.345444972785282,-1.3393860315696096
mem,resp,1169,0,mem3.2.3.bmp,mem3.1.2.bmp,mem3.2.3.bmp,ACC023,"[3, 0, 3]","[3, -3, 0]","[3, 0, 3]",match,1.591751709536137,,-0.30269346172097256,-0.16729735889233974,-1.3654058349148226,2nd,2nd,1st,-0.4181283601389357,-0.345444972785282,-1.3393860315696096
mem,resp,855,1,mem3.1.1.bmp,mem3.3.3.bmp,mem3.1.1.bmp,ACC023,"[3, -3, -3]","[3, 3, 3]","[3, -3, -3]",match,1.1835034190722742,,-0.562004484531627,-0.4417545737580933,-1.590329602328407,2nd,2nd,1st,-0.4181283601389357,-0.345444972785282,-1.3393860315696096
mem,resp,896,1,mem1.2.1.bmp,mem1.1.1.bmp,mem1.2.3.bmp,ACC023,"[-3, 0, -3]","[-3, -3, -3]","[-3, 0, 3]",non-match,0.7771525064424715,2,1.79961879932592,-0.47283462098979767,-1.5712006344914444,4th,2nd,1st,1.326247213500511,-0.345444972785282,-1.3393860315696096
mem,resp,1243,0,mem2.3.1.bmp,mem1.1.2.bmp,mem1.1.2.bmp,ACC023,"[0, 3, -3]","[-3, -3, 0]","[-3, -3, 0]",match,1.2928932188134525,,-1.303568370513631,0.2559505587187539,-1.7347125245731716,1st,3rd,1st,-1.1857962694998232,0.33485573526849355,-1.3393860315696096
mem,resp,1267,1,mem3.1.3.bmp,mem3.3.1.bmp,mem3.1.3.bmp,ACC023,"[3, -3, 3]","[3, 3, -3]","[3, -3, 3]",match,1.1835034190722742,,-0.7110283614456392,-1.1284067488144363,-1.5942950891245198,2nd,1st,1st,-0.4181283601389357,-1.246878749335321,-1.3393860315696096
mem,resp,940,0,mem2.2.1.bmp,mem2.3.3.bmp,mem1.3.1.bmp,ACC023,"[0, 0, -3]","[0, 3, 3]","[-3, 3, -3]",non-match,0.9462544851682343,3,-0.9473264142119215,-0.7067912467740953,-1.439647614916135,1st,1st,1st,-1.1857962694998232,-1.246878749335321,-1.3393860315696096
mem,resp,1024,1,mem3.3.3.bmp,mem2.2.2.bmp,mem3.3.3.bmp,ACC023,"[3, 3, 3]","[0, 0, 0]","[3, 3, 3]",match,1.5,,0.01766597621771701,-1.7120436398477707,-1.4717791477519282,3rd,1st,1st,0.2814812163593199,-1.246878749335321,-1.3393860315696096
mem,resp,1029,1,mem1.1.1.bmp,mem1.2.1.bmp,mem3.2.3.bmp,ACC023,"[-3, -3, -3]","[-3, 0, -3]","[3, 0, 3]",non-match,0.3174780152878355,1,-1.679049186108416,-1.9602303565972474,-1.570380651696495,1st,1st,1st,-1.1857962694998232,-1.246878749335321,-1.3393860315696096
mem,resp,953,1,mem1.2.3.bmp,mem3.3.1.bmp,mem3.3.1.bmp,ACC023,"[-3, 0, 3]","[3, 3, -3]","[3, 3, -3]",match,1.1339745962155614,,0.2876446015351087,-1.3774373723733355,-1.5360037171370147,3rd,1st,1st,0.2814812163593199,-1.246878749335321,-1.3393860315696096
mem,resp,956,1,mem1.1.3.bmp,mem3.3.2.bmp,mem1.1.3.bmp,ACC023,"[-3, -3, 3]","[3, 3, 0]","[-3, -3, 3]",match,1.1339745962155614,,-0.23409804390078495,-0.9890494313846868,-1.5210911688709199,2nd,1st,1st,-0.4181283601389357,-1.246878749335321,-1.3393860315696096
mem,resp,912,0,mem1.3.1.bmp,mem1.2.2.bmp,mem1.2.2.bmp,ACC023,"[-3, 3, -3]","[-3, 0, 0]","[-3, 0, 0]",match,1.591751709536137,,0.4078026553573191,1.3650867560501636,-1.5579106480638436,3rd,4th,1st,0.2814812163593199,1.2619930643557389,-1.3393860315696096
mem,resp,1520,1,mem2.2.3.bmp,mem2.1.1.bmp,mem2.2.3.bmp,ACC023,"[0, 0, 3]","[0, -3, -3]","[0, 0, 3]",match,1.3545027756320973,,-0.1490309203802623,0.32122710400794147,-1.6403718530864435,2nd,3rd,1st,-0.4181283601389357,0.33485573526849355,-1.3393860315696096
mem,resp,962,1,mem1.3.3.bmp,mem2.3.1.bmp,mem1.3.2.bmp,ACC023,"[-3, 3, 3]","[0, 3, -3]","[-3, 3, 0]",non-match,1.3030765749413242,4,-0.43351351476115196,2.214099318835979,-1.568808901446298,2nd,4th,1st,-0.4181283601389357,1.2619930643557389,-1.3393860315696096
mem,resp,464,1,mem1.3.3.bmp,mem1.1.1.bmp,mem1.1.1.bmp,ACC023,"[-3, 3, 3]","[-3, -3, -3]","[-3, -3, -3]",match,1.1835034190722742,,1.3202097198236198,1.3396728164573537,-1.4687221097400414,4th,4th,1st,1.326247213500511,1.2619930643557389,-1.3393860315696096
mem,resp,663,1,mem2.3.2.bmp,mem3.2.1.bmp,mem2.3.3.bmp,ACC023,"[0, 3, 0]","[3, 0, -3]","[0, 3, 3]",non-match,1.0042180842186395,3,1.6671372329563727,1.3114792150744068,-1.3910800871791857,4th,4th,1st,1.326247213500511,1.2619930643557389,-1.3393860315696096
mem,resp,796,1,mem1.3.1.bmp,mem3.1.1.bmp,mem1.1.3.bmp,ACC023,"[-3, 3, -3]","[3, -3, -3]","[-3, -3, 3]",non-match,0.36700683814454815,1,1.645971919323996,0.8562305639643446,-1.3878310605335518,4th,4th,1st,1.326247213500511,1.2619930643557389,-1.3393860315696096
mem,resp,698,0,mem2.2.1.bmp,mem2.1.2.bmp,mem3.3.1.bmp,ACC023,"[0, 0, -3]","[0, -3, 0]","[3, 3, -3]",non-match,0.8846449283495895,2,0.5318440328083854,-0.8585485528245741,-1.2146722002823582,3rd,1st,1st,0.2814812163593199,-1.246878749335321,-1.3393860315696096
mem,resp,729,1,mem3.2.2.bmp,mem1.1.2.bmp,mem2.3.1.bmp,ACC023,"[3, 0, 0]","[-3, -3, 0]","[0, 3, -3]",non-match,0.7928932188134524,2,1.0834022604987152,0.7288734430739149,-1.117338396265076,4th,4th,1st,1.326247213500511,1.2619930643557389,-1.3393860315696096
mem,resp,1224,1,mem3.3.2.bmp,mem1.2.3.bmp,mem1.2.3.bmp,ACC023,"[3, 3, 0]","[-3, 0, 3]","[-3, 0, 3]",match,1.2928932188134525,,0.4210679670452688,1.270919542145643,-1.2105027388302907,3rd,4th,1st,0.2814812163593199,1.2619930643557389,-1.3393860315696096
mem,resp,708,1,mem2.2.2.bmp,mem3.3.3.bmp,mem2.2.2.bmp,ACC023,"[0, 0, 0]","[3, 3, 3]","[0, 0, 0]",match,1.5,,0.003615592159789888,0.04513106203346386,-1.1250662073262554,3rd,3rd,1st,0.2814812163593199,0.33485573526849355,-1.3393860315696096
mem,resp,1093,1,mem1.2.1.bmp,mem2.1.3.bmp,mem1.1.1.bmp,ACC023,"[-3, 0, -3]","[0, -3, 3]","[-3, -3, -3]",non-match,1.0658276410372842,3,-1.0175821661619815,-0.5433334509389224,-1.3036548930566005,1st,2nd,1st,-1.1857962694998232,-0.345444972785282,-1.3393860315696096
mem,resp,824,1,mem3.2.3.bmp,mem3.1.2.bmp,mem1.3.1.bmp,ACC023,"[3, 0, 3]","[3, -3, 0]","[-3, 3, -3]",non-match,0.2679491924311228,1,2.7085693269323317,0.2954321180239389,-1.1484950248477277,4th,3rd,1st,1.326247213500511,0.33485573526849355,-1.3393860315696096
mem,resp,727,1,mem3.2.1.bmp,mem3.1.3.bmp,mem3.1.3.bmp,ACC023,"[3, 0, -3]","[3, -3, 3]","[3, -3, 3]",match,1.3545027756320973,,-0.5499155283656993,1.7578189771252224,-1.4663495953845151,2nd,4th,1st,-0.4181283601389357,1.2619930643557389,-1.3393860315696096
mem,resp,729,0,mem1.2.2.bmp,mem2.2.3.bmp,mem2.2.1.bmp,ACC023,"[-3, 0, 0]","[0, 0, 3]","[0, 0, -3]",non-match,1.0144014403465114,3,0.5205001732304011,-0.7102448753450391,-1.5350188137412852,3rd,1st,1st,0.2814812163593199,-1.246878749335321,-1.3393860315696096
mem,resp,629,1,mem2.1.2.bmp,mem2.1.1.bmp,mem2.1.1.bmp,ACC023,"[0, -3, 0]","[0, -3, -3]","[0, -3, -3]",match,1.7113248654051871,,0.42079149902414126,0.21515827090617942,-1.4047910420752219,3rd,3rd,1st,0.2814812163593199,0.33485573526849355,-1.3393860315696096
mem,resp,608,1,mem1.2.2.bmp,mem1.1.3.bmp,mem1.1.3.bmp,ACC023,"[-3, 0, 0]","[-3, -3, 3]","[-3, -3, 3]",match,1.591751709536137,,0.961466970441141,0.6251333687170428,-1.4416004553393207,4th,3rd,1st,1.326247213500511,0.33485573526849355,-1.3393860315696096
mem,resp,1493,1,mem1.2.3.bmp,mem3.1.2.bmp,mem1.2.3.bmp,ACC023,"[-3, 0, 3]","[3, -3, 0]","[-3, 0, 3]",match,1.2928932188134525,,-1.4848464711788978,1.3716827123950497,-1.4458230033645625,1st,4th,1st,-1.1857962694998232,1.2619930643557389,-1.3393860315696096
mem,resp,655,1,mem3.2.2.bmp,mem1.2.1.bmp,mem2.3.3.bmp,ACC023,"[3, 0, 0]","[-3, 0, -3]","[0, 3, 3]",non-match,0.7928932188134524,2,1.5067115293558564,0.23421891995554817,-1.3598552779226525,4th,3rd,1st,1.326247213500511,0.33485573526849355,-1.3393860315696096
mem,resp,1642,1,mem3.2.1.bmp,mem1.1.2.bmp,mem2.1.3.bmp,ACC023,"[3, 0, -3]","[-3, -3, 0]","[0, -3, 3]",non-match,0.8846449283495895,2,-0.898948744949167,-0.609195420532853,-1.4022684060399133,1st,2nd,1st,-1.1857962694998232,-0.345444972785282,-1.3393860315696096
mem,resp,745,1,mem1.3.1.bmp,mem1.3.2.bmp,mem3.2.3.bmp,ACC023,"[-3, 3, -3]","[-3, 3, 0]","[3, 0, 3]",non-match,0.42686781502901383,1,1.5871242949323834,0.9958003827292911,-1.3004903603233897,4th,4th,1st,1.326247213500511,1.2619930643557389,-1.3393860315696096
mem,resp,1191,1,mem3.3.2.bmp,mem3.3.1.bmp,mem3.3.2.bmp,ACC023,"[3, 3, 0]","[3, 3, -3]","[3, 3, 0]",match,1.7113248654051871,,-0.26863960191432174,0.3853992144859338,-1.490958777476034,2nd,3rd,1st,-0.4181283601389357,0.33485573526849355,-1.3393860315696096
mem,resp,935,1,mem3.1.3.bmp,mem3.3.3.bmp,mem2.2.3.bmp,ACC023,"[3, -3, 3]","[3, 3, 3]","[0, 0, 3]",non-match,1.1835034190722742,4,-0.7976445140226236,0.3814696388705553,-1.357633297796119,1st,3rd,1st,-1.1857962694998232,0.33485573526849355,-1.3393860315696096
mem,resp,546,0,mem2.2.2.bmp,mem1.2.2.bmp,mem2.2.2.bmp,ACC023,"[0, 0, 0]","[-3, 0, 0]","[0, 0, 0]",match,1.7113248654051871,,0.7658113568434146,1.3451447359251603,-1.4693004262635347,4th,4th,1st,1.326247213500511,1.2619930643557389,-1.3393860315696096
mem,resp,1152,1,mem2.1.3.bmp,mem1.3.3.bmp,mem2.1.3.bmp,ACC023,"[0, -3, 3]","[-3, 3, 3]","[0, -3, 3]",match,1.3545027756320973,,-0.030415605457538072,0.9420344148584491,-1.4286941201138903,3rd,4th,1st,0.2814812163593199,1.2619930643557389,-1.3393860315696096
mem,resp,1045,1,mem2.3.1.bmp,mem2.3.2.bmp,mem2.3.1.bmp,ACC023,"[0, 3, -3]","[0, 3, 0]","[0, 3, -3]",match,1.7113248654051871,,-0.9530377233516126,-1.1468218645771555,-1.3785903624286027,1st,1st,1st,-1.1857962694998232,-1.246878749335321,-1.3393860315696096
mem,resp,789,1,mem1.3.2.bmp,mem2.3.3.bmp,mem1.3.2.bmp,ACC023,"[-3, 3, 0]","[0, 3, 3]","[-3, 3, 0]",match,1.591751709536137,,0.4502792557808066,-0.3550171814175405,-1.3764584993493312,3rd,2nd,1st,0.2814812163593199,-0.345444972785282,-1.3393860315696096
mem,resp,912,1,mem3.3.1.bmp,mem2.2.3.bmp,mem2.2.3.bmp,ACC023,"[3, 3, -3]","[0, 0, 3]","[0, 0, 3]",match,1.2928932188134525,,-0.22698994296231004,-0.4490929375245831,-1.373884824531513,2nd,2nd,1st,-0.4181283601389357,-0.345444972785282,-1.3393860315696096
mem,resp,1078,1,mem1.2.1.bmp,mem2.2.2.bmp,mem1.1.1.bmp,ACC023,"[-3, 0, -3]","[0, 0, 0]","[-3, -3, -3]",non-match,1.2113248654051871,4,-0.7768091729217179,0.5133252950563628,-1.3310720573507604,1st,3rd,1st,-1.1857962694998232,0.33485573526849355,-1.3393860315696096
mem,resp,920,1,mem1.1.3.bmp,mem3.3.2.bmp,mem3.3.2.bmp,ACC023,"[-3, -3, 3]","[3, 3, 0]","[3, 3, 0]",match,1.1339745962155614,,-0.3267710827249829,-0.41127502720758324,-1.1981285702486117,2nd,2nd,1st,-0.4181283601389357,-0.345444972785282,-1.3393860315696096
mem,resp,904,1,mem2.1.1.bmp,mem3.2.1.bmp,mem3.2.1.bmp,ACC023,"[0, -3, -3]","[3, 0, -3]","[3, 0, -3]",match,1.591751709536137,,-1.5104898253761523,-0.7247305243831056,-1.1215194247569382,1st,1st,1st,-1.1857962694998232,-1.246878749335321,-1.3393860315696096
mem,resp,1069,0,mem3.1.2.bmp,mem1.2.3.bmp,mem1.3.3.bmp,ACC023,"[3, -3, 0]","[-3, 0, 3]","[-3, 3, 3]",non-match,0.8452994616207485,2,-0.14347304313220377,1.2586505369204029,-0.8478924512341846,2nd,4th,2nd,-0.4181283601389357,1.2619930643557389,-0.3508139934912868
mem,resp,579,1,mem3.3.3.bmp,mem2.3.1.bmp,mem3.3.3.bmp,ACC023,"[3, 3, 3]","[0, 3, -3]","[3, 3, 3]",match,1.3545027756320973,,-0.3663109870959405,0.8489192710395493,-0.8266867996829562,2nd,4th,2nd,-0.4181283601389357,1.2619930643557389,-0.3508139934912868
mem,resp,824,0,mem3.2.3.bmp,mem3.1.3.bmp,mem3.2.3.bmp,ACC023,"[3, 0, 3]","[3, -3, 3]","[3, 0, 3]",match,1.7113248654051871,,-1.9626280458186438,-1.513803391729969,-0.6843113740121008,1st,1st,2nd,-1.1857962694998232,-1.246878749335321,-0.3508139934912868
mem,resp,886,1,mem2.2.1.bmp,mem3.1.1.bmp,mem1.2.1.bmp,ACC023,"[0, 0, -3]","[3, -3, -3]","[-3, 0, -3]",non-match,1.0658276410372842,3,0.7981063459221532,1.0486853127040876,-0.5479795221368342,4th,4th,2nd,1.326247213500511,1.2619930643557389,-0.3508139934912868
mem,resp,2079,0,mem1.1.1.bmp,mem2.2.2.bmp,mem1.1.1.bmp,ACC023,"[-3, -3, -3]","[0, 0, 0]","[-3, -3, -3]",match,1.5,,-0.8195671890785846,-0.5948990730318852,-0.35631715717673434,1st,2nd,2nd,-1.1857962694998232,-0.345444972785282,-0.3508139934912868
mem,resp,698,1,mem1.1.2.bmp,mem1.2.3.bmp,mem1.1.2.bmp,ACC023,"[-3, -3, 0]","[-3, 0, 3]","[-3, -3, 0]",match,1.591751709536137,,0.4656184698467904,-0.16919017990857071,-0.28722360686976645,3rd,2nd,2nd,0.2814812163593199,-0.345444972785282,-0.3508139934912868
mem,resp,1115,1,mem2.3.2.bmp,mem2.2.3.bmp,mem2.3.2.bmp,ACC023,"[0, 3, 0]","[0, 0, 3]","[0, 3, 0]",match,1.591751709536137,,-1.5943668826375397,0.14210209324840214,-0.4188215126564197,1st,3rd,2nd,-1.1857962694998232,0.33485573526849355,-0.3508139934912868
mem,resp,958,0,mem1.3.3.bmp,mem2.1.2.bmp,mem1.2.2.bmp,ACC023,"[-3, 3, 3]","[0, -3, 0]","[-3, 0, 0]",non-match,1.1835034190722742,4,0.513770028450336,0.11459478629109626,-0.43629348898826453,3rd,3rd,2nd,0.2814812163593199,0.33485573526849355,-0.3508139934912868
mem,resp,963,1,mem3.1.1.bmp,mem3.2.2.bmp,mem3.1.1.bmp,ACC023,"[3, -3, -3]","[3, 0, 0]","[3, -3, -3]",match,1.591751709536137,,0.04467900226573962,-0.2841812847831144,-0.5307257889626089,3rd,2nd,2nd,0.2814812163593199,-0.345444972785282,-0.3508139934912868
mem,resp,867,1,mem2.3.3.bmp,mem2.3.1.bmp,mem1.1.1.bmp,ACC023,"[0, 3, 3]","[0, 3, -3]","[-3, -3, -3]",non-match,0.4884773718476586,1,2.3332294894204773,1.4162099434124615,-0.42061158349203853,4th,4th,2nd,1.326247213500511,1.2619930643557389,-0.3508139934912868
mem,resp,1776,1,mem2.2.3.bmp,mem2.1.3.bmp,mem2.1.1.bmp,ACC023,"[0, 0, 3]","[0, -3, 3]","[0, -3, -3]",non-match,0.7771525064424715,2,0.530245764348733,0.31153901894735286,-0.3736600036645792,3rd,3rd,2nd,0.2814812163593199,0.33485573526849355,-0.3508139934912868
mem,resp,1727,0,mem1.3.2.bmp,mem3.3.3.bmp,mem3.2.3.bmp,ACC023,"[-3, 3, 0]","[3, 3, 3]","[3, 0, 3]",non-match,1.0042180842186395,3,2.2177608439730236,1.3574466148699553,-0.3229545118810981,4th,4th,2nd,1.326247213500511,1.2619930643557389,-0.3508139934912868
mem,resp,809,0,mem2.2.2.bmp,mem3.2.1.bmp,mem1.2.1.bmp,ACC023,"[0, 0, 0]","[3, 0, -3]","[-3, 0, -3]",non-match,1.0144014403465114,3,-0.7560715289687899,-0.007674793318619668,-0.09910215649118741,1st,3rd,2nd,-1.1857962694998232,0.33485573526849355,-0.3508139934912868
mem,resp,762,1,mem3.1.2.bmp,mem3.1.3.bmp,mem3.1.3.bmp,ACC023,"[3, -3, 0]","[3, -3, 3]","[3, -3, 3]",match,1.7113248654051871,,-0.4241539421590912,-1.2655625864409834,-0.014256519268952264,2nd,1st,2nd,-0.4181283601389357,-1.246878749335321,-0.3508139934912868
mem,resp,654,1,mem2.1.2.bmp,mem3.3.2.bmp,mem2.1.2.bmp,ACC023,"[0, -3, 0]","[3, 3, 0]","[0, -3, 0]",match,1.3545027756320973,,-0.643937591708031,0.24257212098846703,0.22492705452904233,2nd,3rd,3rd,-0.4181283601389357,0.33485573526849355,0.45062652593370495
mem,resp,1267,1,mem3.1.1.bmp,mem1.3.3.bmp,mem1.3.2.bmp,ACC023,"[3, -3, -3]","[-3, 3, 3]","[-3, 3, 0]",non-match,0.8452994616207485,2,1.7623411436707672,1.063535182564047,0.12315322659657221,4th,4th,2nd,1.326247213500511,1.2619930643557389,-0.3508139934912868
mem,resp,1162,0,mem3.2.1.bmp,mem2.1.1.bmp,mem3.2.2.bmp,ACC023,"[3, 0, -3]","[0, -3, -3]","[3, 0, 0]",non-match,1.2113248654051871,4,-1.4301803609911121,-1.4043742828136596,0.053642712531648394,1st,1st,2nd,-1.1857962694998232,-1.246878749335321,-0.3508139934912868
mem,resp,1197,0,mem1.3.1.bmp,mem1.2.2.bmp,mem1.2.3.bmp,ACC023,"[-3, 3, -3]","[-3, 0, 0]","[-3, 0, 3]",non-match,1.0658276410372842,3,-0.7997161275416396,1.1071532775399842,-0.07665644825321725,1st,4th,2nd,-1.1857962694998232,1.2619930643557389,-0.3508139934912868
mem,resp,913,1,mem3.1.3.bmp,mem1.2.1.bmp,mem2.3.3.bmp,ACC023,"[3, -3, 3]","[-3, 0, -3]","[0, 3, 3]",non-match,0.6473959944455496,1,-0.8831840489510089,1.1326261343903077,0.2503008418090048,1st,4th,3rd,-1.1857962694998232,1.2619930643557389,0.45062652593370495
mem,resp,845,1,mem3.3.3.bmp,mem1.1.2.bmp,mem3.3.2.bmp,ACC023,"[3, 3, 3]","[-3, -3, 0]","[3, 3, 0]",non-match,0.8948282844774612,2,1.7012483910357556,1.6291218079234766,0.286248707370991,4th,4th,3rd,1.326247213500511,1.2619930643557389,0.45062652593370495
mem,resp,958,1,mem2.3.2.bmp,mem1.1.3.bmp,mem3.1.1.bmp,ACC023,"[0, 3, 0]","[-3, -3, 3]","[3, -3, -3]",non-match,0.4763966378857265,1,-0.7847145236284458,0.13072684227356135,0.4427070233022206,1st,3rd,3rd,-1.1857962694998232,0.33485573526849355,0.45062652593370495
mem,resp,982,1,mem1.2.3.bmp,mem2.2.1.bmp,mem1.3.3.bmp,ACC023,"[-3, 0, 3]","[0, 0, -3]","[-3, 3, 3]",non-match,1.0042180842186395,3,-0.1832316181933425,0.3877072605663065,0.49001366389294004,2nd,3rd,3rd,-0.4181283601389357,0.33485573526849355,0.45062652593370495
mem,resp,814,1,mem2.3.2.bmp,mem2.2.1.bmp,mem2.3.2.bmp,ACC023,"[0, 3, 0]","[0, 0, -3]","[0, 3, 0]",match,1.591751709536137,,-0.20697399636040956,-0.24496665785951785,0.5799795829218357,2nd,2nd,3rd,-0.4181283601389357,-0.345444972785282,0.45062652593370495
mem,resp,865,1,mem3.2.3.bmp,mem1.2.3.bmp,mem3.2.3.bmp,ACC023,"[3, 0, 3]","[-3, 0, 3]","[3, 0, 3]",match,1.4226497308103743,,0.22508086229527813,0.02357845176999652,0.6761330339614016,3rd,3rd,3rd,0.2814812163593199,0.33485573526849355,0.45062652593370495
mem,resp,959,1,mem1.1.1.bmp,mem2.2.3.bmp,mem1.1.1.bmp,ACC023,"[-3, -3, -3]","[0, 0, 3]","[-3, -3, -3]",match,1.2928932188134525,,-0.6814158784278602,-0.48057113436643745,0.5287168860709558,2nd,2nd,3rd,-0.4181283601389357,-0.345444972785282,0.45062652593370495
mem,resp,954,0,mem1.3.3.bmp,mem3.2.2.bmp,mem2.2.2.bmp,ACC023,"[-3, 3, 3]","[3, 0, 0]","[0, 0, 0]",non-match,1.2113248654051871,4,0.18194711311579687,0.6527398521323299,0.39223171541144325,3rd,3rd,3rd,0.2814812163593199,0.33485573526849355,0.45062652593370495
mem,resp,1158,1,mem1.1.3.bmp,mem2.3.2.bmp,mem2.1.1.bmp,ACC023,"[-3, -3, 3]","[0, 3, 0]","[0, -3, -3]",non-match,0.7090055512641944,1,-0.09980641116649994,0.48888346244755354,0.37744253980068193,2nd,3rd,3rd,-0.4181283601389357,0.33485573526849355,0.45062652593370495
mem,resp,741,0,mem2.1.2.bmp,mem2.3.1.bmp,mem2.3.1.bmp,ACC023,"[0, -3, 0]","[0, 3, -3]","[0, 3, -3]",match,1.3545027756320973,,1.2136593884983715,-0.0832186008558249,0.30671733998083817,4th,2nd,3rd,1.326247213500511,-0.345444972785282,0.45062652593370495
mem,resp,1085,1,mem2.1.3.bmp,mem3.1.3.bmp,mem3.3.3.bmp,ACC023,"[0, -3, 3]","[3, -3, 3]","[3, 3, 3]",non-match,0.7771525064424715,2,-0.9280121074159629,-0.7917917183816104,0.2875341206884824,1st,1st,3rd,-1.1857962694998232,-1.246878749335321,0.45062652593370495
mem,resp,1533,1,mem3.1.2.bmp,mem1.1.1.bmp,mem1.2.3.bmp,ACC023,"[3, -3, 0]","[-3, -3, -3]","[-3, 0, 3]",non-match,0.6473959944455496,1,0.06176785405945262,-0.6751386859467639,0.6505349799730139,3rd,1st,3rd,0.2814812163593199,-1.246878749335321,0.45062652593370495
mem,resp,937,0,mem1.1.2.bmp,mem3.2.1.bmp,mem2.2.1.bmp,ACC023,"[-3, -3, 0]","[3, 0, -3]","[0, 0, -3]",non-match,1.2113248654051871,4,0.7451083203742143,-1.2579215567818685,0.6297645924923997,4th,1st,3rd,1.326247213500511,-1.246878749335321,0.45062652593370495
mem,resp,555,1,mem2.2.2.bmp,mem1.3.3.bmp,mem1.3.3.bmp,ACC023,"[0, 0, 0]","[-3, 3, 3]","[-3, 3, 3]",match,1.5,,1.0246349787061575,0.46796722520114614,0.8541974464667585,4th,3rd,4th,1.326247213500511,0.33485573526849355,1.2456630467749445
mem,resp,666,1,mem1.3.1.bmp,mem1.1.3.bmp,mem2.1.1.bmp,ACC023,"[-3, 3, -3]","[-3, -3, 3]","[0, -3, -3]",non-match,0.7090055512641944,1,0.8173477210037178,0.9551104921107354,0.7564344022144028,4th,4th,4th,1.326247213500511,1.2619930643557389,1.2456630467749445
mem,resp,1121,0,mem2.2.3.bmp,mem3.3.1.bmp,mem2.3.2.bmp,ACC023,"[0, 0, 3]","[3, 3, -3]","[0, 3, 0]",non-match,1.1835034190722742,4,-0.6420269572774765,-0.42805944882743163,0.8173671049052754,2nd,2nd,4th,-0.4181283601389357,-0.345444972785282,1.2456630467749445
mem,resp,653,1,mem1.2.2.bmp,mem1.2.1.bmp,mem1.2.1.bmp,ACC023,"[-3, 0, 0]","[-3, 0, -3]","[-3, 0, -3]",match,1.7113248654051871,,0.9301181469229796,0.6754273831394855,0.7112741009864858,4th,4th,3rd,1.326247213500511,1.2619930643557389,0.45062652593370495
mem,resp,784,0,mem3.2.2.bmp,mem1.1.2.bmp,mem3.2.3.bmp,ACC023,"[3, 0, 0]","[-3, -3, 0]","[3, 0, 3]",non-match,1.0042180842186395,3,-2.6035772375400557,-0.15521976534160278,0.6526663812383615,1st,2nd,3rd,-1.1857962694998232,-0.345444972785282,0.45062652593370495
mem,resp,666,1,mem1.3.2.bmp,mem2.3.3.bmp,mem3.3.2.bmp,ACC023,"[-3, 3, 0]","[0, 3, 3]","[3, 3, 0]",non-match,1.0144014403465114,3,2.6655828166598545,0.9714061392719315,0.5342685381171132,4th,4th,3rd,1.326247213500511,1.2619930643557389,0.45062652593370495
mem,resp,547,1,mem3.3.1.bmp,mem1.3.1.bmp,mem1.3.1.bmp,ACC023,"[3, 3, -3]","[-3, 3, -3]","[-3, 3, -3]",match,1.4226497308103743,,0.9090902818920532,0.2919766014353185,0.5826645635060678,4th,3rd,3rd,1.326247213500511,0.33485573526849355,0.45062652593370495
mem,resp,887,1,mem3.3.3.bmp,mem3.1.2.bmp,mem3.1.2.bmp,ACC023,"[3, 3, 3]","[3, -3, 0]","[3, -3, 0]",match,1.3545027756320973,,0.37207549348205077,0.046709056102031715,0.49295543221647353,3rd,3rd,3rd,0.2814812163593199,0.33485573526849355,0.45062652593370495
mem,resp,790,1,mem3.1.1.bmp,mem2.1.2.bmp,mem1.1.3.bmp,ACC023,"[3, -3, -3]","[0, -3, 0]","[-3, -3, 3]",non-match,0.7752551286084112,2,1.5904705394041552,0.8096429503618557,0.5593530930550258,4th,4th,3rd,1.326247213500511,1.2619930643557389,0.45062652593370495
mem,resp,896,1,mem2.2.1.bmp,mem2.2.2.bmp,mem2.2.1.bmp,ACC023,"[0, 0, -3]","[0, 0, 0]","[0, 0, -3]",match,1.7113248654051871,,0.14673957309184532,-1.8248699044790735,0.6315862211176965,3rd,1st,3rd,0.2814812163593199,-1.246878749335321,0.45062652593370495
mem,resp,939,0,mem3.2.1.bmp,mem3.3.2.bmp,mem3.2.1.bmp,ACC023,"[3, 0, -3]","[3, 3, 0]","[3, 0, -3]",match,1.591751709536137,,0.8996896468556618,-0.2545249417048032,0.6773502929007704,4th,2nd,3rd,1.326247213500511,-0.345444972785282,0.45062652593370495
mem,resp,811,1,mem2.3.1.bmp,mem3.2.3.bmp,mem2.1.3.bmp,ACC023,"[0, 3, -3]","[3, 0, 3]","[0, -3, 3]",non-match,0.7752551286084112,2,0.3289542356873622,0.24490559977754936,0.6429267069427633,3rd,3rd,3rd,0.2814812163593199,0.33485573526849355,0.45062652593370495
mem,resp,632,0,mem1.2.3.bmp,mem2.1.1.bmp,mem2.1.1.bmp,ACC023,"[-3, 0, 3]","[0, -3, -3]","[0, -3, -3]",match,1.2928932188134525,,0.6296696341736742,-0.6360937584943832,0.735722454274691,3rd,2nd,4th,0.2814812163593199,-0.345444972785282,1.2456630467749445
mem,resp,824,1,mem1.2.1.bmp,mem1.3.2.bmp,mem1.2.1.bmp,ACC023,"[-3, 0, -3]","[-3, 3, 0]","[-3, 0, -3]",match,1.591751709536137,,0.11113319980412666,1.1188280014363785,0.6443789741169073,3rd,4th,3rd,0.2814812163593199,1.2619930643557389,0.45062652593370495
mem,resp,797,1,mem2.3.3.bmp,mem1.3.1.bmp,mem2.2.3.bmp,ACC023,"[0, 3, 3]","[-3, 3, -3]","[0, 0, 3]",non-match,1.0042180842186395,3,-0.11360863629157877,0.40195524149678,0.8562789760332822,2nd,3rd,4th,-0.4181283601389357,0.33485573526849355,1.2456630467749445
mem,resp,1235,1,mem3.3.2.bmp,mem2.2.1.bmp,mem3.3.3.bmp,ACC023,"[3, 3, 0]","[0, 0, -3]","[3, 3, 3]",non-match,1.0042180842186395,3,-0.05860399561921154,0.47809877229613607,0.9694055431261558,2nd,3rd,4th,-0.4181283601389357,0.33485573526849355,1.2456630467749445
mem,resp,1463,0,mem3.1.3.bmp,mem3.1.1.bmp,mem3.1.3.bmp,ACC023,"[3, -3, 3]","[3, -3, -3]","[3, -3, 3]",match,1.4226497308103743,,0.27252826980158995,1.1613699818662768,1.1686926345292898,3rd,4th,4th,0.2814812163593199,1.2619930643557389,1.2456630467749445
mem,resp,797,1,mem3.2.2.bmp,mem2.2.2.bmp,mem2.2.3.bmp,ACC023,"[3, 0, 0]","[0, 0, 0]","[0, 0, 3]",non-match,1.3030765749413242,4,0.1606079458380502,-0.8286423250537003,1.043558512591306,3rd,1st,4th,0.2814812163593199,-1.246878749335321,1.2456630467749445
mem,resp,970,1,mem2.2.1.bmp,mem3.2.3.bmp,mem1.2.2.bmp,ACC023,"[0, 0, -3]","[3, 0, 3]","[-3, 0, 0]",non-match,0.9462544851682343,3,0.5124860259649326,-0.6268843692098469,1.0901823554807069,3rd,2nd,4th,0.2814812163593199,-0.345444972785282,1.2456630467749445
mem,resp,662,0,mem2.1.3.bmp,mem2.3.1.bmp,mem2.3.1.bmp,ACC023,"[0, -3, 3]","[0, 3, -3]","[0, 3, -3]",match,1.1835034190722742,,0.9671946318227427,1.2909691792782432,1.0910375380706534,4th,4th,4th,1.326247213500511,1.2619930643557389,1.2456630467749445
mem,resp,995,1,mem2.1.1.bmp,mem2.3.2.bmp,mem3.1.3.bmp,ACC023,"[0, -3, -3]","[0, 3, 0]","[3, -3, 3]",non-match,0.6473959944455496,1,0.7152099111683871,0.6955514303805378,0.9333796982459781,4th,4th,4th,1.326247213500511,1.2619930643557389,1.2456630467749445
mem,resp,990,1,mem3.2.1.bmp,mem2.1.2.bmp,mem2.1.2.bmp,ACC023,"[3, 0, -3]","[0, -3, 0]","[0, -3, 0]",match,1.5,,0.9242012810377301,2.1687080420816165,0.9963227397779146,4th,4th,4th,1.326247213500511,1.2619930643557389,1.2456630467749445
mem,resp,1396,1,mem3.1.1.bmp,mem2.2.3.bmp,mem2.2.3.bmp,ACC023,"[3, -3, -3]","[0, 0, 3]","[0, 0, 3]",match,1.2928932188134525,,-0.4807738187748091,0.3808687494798396,0.8800628723770377,2nd,3rd,4th,-0.4181283601389357,0.33485573526849355,1.2456630467749445
mem,resp,1050,1,mem3.1.2.bmp,mem1.2.2.bmp,mem3.1.2.bmp,ACC023,"[3, -3, 0]","[-3, 0, 0]","[3, -3, 0]",match,1.3545027756320973,,1.1020427743616694,-0.7565114426475167,0.7918256800928162,4th,1st,4th,1.326247213500511,-1.246878749335321,1.2456630467749445
mem,resp,1339,1,mem2.3.2.bmp,mem3.2.2.bmp,mem2.3.2.bmp,ACC023,"[0, 3, 0]","[3, 0, 0]","[0, 3, 0]",match,1.591751709536137,,-1.2607077618578901,0.683593281712846,0.6998513637287734,1st,4th,3rd,-1.1857962694998232,1.2619930643557389,0.45062652593370495
mem,resp,1434,1,mem1.3.3.bmp,mem3.2.1.bmp,mem2.2.1.bmp,ACC023,"[-3, 3, 3]","[3, 0, -3]","[0, 0, -3]",non-match,1.0042180842186395,3,1.0221502337961952,0.3633926470309773,0.6238273430643146,4th,3rd,3rd,1.326247213500511,0.33485573526849355,0.45062652593370495
mem,resp,838,1,mem2.2.3.bmp,mem1.1.2.bmp,mem1.1.2.bmp,ACC023,"[0, 0, 3]","[-3, -3, 0]","[-3, -3, 0]",match,1.5,,0.13954081402962232,1.275122824794275,0.7143492302780013,3rd,4th,3rd,0.2814812163593199,1.2619930643557389,0.45062652593370495
mem,resp,974,0,mem1.1.3.bmp,mem2.3.3.bmp,mem1.2.3.bmp,ACC023,"[-3, -3, 3]","[0, 3, 3]","[-3, 0, 3]",non-match,1.3030765749413242,4,0.2019052026268681,-0.44467575357911754,0.8601004025332515,3rd,2nd,4th,0.2814812163593199,-0.345444972785282,1.2456630467749445
mem,resp,721,1,mem3.2.1.bmp,mem3.1.2.bmp,mem1.2.2.bmp,ACC023,"[3, 0, -3]","[3, -3, 0]","[-3, 0, 0]",non-match,0.7090055512641944,1,1.551633623468909,0.7821214832719712,0.9021378392074585,4th,4th,4th,1.326247213500511,1.2619930643557389,1.2456630467749445
mem,resp,622,1,mem2.3.2.bmp,mem3.3.3.bmp,mem3.3.3.bmp,ACC023,"[0, 3, 0]","[3, 3, 3]","[3, 3, 3]",match,1.591751709536137,,0.22115849480175342,0.17778623817560887,0.9757062001263459,3rd,3rd,4th,0.2814812163593199,0.33485573526849355,1.2456630467749445
mem,resp,793,1,mem2.2.3.bmp,mem1.2.1.bmp,mem2.2.3.bmp,ACC023,"[0, 0, 3]","[-3, 0, -3]","[0, 0, 3]",match,1.3545027756320973,,-0.5077831939636256,-0.22341018826579861,0.9963053245480562,2nd,2nd,4th,-0.4181283601389357,-0.345444972785282,1.2456630467749445
mem,resp,877,0,mem3.2.2.bmp,mem1.3.2.bmp,mem2.2.1.bmp,ACC023,"[3, 0, 0]","[-3, 3, 0]","[0, 0, -3]",non-match,1.091751709536137,4,-0.36337742445348087,-0.711874623309933,1.1074062158546891,2nd,1st,4th,-0.4181283601389357,-1.246878749335321,1.2456630467749445
mem,resp,900,1,mem1.1.2.bmp,mem2.3.3.bmp,mem2.3.3.bmp,ACC023,"[-3, -3, 0]","[0, 3, 3]","[0, 3, 3]",match,1.2928932188134525,,-0.8655295978980684,-0.09746613754684524,1.060937970140009,1st,2nd,4th,-1.1857962694998232,-0.345444972785282,1.2456630467749445
mem,resp,1328,0,mem1.1.3.bmp,mem1.2.2.bmp,mem1.1.3.bmp,ACC023,"[-3, -3, 3]","[-3, 0, 0]","[-3, -3, 3]",match,1.591751709536137,,0.46470890045066904,1.0918309034913545,1.1704669358704214,3rd,4th,4th,0.2814812163593199,1.2619930643557389,1.2456630467749445
mem,resp,931,1,mem1.2.1.bmp,mem1.2.3.bmp,mem1.2.3.bmp,ACC023,"[-3, 0, -3]","[-3, 0, 3]","[-3, 0, 3]",match,1.4226497308103743,,0.04160226050078419,0.6341297174186861,1.1898468388259518,3rd,3rd,4th,0.2814812163593199,0.33485573526849355,1.2456630467749445
mem,resp,751,1,mem3.3.2.bmp,mem3.1.3.bmp,mem3.1.3.bmp,ACC023,"[3, 3, 0]","[3, -3, 3]","[3, -3, 3]",match,1.3545027756320973,,0.8502184956399317,-0.12937938363845114,1.1758625668903986,4th,2nd,4th,1.326247213500511,-0.345444972785282,1.2456630467749445
mem,resp,782,1,mem2.1.2.bmp,mem2.2.2.bmp,mem2.1.2.bmp,ACC023,"[0, -3, 0]","[0, 0, 0]","[0, -3, 0]",match,1.7113248654051871,,0.31321210750904016,-0.2156131194986609,1.2855399091339808,3rd,2nd,4th,0.2814812163593199,-0.345444972785282,1.2456630467749445
mem,resp,796,0,mem2.3.1.bmp,mem3.1.1.bmp,mem2.3.1.bmp,ACC023,"[0, 3, -3]","[3, -3, -3]","[0, 3, -3]",match,1.3545027756320973,,0.4334882388188979,2.2596621830792345,1.2842930924429588,3rd,4th,4th,0.2814812163593199,1.2619930643557389,1.2456630467749445
mem,resp,706,1,mem1.3.1.bmp,mem3.2.2.bmp,mem1.3.1.bmp,ACC023,"[-3, 3, -3]","[3, 0, 0]","[-3, 3, -3]",match,1.2928932188134525,,0.5104237734201464,0.3595640803613261,1.1013897494037426,3rd,3rd,4th,0.2814812163593199,0.33485573526849355,1.2456630467749445
mem,resp,727,1,mem2.1.3.bmp,mem3.2.3.bmp,mem1.3.3.bmp,ACC023,"[0, -3, 3]","[3, 0, 3]","[-3, 3, 3]",non-match,0.7090055512641944,1,1.984209186700607,0.8189119510280508,1.2909849235566693,4th,4th,4th,1.326247213500511,1.2619930643557389,1.2456630467749445
mem,resp,811,0,mem3.1.3.bmp,mem1.1.1.bmp,mem1.2.1.bmp,ACC023,"[3, -3, 3]","[-3, -3, -3]","[-3, 0, -3]",non-match,0.8452994616207485,2,2.0185826701258742,0.6258545359397786,1.2167637354172205,4th,3rd,4th,1.326247213500511,0.33485573526849355,1.2456630467749445
mem,resp,1396,0,mem3.1.1.bmp,mem2.1.1.bmp,mem2.1.1.bmp,ACC023,"[3, -3, -3]","[0, -3, -3]","[0, -3, -3]",match,1.7113248654051871,,0.540518767074902,-0.16529969736509548,1.2292861935391737,3rd,2nd,4th,0.2814812163593199,-0.345444972785282,1.2456630467749445
mem,resp,618,1,mem3.3.3.bmp,mem2.2.1.bmp,mem2.2.1.bmp,ACC023,"[3, 3, 3]","[0, 0, -3]","[0, 0, -3]",match,1.2928932188134525,,0.7077227782483061,1.5217978873058702,1.2163304184990658,4th,4th,4th,1.326247213500511,1.2619930643557389,1.2456630467749445
mem,resp,831,1,mem3.1.2.bmp,mem1.3.3.bmp,mem2.1.2.bmp,ACC023,"[3, -3, 0]","[-3, 3, 3]","[0, -3, 0]",non-match,1.0042180842186395,3,-0.053292643405029684,0.7412329620877944,1.2557796788528162,3rd,4th,4th,0.2814812163593199,1.2619930643557389,1.2456630467749445
mem,resp,823,1,mem1.3.2.bmp,mem3.2.2.bmp,mem1.1.1.bmp,ACC023,"[-3, 3, 0]","[3, 0, 0]","[-3, -3, -3]",non-match,0.6473959944455496,1,1.7249353663085831,0.9805924558698542,1.3309498633187031,4th,4th,4th,1.326247213500511,1.2619930643557389,1.2456630467749445
mem,resp,1098,1,mem3.3.1.bmp,mem2.3.1.bmp,mem3.3.1.bmp,ACC023,"[3, 3, -3]","[0, 3, -3]","[3, 3, -3]",match,1.7113248654051871,,-1.055344375255979,-1.1944484848488375,1.3455123495982404,1st,1st,4th,-1.1857962694998232,-1.246878749335321,1.2456630467749445
mem,resp,1072,1,mem2.3.3.bmp,mem3.1.3.bmp,mem3.1.3.bmp,ACC023,"[0, 3, 3]","[3, -3, 3]","[3, -3, 3]",match,1.3545027756320973,,1.207559500403899,1.6089848777382745,1.417664177849106,4th,4th,4th,1.326247213500511,1.2619930643557389,1.2456630467749445
mem,resp,864,1,mem3.2.3.bmp,mem3.1.1.bmp,mem3.2.3.bmp,ACC023,"[3, 0, 3]","[3, -3, -3]","[3, 0, 3]",match,1.3545027756320973,,-0.39864339395401227,-0.4184726225972625,1.482407179849782,2nd,2nd,4th,-0.4181283601389357,-0.345444972785282,1.2456630467749445
mem,resp,776,1,mem2.1.1.bmp,mem3.2.1.bmp,mem1.2.1.bmp,ACC023,"[0, -3, -3]","[3, 0, -3]","[-3, 0, -3]",non-match,1.0144014403465114,3,1.4367763786168912,1.7185126702844224,1.4534373829867004,4th,4th,4th,1.326247213500511,1.2619930643557389,1.2456630467749445
mem,resp,1167,0,mem1.3.3.bmp,mem1.1.2.bmp,mem1.3.2.bmp,ACC023,"[-3, 3, 3]","[-3, -3, 0]","[-3, 3, 0]",non-match,1.1339745962155614,4,-0.7110546303597883,0.03474951918604773,1.2187549985567128,2nd,3rd,4th,-0.4181283601389357,0.33485573526849355,1.2456630467749445
mem,resp,771,1,mem1.2.3.bmp,mem3.3.1.bmp,mem1.1.3.bmp,ACC023,"[-3, 0, 3]","[3, 3, -3]","[-3, -3, 3]",non-match,0.7113248654051871,2,1.28727602408931,0.42978423334831195,1.144819169135226,4th,3rd,4th,1.326247213500511,0.33485573526849355,1.2456630467749445
mem,resp,864,1,mem2.2.1.bmp,mem1.3.1.bmp,mem2.2.3.bmp,ACC023,"[0, 0, -3]","[-3, 3, -3]","[0, 0, 3]",non-match,0.7155429496238267,2,-2.112725038306317,-0.8637421562747979,1.014267138641363,1st,1st,4th,-1.1857962694998232,-1.246878749335321,1.2456630467749445
mem,resp,753,1,mem1.1.1.bmp,mem3.3.2.bmp,mem3.2.3.bmp,ACC023,"[-3, -3, -3]","[3, 3, 0]","[3, 0, 3]",non-match,0.7257263057516985,2,2.9815888369677537,3.8760157731527047,1.1587043129228745,4th,4th,4th,1.326247213500511,1.2619930643557389,1.2456630467749445
mem,resp,595,1,mem2.2.2.bmp,mem2.1.3.bmp,mem2.1.3.bmp,ACC023,"[0, 0, 0]","[0, -3, 3]","[0, -3, 3]",match,1.591751709536137,,2.044180993940381,1.2067087273052695,1.2398648604519864,4th,4th,4th,1.326247213500511,1.2619930643557389,1.2456630467749445
mem,resp,1392,1,mem1.2.2.bmp,mem2.3.2.bmp,mem1.2.2.bmp,ACC023,"[-3, 0, 0]","[0, 3, 0]","[-3, 0, 0]",match,1.591751709536137,,1.9820592849646705,0.6916196335678921,1.3764646588693208,4th,4th,4th,1.326247213500511,1.2619930643557389,1.2456630467749445
mem,resp,2298,0,mem3.3.3.bmp,mem1.1.3.bmp,mem3.3.3.bmp,ACC023,"[3, 3, 3]","[-3, -3, 3]","[3, 3, 3]",match,1.1835034190722742,,-0.35392917561395965,0.3103434039883376,1.4548590299777306,2nd,3rd,4th,-0.4181283601389357,0.33485573526849355,1.2456630467749445
mem,resp,509,1,mem3.3.1.bmp,mem3.2.3.bmp,mem3.2.3.bmp,ACC023,"[3, 3, -3]","[3, 0, 3]","[3, 0, 3]",match,1.3545027756320973,,2.104796796258231,1.4933028139238291,1.653462816759848,4th,4th,4th,1.326247213500511,1.2619930643557389,1.2456630467749445
mem,resp,841,1,mem1.1.2.bmp,mem2.2.1.bmp,mem3.1.3.bmp,ACC023,"[-3, -3, 0]","[0, 0, -3]","[3, -3, 3]",non-match,0.6473959944455496,1,-0.3840147213524196,-0.6380088192482525,1.467797034767468,2nd,2nd,4th,-0.4181283601389357,-0.345444972785282,1.2456630467749445
mem,resp,1126,0,mem1.3.2.bmp,mem2.2.3.bmp,mem2.2.3.bmp,ACC023,"[-3, 3, 0]","[0, 0, 3]","[0, 0, 3]",match,1.5,,-0.44588310771558604,0.13712594501063985,1.4438819506152853,2nd,3rd,4th,-0.4181283601389357,0.33485573526849355,1.2456630467749445
mem,resp,1050,1,mem1.1.3.bmp,mem2.1.2.bmp,mem1.1.3.bmp,ACC023,"[-3, -3, 3]","[0, -3, 0]","[-3, -3, 3]",match,1.591751709536137,,0.5949764674229762,0.7813172988013728,1.3861794803705947,3rd,4th,4th,0.2814812163593199,1.2619930643557389,1.2456630467749445
mem,resp,976,0,mem3.2.3.bmp,mem1.3.3.bmp,mem2.2.2.bmp,ACC023,"[3, 0, 3]","[-3, 3, 3]","[0, 0, 0]",non-match,1.091751709536137,4,0.872742322152025,0.38275576761821034,1.3611901222043463,4th,3rd,4th,1.326247213500511,0.33485573526849355,1.2456630467749445
mem,resp,919,1,mem1.2.1.bmp,mem1.2.3.bmp,mem1.2.3.bmp,ACC023,"[-3, 0, -3]","[-3, 0, 3]","[-3, 0, 3]",match,1.4226497308103743,,-0.41578311969878795,0.6329010621503206,1.389017621572257,2nd,3rd,4th,-0.4181283601389357,0.33485573526849355,1.2456630467749445
mem,resp,521,1,mem1.3.1.bmp,mem1.3.2.bmp,mem1.3.2.bmp,ACC023,"[-3, 3, -3]","[-3, 3, 0]","[-3, 3, 0]",match,1.7113248654051871,,1.3767765904768736,1.6481410316438116,1.535659190179307,4th,4th,4th,1.326247213500511,1.2619930643557389,1.2456630467749445
mem,resp,792,1,mem3.1.2.bmp,mem3.3.3.bmp,mem1.1.2.bmp,ACC023,"[3, -3, 0]","[3, 3, 3]","[-3, -3, 0]",non-match,0.5566243270259357,1,2.2084964065308523,1.3494093236183675,1.45883386425292,4th,4th,4th,1.326247213500511,1.2619930643557389,1.2456630467749445
mem,resp,1105,1,mem3.2.1.bmp,mem3.2.2.bmp,mem3.2.2.bmp,ACC023,"[3, 0, -3]","[3, 0, 0]","[3, 0, 0]",match,1.7113248654051871,,1.1168036850315048,1.8422841124263714,1.6662056793803373,4th,4th,4th,1.326247213500511,1.2619930643557389,1.2456630467749445
mem,resp,1120,1,mem2.1.1.bmp,mem2.1.3.bmp,mem2.3.1.bmp,ACC023,"[0, -3, -3]","[0, -3, 3]","[0, 3, -3]",non-match,0.6061531498826483,1,0.6514978939278117,0.36051008827743686,1.6065112931107313,3rd,3rd,4th,0.2814812163593199,0.33485573526849355,1.2456630467749445
