mode,type,rt,acc,item_1,item_2,item_cue,subj_idx,item_1_number,item_2_number,item_cue_number,trial_type,summed_similarity,similarity_bin,ams,pams,slps,ams_quantile,pams_quantile,slps_quantile,ams_bin,pam_bin,slp_bin
mem,resp,843,0,mem1.1.1.bmp,mem1.2.3.bmp,mem2.1.3.bmp,ACC020,"[-3, -3, -3]","[-3, 0, 3]","[0, -3, 3]",non-match,0.9462544851682343,3,0.26435654891092064,0.7315722205720522,-0.2143916003744651,3rd,4th,3rd,0.2633710160958495,1.2953547274324329,0.053513117762775037
mem,resp,722,0,mem2.3.2.bmp,mem1.3.3.bmp,mem2.2.3.bmp,ACC020,"[0, 3, 0]","[-3, 3, 3]","[0, 0, 3]",non-match,1.1835034190722742,4,-1.2570097727194043,-0.04071858893782654,-0.2519870690149505,1st,3rd,3rd,-1.2157152957713615,0.26331391416292615,0.053513117762775037
mem,resp,809,0,mem1.1.3.bmp,mem2.2.2.bmp,mem2.2.2.bmp,ACC020,"[-3, -3, 3]","[0, 0, 0]","[0, 0, 0]",match,1.5,,-0.36550424765905437,1.9849348378265712,-0.3309463988952914,2nd,4th,2nd,-0.31474626458190336,1.2953547274324329,-0.432309265343013
mem,resp,1213,1,mem2.1.2.bmp,mem1.2.1.bmp,mem3.3.1.bmp,ACC020,"[0, -3, 0]","[-3, 0, -3]","[3, 3, -3]",non-match,0.6473959944455496,1,0.14123846747660912,-0.8946493193310588,-0.5165618534838835,3rd,1st,2nd,0.2633710160958495,-1.2341094142375364,-0.432309265343013
mem,resp,1275,1,mem3.2.2.bmp,mem1.1.1.bmp,mem1.1.1.bmp,ACC020,"[3, 0, 0]","[-3, -3, -3]","[-3, -3, -3]",match,1.2928932188134525,,0.7364292496767438,1.5867973245289682,-0.36634453879114215,4th,4th,2nd,1.2704670957458235,1.2953547274324329,-0.432309265343013
mem,resp,1085,0,mem3.3.2.bmp,mem2.2.3.bmp,mem2.3.1.bmp,ACC020,"[3, 3, 0]","[0, 0, 3]","[0, 3, -3]",non-match,0.9462544851682343,3,0.40340029022407486,0.4640817891115815,-0.6762318887216028,3rd,3rd,1st,0.2633710160958495,0.26331391416292615,-1.076027866896446
mem,resp,1089,0,mem1.2.2.bmp,mem2.3.2.bmp,mem1.3.1.bmp,ACC020,"[-3, 0, 0]","[0, 3, 0]","[-3, 3, -3]",non-match,1.1835034190722742,4,0.7365851093499061,1.854542857971317,-0.5347553638857507,4th,4th,2nd,1.2704670957458235,1.2953547274324329,-0.432309265343013
mem,resp,1047,1,mem3.2.3.bmp,mem2.1.1.bmp,mem2.2.2.bmp,ACC020,"[3, 0, 3]","[0, -3, -3]","[0, 0, 0]",non-match,1.1835034190722742,4,0.3517754671896842,0.967507640091522,-0.5249175453484938,3rd,4th,2nd,0.2633710160958495,1.2953547274324329,-0.432309265343013
mem,resp,991,1,mem3.3.3.bmp,mem3.2.1.bmp,mem3.1.2.bmp,ACC020,"[3, 3, 3]","[3, 0, -3]","[3, -3, 0]",non-match,0.9462544851682343,3,0.6923386625425842,0.9988026468625252,-0.3855628894164761,4th,4th,2nd,1.2704670957458235,1.2953547274324329,-0.432309265343013
mem,resp,868,1,mem1.3.2.bmp,mem2.3.1.bmp,mem2.3.3.bmp,ACC020,"[-3, 3, 0]","[0, 3, -3]","[0, 3, 3]",non-match,1.0144014403465114,3,0.6130983850480276,1.7652036378436577,-0.2734131964256167,4th,4th,2nd,1.2704670957458235,1.2953547274324329,-0.432309265343013
mem,resp,1170,1,mem1.1.2.bmp,mem3.1.3.bmp,mem1.1.2.bmp,ACC020,"[-3, -3, 0]","[3, -3, 3]","[-3, -3, 0]",match,1.3545027756320973,,0.6323955005105674,2.0450377091950185,-0.33856806595437183,4th,4th,2nd,1.2704670957458235,1.2953547274324329,-0.432309265343013
mem,resp,1279,1,mem1.2.3.bmp,mem3.2.2.bmp,mem3.2.2.bmp,ACC020,"[-3, 0, 3]","[3, 0, 0]","[3, 0, 0]",match,1.3545027756320973,,1.7493564432034272,1.4427781590929063,-0.23717455259689527,4th,4th,3rd,1.2704670957458235,1.2953547274324329,0.053513117762775037
mem,resp,687,1,mem3.1.2.bmp,mem3.1.1.bmp,mem3.3.1.bmp,ACC020,"[3, -3, 0]","[3, -3, -3]","[3, 3, -3]",non-match,0.7771525064424715,2,-0.2872682270734986,2.0708949441419517,0.012275416989700813,2nd,4th,3rd,-0.31474626458190336,1.2953547274324329,0.053513117762775037
mem,resp,852,1,mem2.2.3.bmp,mem2.3.3.bmp,mem2.3.3.bmp,ACC020,"[0, 0, 3]","[0, 3, 3]","[0, 3, 3]",match,1.7113248654051871,,-1.120215125358511,0.14722524246709373,0.31421624091525807,1st,3rd,3rd,-1.2157152957713615,0.26331391416292615,0.053513117762775037
mem,resp,860,0,mem2.2.1.bmp,mem2.1.3.bmp,mem2.2.1.bmp,ACC020,"[0, 0, -3]","[0, -3, 3]","[0, 0, -3]",match,1.3545027756320973,,-0.44281363107422955,-0.6517915515847036,0.3836566199193749,2nd,1st,3rd,-0.31474626458190336,-1.2341094142375364,0.053513117762775037
mem,resp,783,1,mem1.3.1.bmp,mem1.2.2.bmp,mem2.2.2.bmp,ACC020,"[-3, 3, -3]","[-3, 0, 0]","[0, 0, 0]",non-match,1.2113248654051871,4,-2.3603486967299365,0.20848301893716212,0.3796309729453466,1st,3rd,3rd,-1.2157152957713615,0.26331391416292615,0.053513117762775037
mem,resp,849,1,mem1.3.3.bmp,mem2.1.2.bmp,mem3.1.3.bmp,ACC020,"[-3, 3, 3]","[0, -3, 0]","[3, -3, 3]",non-match,0.7752551286084112,2,-0.42124345278723957,-0.10971693315220331,0.5296358741464103,2nd,2nd,3rd,-0.31474626458190336,-0.32118340794547545,0.053513117762775037
mem,resp,976,1,mem2.3.1.bmp,mem3.2.3.bmp,mem2.1.1.bmp,ACC020,"[0, 3, -3]","[3, 0, 3]","[0, -3, -3]",non-match,0.7155429496238267,2,0.35762555931452655,0.04148179358750823,0.587287438425882,3rd,3rd,4th,0.2633710160958495,0.26331391416292615,1.4555100800890277
mem,resp,781,1,mem3.3.1.bmp,mem3.3.3.bmp,mem1.2.3.bmp,ACC020,"[3, 3, -3]","[3, 3, 3]","[-3, 0, 3]",non-match,0.4884773718476586,1,0.20603860524435963,-0.29554183819136265,0.5386480268966951,3rd,2nd,3rd,0.2633710160958495,-0.32118340794547545,0.053513117762775037
mem,resp,1058,0,mem3.1.1.bmp,mem2.2.1.bmp,mem3.2.1.bmp,ACC020,"[3, -3, -3]","[0, 0, -3]","[3, 0, -3]",non-match,1.4226497308103743,4,0.7047064458944632,0.5756912896775003,0.42960135416093737,4th,3rd,3rd,1.2704670957458235,0.26331391416292615,0.053513117762775037
mem,resp,1468,0,mem1.2.1.bmp,mem3.1.2.bmp,mem3.3.2.bmp,ACC020,"[-3, 0, -3]","[3, -3, 0]","[3, 3, 0]",non-match,0.7155429496238267,2,-0.5152144516431223,0.10116285457801888,0.5471869540452284,2nd,3rd,4th,-0.31474626458190336,0.26331391416292615,1.4555100800890277
mem,resp,600,0,mem2.1.3.bmp,mem1.3.1.bmp,mem2.1.3.bmp,ACC020,"[0, -3, 3]","[-3, 3, -3]","[0, -3, 3]",match,1.1339745962155614,,1.1889370746079693,-0.11533789353240165,0.5742860300026934,4th,2nd,4th,1.2704670957458235,-0.32118340794547545,1.4555100800890277
mem,resp,909,1,mem2.1.1.bmp,mem1.3.2.bmp,mem1.1.2.bmp,ACC020,"[0, -3, -3]","[-3, 3, 0]","[-3, -3, 0]",non-match,1.0144014403465114,3,-1.0240551556726196,2.6311178281005105,0.3686053927857961,1st,4th,3rd,-1.2157152957713615,1.2953547274324329,0.053513117762775037
mem,resp,855,1,mem3.2.1.bmp,mem3.3.3.bmp,mem1.1.1.bmp,ACC020,"[3, 0, -3]","[3, 3, 3]","[-3, -3, -3]",non-match,0.3545027756320972,1,-0.010345991279664467,1.028618797616853,0.42069360724998794,3rd,4th,3rd,0.2633710160958495,1.2953547274324329,0.053513117762775037
mem,resp,850,0,mem3.1.3.bmp,mem3.3.2.bmp,mem3.3.2.bmp,ACC020,"[3, -3, 3]","[3, 3, 0]","[3, 3, 0]",match,1.3545027756320973,,0.36579922659081004,-0.703790542589163,0.568798773813815,3rd,1st,4th,0.2633710160958495,-1.2341094142375364,1.4555100800890277
mem,resp,1096,1,mem2.3.3.bmp,mem3.2.2.bmp,mem3.2.3.bmp,ACC020,"[0, 3, 3]","[3, 0, 0]","[3, 0, 3]",non-match,1.3030765749413242,4,1.6545707228813766,0.29556684062973676,0.4990146870610362,4th,3rd,3rd,1.2704670957458235,0.26331391416292615,0.053513117762775037
mem,resp,781,1,mem2.2.2.bmp,mem1.1.2.bmp,mem1.1.2.bmp,ACC020,"[0, 0, 0]","[-3, -3, 0]","[-3, -3, 0]",match,1.591751709536137,,0.7637661544660013,0.9757902825223622,0.4621869497863086,4th,4th,3rd,1.2704670957458235,1.2953547274324329,0.053513117762775037
mem,resp,815,1,mem1.2.2.bmp,mem2.2.3.bmp,mem2.2.3.bmp,ACC020,"[-3, 0, 0]","[0, 0, 3]","[0, 0, 3]",match,1.591751709536137,,0.48622237386529504,-0.14284021619322387,0.8067656410968714,3rd,2nd,4th,0.2633710160958495,-0.32118340794547545,1.4555100800890277
mem,resp,687,1,mem1.3.3.bmp,mem1.3.1.bmp,mem3.2.1.bmp,ACC020,"[-3, 3, 3]","[-3, 3, -3]","[3, 0, -3]",non-match,0.4884773718476586,1,1.1045439029262922,-1.17659155727425,0.49752007912764035,4th,1st,3rd,1.2704670957458235,-1.2341094142375364,0.053513117762775037
mem,resp,904,1,mem2.3.3.bmp,mem2.3.2.bmp,mem1.3.2.bmp,ACC020,"[0, 3, 3]","[0, 3, 0]","[-3, 3, 0]",non-match,1.3030765749413242,4,-0.6542749642631948,0.24180569829503762,0.6473025671877591,1st,3rd,4th,-1.2157152957713615,0.26331391416292615,1.4555100800890277
mem,resp,656,0,mem2.2.2.bmp,mem2.1.3.bmp,mem2.2.2.bmp,ACC020,"[0, 0, 0]","[0, -3, 3]","[0, 0, 0]",match,1.591751709536137,,-0.7527729848707642,0.96744158325158,0.8546776440420172,1st,4th,4th,-1.2157152957713615,1.2953547274324329,1.4555100800890277
mem,resp,1081,1,mem1.1.1.bmp,mem3.2.3.bmp,mem2.1.2.bmp,ACC020,"[-3, -3, -3]","[3, 0, 3]","[0, -3, 0]",non-match,1.091751709536137,4,0.7750277494056831,1.6446196686232202,0.7384349283977223,4th,4th,4th,1.2704670957458235,1.2953547274324329,1.4555100800890277
mem,resp,776,0,mem2.2.3.bmp,mem3.1.3.bmp,mem3.1.3.bmp,ACC020,"[0, 0, 3]","[3, -3, 3]","[3, -3, 3]",match,1.591751709536137,,-0.6210347235606862,0.25242763815767233,0.7256771918108286,1st,3rd,4th,-1.2157152957713615,0.26331391416292615,1.4555100800890277
mem,resp,670,0,mem3.2.2.bmp,mem1.3.2.bmp,mem1.3.3.bmp,ACC020,"[3, 0, 0]","[-3, 3, 0]","[-3, 3, 3]",non-match,1.0042180842186395,3,0.7183642926551244,-0.4638584118538775,0.9527258158159517,4th,2nd,4th,1.2704670957458235,-0.32118340794547545,1.4555100800890277
mem,resp,915,1,mem3.1.2.bmp,mem2.3.1.bmp,mem3.1.2.bmp,ACC020,"[3, -3, 0]","[0, 3, -3]","[3, -3, 0]",match,1.2928932188134525,,-0.861214160436166,-0.2483011869572645,0.9525677168745009,1st,2nd,4th,-1.2157152957713615,-0.32118340794547545,1.4555100800890277
mem,resp,991,1,mem1.2.3.bmp,mem3.1.1.bmp,mem1.3.1.bmp,ACC020,"[-3, 0, 3]","[3, -3, -3]","[-3, 3, -3]",non-match,0.5380061947043713,1,-1.6088355424908447,0.14483521065823213,1.2285861633383368,1st,3rd,4th,-1.2157152957713615,0.26331391416292615,1.4555100800890277
mem,resp,754,1,mem3.3.2.bmp,mem1.1.3.bmp,mem2.1.1.bmp,ACC020,"[3, 3, 0]","[-3, -3, 3]","[0, -3, -3]",non-match,0.6473959944455496,1,-1.048488543670944,-0.5250817298074397,1.1719963622518443,1st,2nd,4th,-1.2157152957713615,-0.32118340794547545,1.4555100800890277
mem,resp,900,1,mem1.2.1.bmp,mem2.1.2.bmp,mem2.2.3.bmp,ACC020,"[-3, 0, -3]","[0, -3, 0]","[0, 0, 3]",non-match,0.9462544851682343,3,0.7878684912603159,0.7624195390278216,0.916762007405456,4th,4th,4th,1.2704670957458235,1.2953547274324329,1.4555100800890277
mem,resp,865,0,mem2.3.2.bmp,mem2.2.1.bmp,mem2.3.2.bmp,ACC020,"[0, 3, 0]","[0, 0, -3]","[0, 3, 0]",match,1.591751709536137,,-1.509980979427423,-0.044855177214715096,0.9694523725208155,1st,3rd,4th,-1.2157152957713615,0.26331391416292615,1.4555100800890277
mem,resp,698,0,mem3.2.3.bmp,mem1.2.3.bmp,mem3.2.3.bmp,ACC020,"[3, 0, 3]","[-3, 0, 3]","[3, 0, 3]",match,1.4226497308103743,,-0.13691554694767044,-0.31254589028989493,0.7298030983062896,2nd,2nd,4th,-0.31474626458190336,-0.32118340794547545,1.4555100800890277
mem,resp,659,1,mem1.1.1.bmp,mem2.2.3.bmp,mem1.1.1.bmp,ACC020,"[-3, -3, -3]","[0, 0, 3]","[-3, -3, -3]",match,1.2928932188134525,,1.2678376712947812,-0.7209038949228564,0.6748729815038724,4th,1st,4th,1.2704670957458235,-1.2341094142375364,1.4555100800890277
mem,resp,955,0,mem1.3.3.bmp,mem3.2.2.bmp,mem2.2.2.bmp,ACC020,"[-3, 3, 3]","[3, 0, 0]","[0, 0, 0]",non-match,1.2113248654051871,4,-0.744745777637426,1.1175554115200421,0.6412382936426279,1st,4th,4th,-1.2157152957713615,1.2953547274324329,1.4555100800890277
mem,resp,718,0,mem1.1.3.bmp,mem2.3.2.bmp,mem2.1.1.bmp,ACC020,"[-3, -3, 3]","[0, 3, 0]","[0, -3, -3]",non-match,0.7090055512641944,2,-0.5654599778391513,0.4763834114042818,0.7361437508618721,2nd,3rd,4th,-0.31474626458190336,0.26331391416292615,1.4555100800890277
mem,resp,1285,1,mem2.1.2.bmp,mem2.3.1.bmp,mem2.3.1.bmp,ACC020,"[0, -3, 0]","[0, 3, -3]","[0, 3, -3]",match,1.3545027756320973,,-1.0230566461824282,0.3269466997951401,0.9041306085669114,1st,3rd,4th,-1.2157152957713615,0.26331391416292615,1.4555100800890277
mem,resp,720,1,mem2.1.3.bmp,mem3.1.3.bmp,mem3.3.3.bmp,ACC020,"[0, -3, 3]","[3, -3, 3]","[3, 3, 3]",non-match,0.7771525064424715,2,0.5954815527131718,-0.11946406253453679,1.1337836314452496,3rd,2nd,4th,0.2633710160958495,-0.32118340794547545,1.4555100800890277
mem,resp,844,1,mem3.1.2.bmp,mem1.1.1.bmp,mem1.2.3.bmp,ACC020,"[3, -3, 0]","[-3, -3, -3]","[-3, 0, 3]",non-match,0.6473959944455496,1,-0.5598690348435345,-0.6586402838899641,1.184253345414116,2nd,1st,4th,-0.31474626458190336,-1.2341094142375364,1.4555100800890277
mem,resp,737,1,mem1.1.2.bmp,mem3.2.1.bmp,mem2.2.1.bmp,ACC020,"[-3, -3, 0]","[3, 0, -3]","[0, 0, -3]",non-match,1.2113248654051871,4,-0.26797446598562374,0.10708059403910958,1.500155228039729,2nd,3rd,4th,-0.31474626458190336,0.26331391416292615,1.4555100800890277
mem,resp,1044,1,mem2.2.2.bmp,mem1.3.3.bmp,mem1.3.3.bmp,ACC020,"[0, 0, 0]","[-3, 3, 3]","[-3, 3, 3]",match,1.5,,-0.9147185177087027,-0.012860444639173458,1.7817318219634837,1st,3rd,4th,-1.2157152957713615,0.26331391416292615,1.4555100800890277
mem,resp,1132,0,mem1.3.1.bmp,mem1.1.3.bmp,mem2.1.1.bmp,ACC020,"[-3, 3, -3]","[-3, -3, 3]","[0, -3, -3]",non-match,0.7090055512641944,2,-0.6125753636776929,1.1234103629332706,1.9141238520684,2nd,4th,4th,-0.31474626458190336,1.2953547274324329,1.4555100800890277
mem,resp,806,0,mem2.2.3.bmp,mem3.3.1.bmp,mem2.3.2.bmp,ACC020,"[0, 0, 3]","[3, 3, -3]","[0, 3, 0]",non-match,1.1835034190722742,4,-0.7056092661324684,0.8154270204886702,1.8862857315101176,1st,4th,4th,-1.2157152957713615,1.2953547274324329,1.4555100800890277
mem,resp,689,1,mem1.2.2.bmp,mem1.2.1.bmp,mem1.2.1.bmp,ACC020,"[-3, 0, 0]","[-3, 0, -3]","[-3, 0, -3]",match,1.7113248654051871,,-2.122960088044103,0.20434969945235326,1.651984028159907,1st,3rd,4th,-1.2157152957713615,0.26331391416292615,1.4555100800890277
mem,resp,692,0,mem3.2.2.bmp,mem1.1.2.bmp,mem3.2.3.bmp,ACC020,"[3, 0, 0]","[-3, -3, 0]","[3, 0, 3]",non-match,1.0042180842186395,3,-0.5437052649188227,1.570751913807611,1.7264481149574618,2nd,4th,4th,-0.31474626458190336,1.2953547274324329,1.4555100800890277
mem,resp,849,0,mem3.3.1.bmp,mem1.3.1.bmp,mem1.3.1.bmp,ACC020,"[3, 3, -3]","[-3, 3, -3]","[-3, 3, -3]",match,1.4226497308103743,,-0.3468923231977413,-0.010834134049001682,1.8290137086721903,2nd,3rd,4th,-0.31474626458190336,0.26331391416292615,1.4555100800890277
mem,resp,648,1,mem3.3.3.bmp,mem3.1.2.bmp,mem3.1.2.bmp,ACC020,"[3, 3, 3]","[3, -3, 0]","[3, -3, 0]",match,1.3545027756320973,,-0.8859324827448903,1.6827188023075652,1.8119567833419845,1st,4th,4th,-1.2157152957713615,1.2953547274324329,1.4555100800890277
mem,resp,973,1,mem3.1.1.bmp,mem2.1.2.bmp,mem1.1.3.bmp,ACC020,"[3, -3, -3]","[0, -3, 0]","[-3, -3, 3]",non-match,0.7752551286084112,2,-1.4496785364846514,1.260280680091266,1.993447339152188,1st,4th,4th,-1.2157152957713615,1.2953547274324329,1.4555100800890277
mem,resp,1061,1,mem2.2.1.bmp,mem2.2.2.bmp,mem2.2.1.bmp,ACC020,"[0, 0, -3]","[0, 0, 0]","[0, 0, -3]",match,1.7113248654051871,,-1.6855748428695752,-0.6766859570146085,1.9274546692887407,1st,1st,4th,-1.2157152957713615,-1.2341094142375364,1.4555100800890277
mem,resp,671,1,mem3.2.1.bmp,mem3.3.2.bmp,mem3.2.1.bmp,ACC020,"[3, 0, -3]","[3, 3, 0]","[3, 0, -3]",match,1.591751709536137,,-0.7319718511054552,-1.34688884868741,2.166332130004199,1st,1st,4th,-1.2157152957713615,-1.2341094142375364,1.4555100800890277
mem,resp,764,1,mem2.3.1.bmp,mem3.2.3.bmp,mem2.1.3.bmp,ACC020,"[0, 3, -3]","[3, 0, 3]","[0, -3, 3]",non-match,0.7752551286084112,2,-0.5065702992342624,0.062288472372131,2.116307102091684,2nd,3rd,4th,-0.31474626458190336,0.26331391416292615,1.4555100800890277
mem,resp,739,0,mem1.2.3.bmp,mem2.1.1.bmp,mem2.1.1.bmp,ACC020,"[-3, 0, 3]","[0, -3, -3]","[0, -3, -3]",match,1.2928932188134525,,0.5147196298775759,1.2072512023837152,2.253830230398537,3rd,4th,4th,0.2633710160958495,1.2953547274324329,1.4555100800890277
mem,resp,1045,1,mem1.2.1.bmp,mem1.3.2.bmp,mem1.2.1.bmp,ACC020,"[-3, 0, -3]","[-3, 3, 0]","[-3, 0, -3]",match,1.591751709536137,,-2.0139230675707513,-1.2114224777276001,2.179497313024703,1st,1st,4th,-1.2157152957713615,-1.2341094142375364,1.4555100800890277
mem,resp,830,0,mem2.3.3.bmp,mem1.3.1.bmp,mem2.2.3.bmp,ACC020,"[0, 3, 3]","[-3, 3, -3]","[0, 0, 3]",non-match,1.0042180842186395,3,-0.6160096698033386,-0.38279134678247123,2.266107721244378,2nd,2nd,4th,-0.31474626458190336,-0.32118340794547545,1.4555100800890277
mem,resp,796,1,mem3.3.2.bmp,mem2.2.1.bmp,mem3.3.3.bmp,ACC020,"[3, 3, 0]","[0, 0, -3]","[3, 3, 3]",non-match,1.0042180842186395,3,-0.6741329945779561,-0.2169929688182726,2.4888875204141567,1st,2nd,4th,-1.2157152957713615,-0.32118340794547545,1.4555100800890277
mem,resp,666,0,mem2.1.1.bmp,mem1.1.3.bmp,mem1.2.3.bmp,ACC020,"[0, -3, -3]","[-3, -3, 3]","[-3, 0, 3]",non-match,1.0042180842186395,3,-0.13930077145488287,2.671794540539284,2.3843895612407704,2nd,4th,4th,-0.31474626458190336,1.2953547274324329,1.4555100800890277
mem,resp,832,1,mem3.1.3.bmp,mem3.1.1.bmp,mem3.1.3.bmp,ACC020,"[3, -3, 3]","[3, -3, -3]","[3, -3, 3]",match,1.4226497308103743,,-1.4169893425939892,-0.4386925945316136,2.073717298716967,1st,2nd,4th,-1.2157152957713615,-0.32118340794547545,1.4555100800890277
mem,resp,665,0,mem3.2.2.bmp,mem2.2.2.bmp,mem2.2.3.bmp,ACC020,"[3, 0, 0]","[0, 0, 0]","[0, 0, 3]",non-match,1.3030765749413242,4,-0.9474440771174333,-0.4697487070814672,1.9396738420046264,1st,2nd,4th,-1.2157152957713615,-0.32118340794547545,1.4555100800890277
mem,resp,960,1,mem2.2.1.bmp,mem3.2.3.bmp,mem1.2.2.bmp,ACC020,"[0, 0, -3]","[3, 0, 3]","[-3, 0, 0]",non-match,0.9462544851682343,3,-0.4320967097371842,-0.4063338683380428,1.7855735961147872,2nd,2nd,4th,-0.31474626458190336,-0.32118340794547545,1.4555100800890277
mem,resp,844,1,mem2.1.3.bmp,mem2.3.1.bmp,mem2.3.1.bmp,ACC020,"[0, -3, 3]","[0, 3, -3]","[0, 3, -3]",match,1.1835034190722742,,-1.9778334974646041,-0.3641005979708695,1.86257491986533,1st,2nd,4th,-1.2157152957713615,-0.32118340794547545,1.4555100800890277
mem,resp,767,1,mem2.1.1.bmp,mem2.3.2.bmp,mem3.1.3.bmp,ACC020,"[0, -3, -3]","[0, 3, 0]","[3, -3, 3]",non-match,0.6473959944455496,1,0.5392774833966656,1.4859776980187729,1.7836546792179087,3rd,4th,4th,0.2633710160958495,1.2953547274324329,1.4555100800890277
mem,resp,761,1,mem3.2.1.bmp,mem2.1.2.bmp,mem2.1.2.bmp,ACC020,"[3, 0, -3]","[0, -3, 0]","[0, -3, 0]",match,1.5,,-2.3082708724338947,-1.0727213305557763,1.9806617863977491,1st,1st,4th,-1.2157152957713615,-1.2341094142375364,1.4555100800890277
mem,resp,774,1,mem3.1.1.bmp,mem2.2.3.bmp,mem2.2.3.bmp,ACC020,"[3, -3, -3]","[0, 0, 3]","[0, 0, 3]",match,1.2928932188134525,,-0.45402971703811507,0.7784031831988407,1.8524384781639476,2nd,4th,4th,-0.31474626458190336,1.2953547274324329,1.4555100800890277
mem,resp,695,1,mem3.1.2.bmp,mem1.2.2.bmp,mem3.1.2.bmp,ACC020,"[3, -3, 0]","[-3, 0, 0]","[3, -3, 0]",match,1.3545027756320973,,-0.6544644344578133,0.8002594847401878,2.044732642968169,1st,4th,4th,-1.2157152957713615,1.2953547274324329,1.4555100800890277
mem,resp,648,0,mem2.3.2.bmp,mem3.2.2.bmp,mem2.3.2.bmp,ACC020,"[0, 3, 0]","[3, 0, 0]","[0, 3, 0]",match,1.591751709536137,,-1.2435536992274614,0.8201529447375757,2.0238171965438054,1st,4th,4th,-1.2157152957713615,1.2953547274324329,1.4555100800890277
mem,resp,931,1,mem1.3.3.bmp,mem3.2.1.bmp,mem2.2.1.bmp,ACC020,"[-3, 3, 3]","[3, 0, -3]","[0, 0, -3]",non-match,1.0042180842186395,3,0.49264913198117505,1.7006283779119797,2.158406758861166,3rd,4th,4th,0.2633710160958495,1.2953547274324329,1.4555100800890277
mem,resp,1098,0,mem2.2.3.bmp,mem1.1.2.bmp,mem1.1.2.bmp,ACC020,"[0, 0, 3]","[-3, -3, 0]","[-3, -3, 0]",match,1.5,,-0.7278720091254166,0.578777710398985,2.3954860814154357,1st,3rd,4th,-1.2157152957713615,0.26331391416292615,1.4555100800890277
mem,resp,1226,0,mem1.1.3.bmp,mem2.3.3.bmp,mem1.2.3.bmp,ACC020,"[-3, -3, 3]","[0, 3, 3]","[-3, 0, 3]",non-match,1.3030765749413242,4,0.30245411098868635,1.5690759768684708,2.1636880258193276,3rd,4th,4th,0.2633710160958495,1.2953547274324329,1.4555100800890277
mem,resp,822,1,mem1.1.3.bmp,mem1.1.1.bmp,mem1.3.3.bmp,ACC020,"[-3, -3, 3]","[-3, -3, -3]","[-3, 3, 3]",non-match,0.6061531498826483,1,1.2391203188246565,0.6739334736329368,1.9098693248092702,4th,4th,4th,1.2704670957458235,1.2953547274324329,1.4555100800890277
mem,resp,1057,1,mem2.3.3.bmp,mem1.3.1.bmp,mem3.1.3.bmp,ACC020,"[0, 3, 3]","[-3, 3, -3]","[3, -3, 3]",non-match,0.3545027756320972,1,-0.7331749551477927,-0.9590132654747594,1.912339469226776,1st,1st,4th,-1.2157152957713615,-1.2341094142375364,1.4555100800890277
mem,resp,1095,1,mem2.1.2.bmp,mem2.2.2.bmp,mem1.2.1.bmp,ACC020,"[0, -3, 0]","[0, 0, 0]","[-3, 0, -3]",non-match,1.091751709536137,4,-1.3834879065721035,-0.19408077933538267,1.6154670966453697,1st,2nd,4th,-1.2157152957713615,-0.32118340794547545,1.4555100800890277
mem,resp,879,0,mem2.3.2.bmp,mem2.2.1.bmp,mem1.2.3.bmp,ACC020,"[0, 3, 0]","[0, 0, -3]","[-3, 0, 3]",non-match,0.8545027756320972,2,-0.5672823603685991,-0.1887064765575239,1.701391076896925,2nd,2nd,4th,-0.31474626458190336,-0.32118340794547545,1.4555100800890277
mem,resp,1346,0,mem3.3.2.bmp,mem1.3.3.bmp,mem3.2.1.bmp,ACC020,"[3, 3, 0]","[-3, 3, 3]","[3, 0, -3]",non-match,0.7257263057516985,2,0.045315171301379485,0.2539562070538908,1.8793204479021657,3rd,3rd,4th,0.2633710160958495,0.26331391416292615,1.4555100800890277
mem,resp,1261,0,mem1.2.2.bmp,mem3.3.1.bmp,mem2.1.3.bmp,ACC020,"[-3, 0, 0]","[3, 3, -3]","[0, -3, 3]",non-match,0.6339745962155614,1,-0.9778981628857424,1.2237931971018305,1.7746053665592538,1st,4th,4th,-1.2157152957713615,1.2953547274324329,1.4555100800890277
mem,resp,708,1,mem1.1.1.bmp,mem3.1.2.bmp,mem3.1.2.bmp,ACC020,"[-3, -3, -3]","[3, -3, 0]","[3, -3, 0]",match,1.3545027756320973,,-0.23932008725410206,0.3783249608036509,1.6147325820772689,2nd,3rd,4th,-0.31474626458190336,0.26331391416292615,1.4555100800890277
mem,resp,909,1,mem1.3.1.bmp,mem2.2.3.bmp,mem2.2.2.bmp,ACC020,"[-3, 3, -3]","[0, 0, 3]","[0, 0, 0]",non-match,1.2113248654051871,4,0.28349730626800335,-0.05670815779449029,1.856272951487052,3rd,2nd,4th,0.2633710160958495,-0.32118340794547545,1.4555100800890277
mem,resp,733,1,mem3.2.3.bmp,mem1.2.3.bmp,mem1.2.3.bmp,ACC020,"[3, 0, 3]","[-3, 0, 3]","[-3, 0, 3]",match,1.4226497308103743,,-1.0392530654940333,0.0937060588461193,1.985988112075632,1st,3rd,4th,-1.2157152957713615,0.26331391416292615,1.4555100800890277
mem,resp,613,1,mem2.1.3.bmp,mem3.2.2.bmp,mem2.1.3.bmp,ACC020,"[0, -3, 3]","[3, 0, 0]","[0, -3, 3]",match,1.5,,0.22136171198177973,2.539786143000671,1.6108611898798848,3rd,4th,4th,0.2633710160958495,1.2953547274324329,1.4555100800890277
mem,resp,684,1,mem1.3.3.bmp,mem2.3.1.bmp,mem3.1.2.bmp,ACC020,"[-3, 3, 3]","[0, 3, -3]","[3, -3, 0]",non-match,0.42686781502901383,1,-1.5497058649243005,0.5194307471989432,1.5461279521130984,1st,3rd,4th,-1.2157152957713615,0.26331391416292615,1.4555100800890277
mem,resp,575,1,mem2.1.1.bmp,mem1.2.1.bmp,mem2.1.1.bmp,ACC020,"[0, -3, -3]","[-3, 0, -3]","[0, -3, -3]",match,1.591751709536137,,-0.08027550790976089,0.8751694394305083,1.47110159806492,2nd,4th,4th,-0.31474626458190336,1.2953547274324329,1.4555100800890277
mem,resp,578,1,mem2.2.2.bmp,mem3.2.1.bmp,mem2.2.2.bmp,ACC020,"[0, 0, 0]","[3, 0, -3]","[0, 0, 0]",match,1.591751709536137,,-0.4285861624901448,-1.0506092460342011,1.4281619039605942,2nd,1st,4th,-0.31474626458190336,-1.2341094142375364,1.4555100800890277
mem,resp,840,1,mem1.2.3.bmp,mem1.1.2.bmp,mem1.3.2.bmp,ACC020,"[-3, 0, 3]","[-3, -3, 0]","[-3, 3, 0]",non-match,1.0144014403465114,3,0.14541733875358337,0.5962054115709993,1.4785846370542515,3rd,3rd,4th,0.2633710160958495,0.26331391416292615,1.4555100800890277
mem,resp,513,1,mem2.2.1.bmp,mem1.2.2.bmp,mem1.2.2.bmp,ACC020,"[0, 0, -3]","[-3, 0, 0]","[-3, 0, 0]",match,1.591751709536137,,-0.7123898048348062,0.6022105912202198,1.6171197931322825,1st,3rd,4th,-1.2157152957713615,0.26331391416292615,1.4555100800890277
mem,resp,484,1,mem3.3.3.bmp,mem3.1.3.bmp,mem3.1.3.bmp,ACC020,"[3, 3, 3]","[3, -3, 3]","[3, -3, 3]",match,1.4226497308103743,,1.1944515622295355,1.0497233450797283,1.6579780071504981,4th,4th,4th,1.2704670957458235,1.2953547274324329,1.4555100800890277
mem,resp,503,1,mem2.2.3.bmp,mem3.1.1.bmp,mem3.1.1.bmp,ACC020,"[0, 0, 3]","[3, -3, -3]","[3, -3, -3]",match,1.2928932188134525,,-0.050712686606830114,-0.460938086629937,1.6603575799009744,2nd,2nd,4th,-0.31474626458190336,-0.32118340794547545,1.4555100800890277
mem,resp,656,0,mem3.2.1.bmp,mem3.3.2.bmp,mem1.2.3.bmp,ACC020,"[3, 0, -3]","[3, 3, 0]","[-3, 0, 3]",non-match,0.4763966378857265,1,0.17992769532007993,-0.9340838907795863,1.7098941480135688,3rd,1st,4th,0.2633710160958495,-1.2341094142375364,1.4555100800890277
mem,resp,538,1,mem1.2.1.bmp,mem2.1.2.bmp,mem2.3.2.bmp,ACC020,"[-3, 0, -3]","[0, -3, 0]","[0, 3, 0]",non-match,0.9226497308103743,3,2.107709494862516,-0.06250978703692103,1.4048292815750567,4th,2nd,4th,1.2704670957458235,-0.32118340794547545,1.4555100800890277
mem,resp,630,0,mem1.3.2.bmp,mem2.1.1.bmp,mem2.1.1.bmp,ACC020,"[-3, 3, 0]","[0, -3, -3]","[0, -3, -3]",match,1.2928932188134525,,-0.23102653303723206,-0.47986881926004854,0.9797111408830322,2nd,2nd,4th,-0.31474626458190336,-0.32118340794547545,1.4555100800890277
mem,resp,753,1,mem3.1.2.bmp,mem3.2.3.bmp,mem3.1.2.bmp,ACC020,"[3, -3, 0]","[3, 0, 3]","[3, -3, 0]",match,1.591751709536137,,0.12841276487595468,0.8636686030974737,0.8337470042352978,3rd,4th,4th,0.2633710160958495,1.2953547274324329,1.4555100800890277
mem,resp,1078,1,mem1.1.2.bmp,mem2.1.3.bmp,mem2.1.3.bmp,ACC020,"[-3, -3, 0]","[0, -3, 3]","[0, -3, 3]",match,1.591751709536137,,-1.559444329408981,-1.254291119555244,0.6163196486983996,1st,1st,4th,-1.2157152957713615,-1.2341094142375364,1.4555100800890277
mem,resp,540,1,mem3.2.2.bmp,mem3.3.3.bmp,mem3.2.2.bmp,ACC020,"[3, 0, 0]","[3, 3, 3]","[3, 0, 0]",match,1.591751709536137,,0.7310160180909953,1.9980723855937905,0.6234167843145333,4th,4th,4th,1.2704670957458235,1.2953547274324329,1.4555100800890277
mem,resp,621,0,mem3.1.3.bmp,mem1.2.1.bmp,mem3.2.1.bmp,ACC020,"[3, -3, 3]","[-3, 0, -3]","[3, 0, -3]",non-match,0.7771525064424715,2,-0.3968342386592686,0.8471704646730925,0.620627461630028,2nd,4th,4th,-0.31474626458190336,1.2953547274324329,1.4555100800890277
mem,resp,694,1,mem3.1.1.bmp,mem1.2.2.bmp,mem3.3.2.bmp,ACC020,"[3, -3, -3]","[-3, 0, 0]","[3, 3, 0]",non-match,0.7090055512641944,2,1.0234316969619996,1.370944682548162,0.37405851354414005,4th,4th,3rd,1.2704670957458235,1.2953547274324329,0.053513117762775037
mem,resp,668,1,mem2.3.1.bmp,mem1.3.3.bmp,mem2.1.3.bmp,ACC020,"[0, 3, -3]","[-3, 3, 3]","[0, -3, 3]",non-match,0.5380061947043713,1,0.42655636797334434,0.2589009360726234,0.29657595053593494,3rd,3rd,3rd,0.2633710160958495,0.26331391416292615,0.053513117762775037
mem,resp,839,1,mem2.3.3.bmp,mem3.1.2.bmp,mem1.3.1.bmp,ACC020,"[0, 3, 3]","[3, -3, 0]","[-3, 3, -3]",non-match,0.4884773718476586,1,-0.9479056870320977,-0.5476042520345092,0.4060500250563898,1st,2nd,3rd,-1.2157152957713615,-0.32118340794547545,0.053513117762775037
mem,resp,971,1,mem1.3.2.bmp,mem2.2.2.bmp,mem2.2.3.bmp,ACC020,"[-3, 3, 0]","[0, 0, 0]","[0, 0, 3]",non-match,1.2113248654051871,4,0.01592004368149556,-0.1505644399771347,0.34874384219630367,3rd,2nd,3rd,0.2633710160958495,-0.32118340794547545,0.053513117762775037
mem,resp,870,0,mem3.1.3.bmp,mem3.2.3.bmp,mem3.2.3.bmp,ACC020,"[3, -3, 3]","[3, 0, 3]","[3, 0, 3]",match,1.7113248654051871,,-1.0591719894434946,-0.7998900333364275,0.5643821987695641,1st,1st,4th,-1.2157152957713615,-1.2341094142375364,1.4555100800890277
mem,resp,579,1,mem3.2.2.bmp,mem2.1.3.bmp,mem3.2.2.bmp,ACC020,"[3, 0, 0]","[0, -3, 3]","[3, 0, 0]",match,1.5,,0.7839072709182471,1.2536130252472482,0.638956340733695,4th,4th,4th,1.2704670957458235,1.2953547274324329,1.4555100800890277
mem,resp,556,1,mem3.3.3.bmp,mem1.3.1.bmp,mem3.3.3.bmp,ACC020,"[3, 3, 3]","[-3, 3, -3]","[3, 3, 3]",match,1.1835034190722742,,-1.2636960434581508,-0.06624172609428988,0.5040217525582872,1st,2nd,3rd,-1.2157152957713615,-0.32118340794547545,0.053513117762775037
mem,resp,464,1,mem1.2.3.bmp,mem3.3.1.bmp,mem3.3.1.bmp,ACC020,"[-3, 0, 3]","[3, 3, -3]","[3, 3, -3]",match,1.1339745962155614,,1.3505663189846793,1.2252854006861644,0.5291468353891065,4th,4th,3rd,1.2704670957458235,1.2953547274324329,0.053513117762775037
mem,resp,1084,1,mem2.2.1.bmp,mem3.2.1.bmp,mem2.2.1.bmp,ACC020,"[0, 0, -3]","[3, 0, -3]","[0, 0, -3]",match,1.7113248654051871,,-0.03242972802888313,0.23952258322711267,0.5134233050773244,2nd,3rd,3rd,-0.31474626458190336,0.26331391416292615,0.053513117762775037
mem,resp,1025,1,mem1.3.3.bmp,mem2.3.3.bmp,mem2.1.1.bmp,ACC020,"[-3, 3, 3]","[0, 3, 3]","[0, -3, -3]",non-match,0.3174780152878355,1,0.51158378756415,0.8273658749603692,0.4425894835608563,3rd,4th,3rd,0.2633710160958495,1.2953547274324329,0.053513117762775037
mem,resp,608,0,mem2.3.2.bmp,mem3.1.1.bmp,mem3.2.2.bmp,ACC020,"[0, 3, 0]","[3, -3, -3]","[3, 0, 0]",non-match,1.1835034190722742,4,1.707286446981457,0.32209390555364575,0.5457498966920558,4th,3rd,3rd,1.2704670957458235,0.26331391416292615,0.053513117762775037
mem,resp,882,1,mem1.2.2.bmp,mem2.2.3.bmp,mem1.2.2.bmp,ACC020,"[-3, 0, 0]","[0, 0, 3]","[-3, 0, 0]",match,1.591751709536137,,-0.500598567481588,-0.052934133039096165,0.6285116707222566,2nd,2nd,4th,-0.31474626458190336,-0.32118340794547545,1.4555100800890277
mem,resp,704,1,mem3.1.2.bmp,mem1.1.1.bmp,mem1.1.1.bmp,ACC020,"[3, -3, 0]","[-3, -3, -3]","[-3, -3, -3]",match,1.3545027756320973,,0.23238783960261036,1.1241585077204876,0.4448584349617755,3rd,4th,3rd,0.2633710160958495,1.2953547274324329,0.053513117762775037
mem,resp,616,1,mem2.2.2.bmp,mem1.3.2.bmp,mem1.3.2.bmp,ACC020,"[0, 0, 0]","[-3, 3, 0]","[-3, 3, 0]",match,1.591751709536137,,-0.47968673556116964,-0.2363171141951305,0.15679017993878844,2nd,2nd,3rd,-0.31474626458190336,-0.32118340794547545,0.053513117762775037
mem,resp,545,1,mem3.2.1.bmp,mem3.1.2.bmp,mem1.2.2.bmp,ACC020,"[3, 0, -3]","[3, -3, 0]","[-3, 0, 0]",non-match,0.7090055512641944,2,1.930148564098803,1.9569648735988614,0.3492141126975136,4th,4th,3rd,1.2704670957458235,1.2953547274324329,0.053513117762775037
mem,resp,716,1,mem2.3.2.bmp,mem3.3.3.bmp,mem3.3.3.bmp,ACC020,"[0, 3, 0]","[3, 3, 3]","[3, 3, 3]",match,1.591751709536137,,-1.4300105611267302,0.3612760309138595,0.40798541758015666,1st,3rd,3rd,-1.2157152957713615,0.26331391416292615,0.053513117762775037
mem,resp,760,1,mem2.2.3.bmp,mem1.2.1.bmp,mem2.2.3.bmp,ACC020,"[0, 0, 3]","[-3, 0, -3]","[0, 0, 3]",match,1.3545027756320973,,0.4112337177427159,-0.05166100662392995,0.14447797638101958,3rd,2nd,3rd,0.2633710160958495,-0.32118340794547545,0.053513117762775037
mem,resp,865,1,mem3.2.2.bmp,mem1.3.2.bmp,mem2.2.1.bmp,ACC020,"[3, 0, 0]","[-3, 3, 0]","[0, 0, -3]",non-match,1.091751709536137,4,-1.8409376189926145,-0.6353705702733683,0.15260028925539687,1st,2nd,3rd,-1.2157152957713615,-0.32118340794547545,0.053513117762775037
mem,resp,747,1,mem1.1.2.bmp,mem2.3.3.bmp,mem2.3.3.bmp,ACC020,"[-3, -3, 0]","[0, 3, 3]","[0, 3, 3]",match,1.2928932188134525,,-0.9953343005654198,-0.2997450281068737,0.009100401690744423,1st,2nd,3rd,-1.2157152957713615,-0.32118340794547545,0.053513117762775037
mem,resp,590,1,mem1.1.3.bmp,mem1.2.2.bmp,mem1.1.3.bmp,ACC020,"[-3, -3, 3]","[-3, 0, 0]","[-3, -3, 3]",match,1.591751709536137,,0.7900412503321131,-1.0842503602204967,-0.17388330483664202,4th,1st,3rd,1.2704670957458235,-1.2341094142375364,0.053513117762775037
mem,resp,626,1,mem1.2.1.bmp,mem1.2.3.bmp,mem1.2.3.bmp,ACC020,"[-3, 0, -3]","[-3, 0, 3]","[-3, 0, 3]",match,1.4226497308103743,,0.1390359151246532,-1.6113118763053174,-0.09146529631588517,3rd,1st,3rd,0.2633710160958495,-1.2341094142375364,0.053513117762775037
mem,resp,419,1,mem3.3.2.bmp,mem3.1.3.bmp,mem3.1.3.bmp,ACC020,"[3, 3, 0]","[3, -3, 3]","[3, -3, 3]",match,1.3545027756320973,,0.6114864579411949,0.92049410180712,0.11094842291022641,4th,4th,3rd,1.2704670957458235,1.2953547274324329,0.053513117762775037
mem,resp,428,1,mem2.1.2.bmp,mem2.2.2.bmp,mem2.1.2.bmp,ACC020,"[0, -3, 0]","[0, 0, 0]","[0, -3, 0]",match,1.7113248654051871,,0.9259184783263907,0.13195269677305482,0.04627337613438116,4th,3rd,3rd,1.2704670957458235,0.26331391416292615,0.053513117762775037
mem,resp,863,1,mem2.3.1.bmp,mem3.1.1.bmp,mem2.3.1.bmp,ACC020,"[0, 3, -3]","[3, -3, -3]","[0, 3, -3]",match,1.3545027756320973,,-0.29583010215001404,0.4177801665021816,-0.10194313809444537,2nd,3rd,3rd,-0.31474626458190336,0.26331391416292615,0.053513117762775037
mem,resp,857,1,mem1.3.1.bmp,mem3.2.2.bmp,mem1.3.1.bmp,ACC020,"[-3, 3, -3]","[3, 0, 0]","[-3, 3, -3]",match,1.2928932188134525,,-0.07842853697476496,0.8470540139552571,-0.42159657396750916,2nd,4th,2nd,-0.31474626458190336,1.2953547274324329,-0.432309265343013
mem,resp,528,1,mem2.1.3.bmp,mem3.2.3.bmp,mem1.3.3.bmp,ACC020,"[0, -3, 3]","[3, 0, 3]","[-3, 3, 3]",non-match,0.7090055512641944,2,1.5069701366765718,1.8380246981954484,-0.5350516792157373,4th,4th,2nd,1.2704670957458235,1.2953547274324329,-0.432309265343013
mem,resp,1033,0,mem3.1.3.bmp,mem1.1.1.bmp,mem1.2.1.bmp,ACC020,"[3, -3, 3]","[-3, -3, -3]","[-3, 0, -3]",non-match,0.8452994616207485,2,0.8020912165535024,-0.3455545613086246,-0.584956621823254,4th,2nd,2nd,1.2704670957458235,-0.32118340794547545,-0.432309265343013
mem,resp,815,1,mem3.1.1.bmp,mem2.1.1.bmp,mem2.1.1.bmp,ACC020,"[3, -3, -3]","[0, -3, -3]","[0, -3, -3]",match,1.7113248654051871,,0.6940191722004665,-0.7525727016881288,-0.5739024566844567,4th,1st,2nd,1.2704670957458235,-1.2341094142375364,-0.432309265343013
mem,resp,518,1,mem3.3.3.bmp,mem2.2.1.bmp,mem2.2.1.bmp,ACC020,"[3, 3, 3]","[0, 0, -3]","[0, 0, -3]",match,1.2928932188134525,,0.0912543919851322,-0.3665569590190133,-0.8477591895849146,3rd,2nd,1st,0.2633710160958495,-0.32118340794547545,-1.076027866896446
mem,resp,448,0,mem3.1.2.bmp,mem1.3.3.bmp,mem2.1.2.bmp,ACC020,"[3, -3, 0]","[-3, 3, 3]","[0, -3, 0]",non-match,1.0042180842186395,3,2.674819320175376,2.146783765860438,-0.936495925397602,4th,4th,1st,1.2704670957458235,1.2953547274324329,-1.076027866896446
mem,resp,902,0,mem1.3.2.bmp,mem3.2.2.bmp,mem1.1.1.bmp,ACC020,"[-3, 3, 0]","[3, 0, 0]","[-3, -3, -3]",non-match,0.6473959944455496,1,-0.7911620086390975,1.4009162371259407,-1.11000193163039,1st,4th,1st,-1.2157152957713615,1.2953547274324329,-1.076027866896446
mem,resp,745,1,mem3.3.1.bmp,mem2.3.1.bmp,mem3.3.1.bmp,ACC020,"[3, 3, -3]","[0, 3, -3]","[3, 3, -3]",match,1.7113248654051871,,0.22378952603652846,-1.0542195587862755,-1.0315713491694856,3rd,1st,1st,0.2633710160958495,-1.2341094142375364,-1.076027866896446
mem,resp,636,1,mem2.3.3.bmp,mem3.1.3.bmp,mem3.1.3.bmp,ACC020,"[0, 3, 3]","[3, -3, 3]","[3, -3, 3]",match,1.3545027756320973,,-0.4387506515208793,0.07700225892006413,-1.3349313893732087,2nd,3rd,1st,-0.31474626458190336,0.26331391416292615,-1.076027866896446
mem,resp,650,0,mem3.2.3.bmp,mem3.1.1.bmp,mem3.2.3.bmp,ACC020,"[3, 0, 3]","[3, -3, -3]","[3, 0, 3]",match,1.3545027756320973,,0.4204186670390164,-0.6530568465188461,-1.3239496754334261,3rd,1st,1st,0.2633710160958495,-1.2341094142375364,-1.076027866896446
mem,resp,571,0,mem2.1.1.bmp,mem3.2.1.bmp,mem1.2.1.bmp,ACC020,"[0, -3, -3]","[3, 0, -3]","[-3, 0, -3]",non-match,1.0144014403465114,3,-0.0133950896727096,0.4669937380558181,-1.2190490816396777,3rd,3rd,1st,0.2633710160958495,0.26331391416292615,-1.076027866896446
mem,resp,944,0,mem1.3.3.bmp,mem1.1.2.bmp,mem1.3.2.bmp,ACC020,"[-3, 3, 3]","[-3, -3, 0]","[-3, 3, 0]",non-match,1.1339745962155614,4,-1.8486631741011594,-0.8350715317403135,-1.4866665797066354,1st,1st,1st,-1.2157152957713615,-1.2341094142375364,-1.076027866896446
mem,resp,816,0,mem1.2.3.bmp,mem3.3.1.bmp,mem1.1.3.bmp,ACC020,"[-3, 0, 3]","[3, 3, -3]","[-3, -3, 3]",non-match,0.7113248654051871,2,1.0639931901924584,1.4789988269288448,-1.403968590631459,4th,4th,1st,1.2704670957458235,1.2953547274324329,-1.076027866896446
mem,resp,1343,0,mem2.2.1.bmp,mem1.3.1.bmp,mem2.2.3.bmp,ACC020,"[0, 0, -3]","[-3, 3, -3]","[0, 0, 3]",non-match,0.7155429496238267,2,-1.6182993240747279,-1.2775757810856196,-1.3007043775980083,1st,1st,1st,-1.2157152957713615,-1.2341094142375364,-1.076027866896446
mem,resp,1138,0,mem1.1.1.bmp,mem3.3.2.bmp,mem3.2.3.bmp,ACC020,"[-3, -3, -3]","[3, 3, 0]","[3, 0, 3]",non-match,0.7257263057516985,2,0.8897127654910508,0.5316249760518605,-1.560391646780883,4th,3rd,1st,1.2704670957458235,0.26331391416292615,-1.076027866896446
mem,resp,1023,0,mem2.2.2.bmp,mem2.1.3.bmp,mem2.1.3.bmp,ACC020,"[0, 0, 0]","[0, -3, 3]","[0, -3, 3]",match,1.591751709536137,,-0.6367753049120772,0.642654674622662,-1.6110431180035114,1st,4th,1st,-1.2157152957713615,1.2953547274324329,-1.076027866896446
mem,resp,877,1,mem1.2.2.bmp,mem2.3.2.bmp,mem1.2.2.bmp,ACC020,"[-3, 0, 0]","[0, 3, 0]","[-3, 0, 0]",match,1.591751709536137,,-1.3917095115733233,0.565812727613633,-1.341015433435977,1st,3rd,1st,-1.2157152957713615,0.26331391416292615,-1.076027866896446
mem,resp,467,1,mem3.3.3.bmp,mem1.1.3.bmp,mem3.3.3.bmp,ACC020,"[3, 3, 3]","[-3, -3, 3]","[3, 3, 3]",match,1.1835034190722742,,0.07455871608582781,0.10886623981242151,-1.669765240452998,3rd,3rd,1st,0.2633710160958495,0.26331391416292615,-1.076027866896446
mem,resp,590,1,mem3.3.1.bmp,mem3.2.3.bmp,mem3.2.3.bmp,ACC020,"[3, 3, -3]","[3, 0, 3]","[3, 0, 3]",match,1.3545027756320973,,-0.48132879866808226,0.09526786046181428,-1.5913113371048544,2nd,3rd,1st,-0.31474626458190336,0.26331391416292615,-1.076027866896446
mem,resp,683,1,mem1.1.2.bmp,mem2.2.1.bmp,mem3.1.3.bmp,ACC020,"[-3, -3, 0]","[0, 0, -3]","[3, -3, 3]",non-match,0.6473959944455496,1,1.1419141518035216,1.30631344455212,-1.69241596848866,4th,4th,1st,1.2704670957458235,1.2953547274324329,-1.076027866896446
mem,resp,562,0,mem1.3.2.bmp,mem2.2.3.bmp,mem2.2.3.bmp,ACC020,"[-3, 3, 0]","[0, 0, 3]","[0, 0, 3]",match,1.5,,2.2669312183875894,0.7407464941424371,-1.5080956007914919,4th,4th,1st,1.2704670957458235,1.2953547274324329,-1.076027866896446
mem,resp,725,0,mem1.1.3.bmp,mem2.1.2.bmp,mem1.1.3.bmp,ACC020,"[-3, -3, 3]","[0, -3, 0]","[-3, -3, 3]",match,1.591751709536137,,0.9692322757196716,1.4681625087856571,-1.1451015765697556,4th,4th,1st,1.2704670957458235,1.2953547274324329,-1.076027866896446
mem,resp,517,0,mem3.2.3.bmp,mem1.3.3.bmp,mem2.2.2.bmp,ACC020,"[3, 0, 3]","[-3, 3, 3]","[0, 0, 0]",non-match,1.091751709536137,4,-0.3239152054001349,0.5872554588570768,-1.1444069919450104,2nd,3rd,1st,-0.31474626458190336,0.26331391416292615,-1.076027866896446
mem,resp,720,1,mem1.2.1.bmp,mem1.2.3.bmp,mem1.2.3.bmp,ACC020,"[-3, 0, -3]","[-3, 0, 3]","[-3, 0, 3]",match,1.4226497308103743,,-0.9527238063135305,0.4214998475892521,-1.218095484237538,1st,3rd,1st,-1.2157152957713615,0.26331391416292615,-1.076027866896446
mem,resp,603,1,mem1.3.1.bmp,mem1.3.2.bmp,mem1.3.2.bmp,ACC020,"[-3, 3, -3]","[-3, 3, 0]","[-3, 3, 0]",match,1.7113248654051871,,0.17434105754464777,-0.45350090365051554,-0.9744990520631793,3rd,2nd,1st,0.2633710160958495,-0.32118340794547545,-1.076027866896446
mem,resp,714,1,mem3.1.2.bmp,mem3.3.3.bmp,mem1.1.2.bmp,ACC020,"[3, -3, 0]","[3, 3, 3]","[-3, -3, 0]",non-match,0.5566243270259357,1,0.09797038070048758,-1.6765727143008151,-1.099798252649139,3rd,1st,1st,0.2633710160958495,-1.2341094142375364,-1.076027866896446
mem,resp,553,1,mem3.2.1.bmp,mem3.2.2.bmp,mem3.2.2.bmp,ACC020,"[3, 0, -3]","[3, 0, 0]","[3, 0, 0]",match,1.7113248654051871,,-0.34671868991104804,0.16763244761965704,-0.9721353546277909,2nd,3rd,1st,-0.31474626458190336,0.26331391416292615,-1.076027866896446
mem,resp,566,1,mem2.1.1.bmp,mem2.1.3.bmp,mem2.3.1.bmp,ACC020,"[0, -3, -3]","[0, -3, 3]","[0, 3, -3]",non-match,0.6061531498826483,1,3.207274416098421,-0.7109918958400089,-0.9863119531259147,4th,1st,1st,1.2704670957458235,-1.2341094142375364,-1.076027866896446
mem,resp,669,1,mem3.1.3.bmp,mem3.1.2.bmp,mem3.3.1.bmp,ACC020,"[3, -3, 3]","[3, -3, 0]","[3, 3, -3]",non-match,0.5380061947043713,1,1.5130450482729332,-1.7117650746283817,-0.9863862416748483,4th,1st,1st,1.2704670957458235,-1.2341094142375364,-1.076027866896446
mem,resp,752,1,mem2.1.2.bmp,mem2.1.1.bmp,mem2.1.1.bmp,ACC020,"[0, -3, 0]","[0, -3, -3]","[0, -3, -3]",match,1.7113248654051871,,-0.15263235709690948,0.034489506830085906,-0.9536823363064346,2nd,3rd,1st,-0.31474626458190336,0.26331391416292615,-1.076027866896446
mem,resp,483,1,mem1.2.2.bmp,mem1.1.3.bmp,mem1.1.3.bmp,ACC020,"[-3, 0, 0]","[-3, -3, 3]","[-3, -3, 3]",match,1.591751709536137,,0.5451217572720749,-0.509655210386486,-0.9073216295729254,3rd,2nd,1st,0.2633710160958495,-0.32118340794547545,-1.076027866896446
mem,resp,754,0,mem1.2.3.bmp,mem3.1.2.bmp,mem1.2.3.bmp,ACC020,"[-3, 0, 3]","[3, -3, 0]","[-3, 0, 3]",match,1.2928932188134525,,0.8420174558293043,0.6240544304917629,-1.2629516108754835,4th,3rd,1st,1.2704670957458235,0.26331391416292615,-1.076027866896446
mem,resp,576,0,mem3.2.2.bmp,mem1.2.1.bmp,mem2.3.3.bmp,ACC020,"[3, 0, 0]","[-3, 0, -3]","[0, 3, 3]",non-match,0.7928932188134524,2,0.2089154941414488,-1.902538760626456,-1.1434820285840623,3rd,1st,1st,0.2633710160958495,-1.2341094142375364,-1.076027866896446
mem,resp,819,0,mem3.2.1.bmp,mem1.1.2.bmp,mem2.1.3.bmp,ACC020,"[3, 0, -3]","[-3, -3, 0]","[0, -3, 3]",non-match,0.8846449283495895,2,-0.2090483789917209,0.49371175491704306,-1.2791203608928279,2nd,3rd,1st,-0.31474626458190336,0.26331391416292615,-1.076027866896446
mem,resp,510,1,mem1.3.1.bmp,mem1.3.2.bmp,mem3.2.3.bmp,ACC020,"[-3, 3, -3]","[-3, 3, 0]","[3, 0, 3]",non-match,0.42686781502901383,1,1.1242195957192775,-0.13233111775717077,-1.2189210492176368,4th,2nd,1st,1.2704670957458235,-0.32118340794547545,-1.076027866896446
mem,resp,813,1,mem3.3.2.bmp,mem3.3.1.bmp,mem3.3.2.bmp,ACC020,"[3, 3, 0]","[3, 3, -3]","[3, 3, 0]",match,1.7113248654051871,,-1.6429209806604153,0.8838723259430811,-1.3608535356071116,1st,4th,1st,-1.2157152957713615,1.2953547274324329,-1.076027866896446
mem,resp,795,1,mem3.1.3.bmp,mem3.3.3.bmp,mem2.2.3.bmp,ACC020,"[3, -3, 3]","[3, 3, 3]","[0, 0, 3]",non-match,1.1835034190722742,4,-0.12279581485491499,-0.053922602143998036,-1.445715587460831,2nd,2nd,1st,-0.31474626458190336,-0.32118340794547545,-1.076027866896446
mem,resp,666,0,mem2.2.2.bmp,mem1.2.2.bmp,mem2.2.2.bmp,ACC020,"[0, 0, 0]","[-3, 0, 0]","[0, 0, 0]",match,1.7113248654051871,,0.021202471782868708,0.2823177453328006,-1.4626848206127285,3rd,3rd,1st,0.2633710160958495,0.26331391416292615,-1.076027866896446
mem,resp,489,1,mem2.1.3.bmp,mem1.3.3.bmp,mem2.1.3.bmp,ACC020,"[0, -3, 3]","[-3, 3, 3]","[0, -3, 3]",match,1.3545027756320973,,1.0785456023189446,-0.9460787914154845,-1.4204167339520375,4th,1st,1st,1.2704670957458235,-1.2341094142375364,-1.076027866896446
mem,resp,577,1,mem2.3.1.bmp,mem2.3.2.bmp,mem2.3.1.bmp,ACC020,"[0, 3, -3]","[0, 3, 0]","[0, 3, -3]",match,1.7113248654051871,,-0.1083785867027586,-0.04552167029977607,-1.5253997796005738,2nd,2nd,1st,-0.31474626458190336,-0.32118340794547545,-1.076027866896446
mem,resp,649,1,mem1.3.2.bmp,mem2.3.3.bmp,mem1.3.2.bmp,ACC020,"[-3, 3, 0]","[0, 3, 3]","[-3, 3, 0]",match,1.591751709536137,,-0.0032690794560812143,0.19312473555086934,-1.3580725586599602,3rd,3rd,1st,0.2633710160958495,0.26331391416292615,-1.076027866896446
mem,resp,590,1,mem3.3.1.bmp,mem2.2.3.bmp,mem2.2.3.bmp,ACC020,"[3, 3, -3]","[0, 0, 3]","[0, 0, 3]",match,1.2928932188134525,,-0.26659854173312764,-0.5537237032068456,-1.485353039163928,2nd,2nd,1st,-0.31474626458190336,-0.32118340794547545,-1.076027866896446
mem,resp,523,0,mem1.2.1.bmp,mem2.2.2.bmp,mem1.1.1.bmp,ACC020,"[-3, 0, -3]","[0, 0, 0]","[-3, -3, -3]",non-match,1.2113248654051871,4,1.1108775997797693,-0.3912800593139971,-1.23516544431137,4th,2nd,1st,1.2704670957458235,-0.32118340794547545,-1.076027866896446
mem,resp,614,1,mem1.1.3.bmp,mem3.3.2.bmp,mem3.3.2.bmp,ACC020,"[-3, -3, 3]","[3, 3, 0]","[3, 3, 0]",match,1.1339745962155614,,-0.3759402817698472,0.40750689779470356,-0.9661221764309497,2nd,3rd,1st,-0.31474626458190336,0.26331391416292615,-1.076027866896446
mem,resp,523,1,mem2.1.1.bmp,mem3.2.1.bmp,mem3.2.1.bmp,ACC020,"[0, -3, -3]","[3, 0, -3]","[3, 0, -3]",match,1.591751709536137,,-1.9371765815906286,-1.3165727089445747,-1.1388261915104758,1st,1st,1st,-1.2157152957713615,-1.2341094142375364,-1.076027866896446
mem,resp,655,0,mem3.1.2.bmp,mem1.2.3.bmp,mem1.3.3.bmp,ACC020,"[3, -3, 0]","[-3, 0, 3]","[-3, 3, 3]",non-match,0.8452994616207485,2,-0.3710536879952016,0.4789798538130022,-1.134583975126264,2nd,3rd,1st,-0.31474626458190336,0.26331391416292615,-1.076027866896446
mem,resp,880,0,mem3.3.3.bmp,mem2.3.1.bmp,mem3.3.3.bmp,ACC020,"[3, 3, 3]","[0, 3, -3]","[3, 3, 3]",match,1.3545027756320973,,0.730187094279877,1.2730507611488724,-0.9106642611357558,4th,4th,1st,1.2704670957458235,1.2953547274324329,-1.076027866896446
mem,resp,539,1,mem3.2.3.bmp,mem3.1.3.bmp,mem3.2.3.bmp,ACC020,"[3, 0, 3]","[3, -3, 3]","[3, 0, 3]",match,1.7113248654051871,,0.05089595192160286,-0.8117196556728008,-1.2438814414273942,3rd,1st,1st,0.2633710160958495,-1.2341094142375364,-1.076027866896446
mem,resp,1335,1,mem2.2.1.bmp,mem3.1.1.bmp,mem1.2.1.bmp,ACC020,"[0, 0, -3]","[3, -3, -3]","[-3, 0, -3]",non-match,1.0658276410372842,3,0.4274677897120498,-0.824879199686723,-1.233118146723904,3rd,1st,1st,0.2633710160958495,-1.2341094142375364,-1.076027866896446
mem,resp,545,1,mem1.1.1.bmp,mem2.2.2.bmp,mem1.1.1.bmp,ACC020,"[-3, -3, -3]","[0, 0, 0]","[-3, -3, -3]",match,1.5,,0.6420895776631025,0.024148002087946464,-1.4739553389370392,4th,3rd,1st,1.2704670957458235,0.26331391416292615,-1.076027866896446
mem,resp,447,1,mem1.1.2.bmp,mem1.2.3.bmp,mem1.1.2.bmp,ACC020,"[-3, -3, 0]","[-3, 0, 3]","[-3, -3, 0]",match,1.591751709536137,,0.8035982390828432,-1.4334149327314047,-1.5103134640087552,4th,1st,1st,1.2704670957458235,-1.2341094142375364,-1.076027866896446
mem,resp,458,1,mem2.3.2.bmp,mem2.2.3.bmp,mem2.3.2.bmp,ACC020,"[0, 3, 0]","[0, 0, 3]","[0, 3, 0]",match,1.591751709536137,,0.8180870481581067,0.5824738970429837,-1.2393755139090776,4th,3rd,1st,1.2704670957458235,0.26331391416292615,-1.076027866896446
mem,resp,569,0,mem1.3.3.bmp,mem2.1.2.bmp,mem1.2.2.bmp,ACC020,"[-3, 3, 3]","[0, -3, 0]","[-3, 0, 0]",non-match,1.1835034190722742,4,0.2765373134210883,0.5054956141643022,-1.073485139699099,3rd,3rd,1st,0.2633710160958495,0.26331391416292615,-1.076027866896446
mem,resp,530,1,mem3.1.1.bmp,mem3.2.2.bmp,mem3.1.1.bmp,ACC020,"[3, -3, -3]","[3, 0, 0]","[3, -3, -3]",match,1.591751709536137,,-0.16507605523319618,-0.12869588046548933,-1.1609085270368684,2nd,2nd,1st,-0.31474626458190336,-0.32118340794547545,-1.076027866896446
mem,resp,783,1,mem2.3.3.bmp,mem2.3.1.bmp,mem1.1.1.bmp,ACC020,"[0, 3, 3]","[0, 3, -3]","[-3, -3, -3]",non-match,0.4884773718476586,1,0.38710804241341884,-0.43199572485838494,-1.066665063740712,3rd,2nd,1st,0.2633710160958495,-0.32118340794547545,-1.076027866896446
mem,resp,695,0,mem2.2.3.bmp,mem2.1.3.bmp,mem2.1.1.bmp,ACC020,"[0, 0, 3]","[0, -3, 3]","[0, -3, -3]",non-match,0.7771525064424715,2,-1.0575450153747106,0.9626819495843545,-0.7765384631085104,1st,4th,1st,-1.2157152957713615,1.2953547274324329,-1.076027866896446
mem,resp,820,1,mem1.3.2.bmp,mem3.3.3.bmp,mem3.2.3.bmp,ACC020,"[-3, 3, 0]","[3, 3, 3]","[3, 0, 3]",non-match,1.0042180842186395,3,-1.332097235021675,-1.022992719950098,-0.5763481418674153,1st,1st,2nd,-1.2157152957713615,-1.2341094142375364,-0.432309265343013
mem,resp,741,1,mem2.2.2.bmp,mem3.2.1.bmp,mem1.2.1.bmp,ACC020,"[0, 0, 0]","[3, 0, -3]","[-3, 0, -3]",non-match,1.0144014403465114,3,-0.3155543622008967,0.7016990021560011,-0.5427927869093385,2nd,4th,2nd,-0.31474626458190336,1.2953547274324329,-0.432309265343013
mem,resp,624,0,mem3.1.2.bmp,mem3.1.3.bmp,mem3.1.3.bmp,ACC020,"[3, -3, 0]","[3, -3, 3]","[3, -3, 3]",match,1.7113248654051871,,0.12091184225479175,0.6330128275852245,-0.38681862092665315,3rd,4th,2nd,0.2633710160958495,1.2953547274324329,-0.432309265343013
mem,resp,1017,0,mem2.1.2.bmp,mem3.3.2.bmp,mem2.1.2.bmp,ACC020,"[0, -3, 0]","[3, 3, 0]","[0, -3, 0]",match,1.3545027756320973,,-1.6918553149731768,-0.7938131445609607,-0.11556868908458659,1st,1st,3rd,-1.2157152957713615,-1.2341094142375364,0.053513117762775037
mem,resp,671,0,mem3.1.1.bmp,mem1.3.3.bmp,mem1.3.2.bmp,ACC020,"[3, -3, -3]","[-3, 3, 3]","[-3, 3, 0]",non-match,0.8452994616207485,2,-0.7477098089345081,-1.4357503144226855,-0.013288740522490345,1st,1st,3rd,-1.2157152957713615,-1.2341094142375364,0.053513117762775037
mem,resp,732,1,mem3.2.1.bmp,mem2.1.1.bmp,mem3.2.2.bmp,ACC020,"[3, 0, -3]","[0, -3, -3]","[3, 0, 0]",non-match,1.2113248654051871,4,0.19602593157691386,0.5784231826580193,-0.2183774592399182,3rd,3rd,3rd,0.2633710160958495,0.26331391416292615,0.053513117762775037
mem,resp,983,0,mem1.3.1.bmp,mem1.2.2.bmp,mem1.2.3.bmp,ACC020,"[-3, 3, -3]","[-3, 0, 0]","[-3, 0, 3]",non-match,1.0658276410372842,3,-1.0061755716383032,-0.20717433460919848,-0.1260001450675227,1st,2nd,3rd,-1.2157152957713615,-0.32118340794547545,0.053513117762775037
mem,resp,999,0,mem3.1.3.bmp,mem1.2.1.bmp,mem2.3.3.bmp,ACC020,"[3, -3, 3]","[-3, 0, -3]","[0, 3, 3]",non-match,0.6473959944455496,1,0.01707050847367364,-0.6617164896361996,-0.28099377090423794,3rd,1st,2nd,0.2633710160958495,-1.2341094142375364,-0.432309265343013
mem,resp,952,0,mem3.3.3.bmp,mem1.1.2.bmp,mem3.3.2.bmp,ACC020,"[3, 3, 3]","[-3, -3, 0]","[3, 3, 0]",non-match,0.8948282844774612,3,0.2635612593833563,-0.344898964197162,-0.3368600095074548,3rd,2nd,2nd,0.2633710160958495,-0.32118340794547545,-0.432309265343013
mem,resp,604,1,mem2.3.2.bmp,mem1.1.3.bmp,mem3.1.1.bmp,ACC020,"[0, 3, 0]","[-3, -3, 3]","[3, -3, -3]",non-match,0.4763966378857265,1,2.194645552193816,1.087725640798715,-0.24708923048433273,4th,4th,3rd,1.2704670957458235,1.2953547274324329,0.053513117762775037
mem,resp,615,1,mem1.2.3.bmp,mem2.2.1.bmp,mem1.3.3.bmp,ACC020,"[-3, 0, 3]","[0, 0, -3]","[-3, 3, 3]",non-match,1.0042180842186395,3,2.8972957244703625,1.9087915951245544,-0.14897899951178242,4th,4th,3rd,1.2704670957458235,1.2953547274324329,0.053513117762775037
mem,resp,789,1,mem3.2.3.bmp,mem3.3.1.bmp,mem3.2.3.bmp,ACC020,"[3, 0, 3]","[3, 3, -3]","[3, 0, 3]",match,1.3545027756320973,,0.5429596557387344,1.4874970053374332,-0.1026000186399584,3rd,4th,3rd,0.2633710160958495,1.2953547274324329,0.053513117762775037
mem,resp,529,1,mem1.1.1.bmp,mem1.3.2.bmp,mem3.2.2.bmp,ACC020,"[-3, -3, -3]","[-3, 3, 0]","[3, 0, 0]",non-match,0.6473959944455496,1,1.878014001585392,-0.7478495014326234,0.27254488959935447,4th,1st,3rd,1.2704670957458235,-1.2341094142375364,0.053513117762775037
mem,resp,820,1,mem2.1.3.bmp,mem1.1.1.bmp,mem2.1.3.bmp,ACC020,"[0, -3, 3]","[-3, -3, -3]","[0, -3, 3]",match,1.3545027756320973,,0.6508345063132727,-1.506486021627366,-9.529208284000718e-06,4th,1st,3rd,1.2704670957458235,-1.2341094142375364,0.053513117762775037
mem,resp,600,1,mem3.1.2.bmp,mem3.1.1.bmp,mem1.1.2.bmp,ACC020,"[3, -3, 0]","[3, -3, -3]","[-3, -3, 0]",non-match,0.7771525064424715,2,1.837534302843232,-0.5469438198347618,-0.059590204534456674,4th,2nd,3rd,1.2704670957458235,-0.32118340794547545,0.053513117762775037
mem,resp,1207,1,mem2.2.2.bmp,mem3.3.2.bmp,mem1.2.1.bmp,ACC020,"[0, 0, 0]","[3, 3, 0]","[-3, 0, -3]",non-match,0.8846449283495895,2,-0.3195054954056679,-0.9949611253717224,-0.3975799443280859,2nd,1st,2nd,-0.31474626458190336,-1.2341094142375364,-0.432309265343013
mem,resp,809,0,mem3.3.3.bmp,mem1.1.3.bmp,mem3.3.1.bmp,ACC020,"[3, 3, 3]","[-3, -3, 3]","[3, 3, -3]",non-match,0.42264973081037427,1,0.2777854744034127,-0.4665395023574924,-0.6591455418184116,3rd,2nd,1st,0.2633710160958495,-0.32118340794547545,-1.076027866896446
mem,resp,650,0,mem2.1.2.bmp,mem2.3.3.bmp,mem2.3.3.bmp,ACC020,"[0, -3, 0]","[0, 3, 3]","[0, 3, 3]",match,1.3545027756320973,,-1.0099865117109106,-0.04057952907477406,-0.35631778722503393,1st,3rd,2nd,-1.2157152957713615,0.26331391416292615,-0.432309265343013
mem,resp,641,1,mem2.2.3.bmp,mem2.2.1.bmp,mem3.1.2.bmp,ACC020,"[0, 0, 3]","[0, 0, -3]","[3, -3, 0]",non-match,1.0,3,0.6283594412920367,-0.24441915586357446,-0.19728757753026493,4th,2nd,3rd,1.2704670957458235,-0.32118340794547545,0.053513117762775037
mem,resp,745,1,mem2.3.2.bmp,mem2.3.1.bmp,mem1.3.1.bmp,ACC020,"[0, 3, 0]","[0, 3, -3]","[-3, 3, -3]",non-match,1.3030765749413242,4,0.27991934922551454,-2.5525220792170553,-0.4495897738822463,3rd,1st,2nd,0.2633710160958495,-1.2341094142375364,-0.432309265343013
mem,resp,786,1,mem1.3.2.bmp,mem3.2.1.bmp,mem1.3.2.bmp,ACC020,"[-3, 3, 0]","[3, 0, -3]","[-3, 3, 0]",match,1.2928932188134525,,0.1546359313547898,1.0878055900049952,-0.412158122939924,3rd,4th,2nd,0.2633710160958495,1.2953547274324329,-0.432309265343013
mem,resp,695,0,mem3.3.1.bmp,mem2.1.3.bmp,mem1.1.1.bmp,ACC020,"[3, 3, -3]","[0, -3, 3]","[-3, -3, -3]",non-match,0.5380061947043713,1,-0.42369031805173196,-1.2220443154404816,-0.6834515182256279,2nd,1st,1st,-0.31474626458190336,-1.2341094142375364,-1.076027866896446
mem,resp,607,1,mem1.3.3.bmp,mem1.2.2.bmp,mem1.2.2.bmp,ACC020,"[-3, 3, 3]","[-3, 0, 0]","[-3, 0, 0]",match,1.591751709536137,,-1.1715967764304418,-0.8982345032440213,-0.5783855990540985,1st,1st,2nd,-1.2157152957713615,-1.2341094142375364,-0.432309265343013
mem,resp,587,1,mem1.2.1.bmp,mem2.3.2.bmp,mem2.3.1.bmp,ACC020,"[-3, 0, -3]","[0, 3, 0]","[0, 3, -3]",non-match,1.3030765749413242,4,2.3624869833904967,0.865078269681797,-0.6077141289674669,4th,4th,2nd,1.2704670957458235,1.2953547274324329,-0.432309265343013
mem,resp,546,1,mem1.1.3.bmp,mem1.1.2.bmp,mem1.1.3.bmp,ACC020,"[-3, -3, 3]","[-3, -3, 0]","[-3, -3, 3]",match,1.7113248654051871,,0.04625633175080058,-0.9519592802668346,-0.7002848023132435,3rd,1st,1st,0.2633710160958495,-1.2341094142375364,-1.076027866896446
mem,resp,689,1,mem3.3.2.bmp,mem3.2.2.bmp,mem3.2.2.bmp,ACC020,"[3, 3, 0]","[3, 0, 0]","[3, 0, 0]",match,1.7113248654051871,,-0.08914033659915405,0.49349867053335494,-0.5643383215387261,2nd,3rd,2nd,-0.31474626458190336,0.26331391416292615,-0.432309265343013
mem,resp,539,1,mem2.1.1.bmp,mem3.1.3.bmp,mem3.1.3.bmp,ACC020,"[0, -3, -3]","[3, -3, 3]","[3, -3, 3]",match,1.3545027756320973,,0.05635464980394776,-0.6447087601465777,-0.3723457935053126,3rd,1st,2nd,0.2633710160958495,-1.2341094142375364,-0.432309265343013
mem,resp,460,1,mem1.3.1.bmp,mem1.3.2.bmp,mem1.3.1.bmp,ACC020,"[-3, 3, -3]","[-3, 3, 0]","[-3, 3, -3]",match,1.7113248654051871,,1.7791558481009595,0.9408135943722137,-0.4545206612711595,4th,4th,2nd,1.2704670957458235,1.2953547274324329,-0.432309265343013
mem,resp,479,0,mem1.1.1.bmp,mem3.2.3.bmp,mem2.1.3.bmp,ACC020,"[-3, -3, -3]","[3, 0, 3]","[0, -3, 3]",non-match,0.9462544851682343,3,1.1108661172605196,1.1135981301086855,-0.3022932391532725,4th,4th,2nd,1.2704670957458235,1.2953547274324329,-0.432309265343013
mem,resp,730,1,mem2.3.1.bmp,mem1.3.3.bmp,mem2.3.1.bmp,ACC020,"[0, 3, -3]","[-3, 3, 3]","[0, 3, -3]",match,1.3545027756320973,,-0.5567503773189584,-1.371849855755937,-0.4631664671728276,2nd,1st,2nd,-0.31474626458190336,-1.2341094142375364,-0.432309265343013
mem,resp,864,0,mem3.2.1.bmp,mem2.1.1.bmp,mem3.2.1.bmp,ACC020,"[3, 0, -3]","[0, -3, -3]","[3, 0, -3]",match,1.591751709536137,,2.083494969508349,1.5122047150697089,-0.38062359113256206,4th,4th,2nd,1.2704670957458235,1.2953547274324329,-0.432309265343013
mem,resp,1131,0,mem3.1.1.bmp,mem2.2.2.bmp,mem3.3.2.bmp,ACC020,"[3, -3, -3]","[0, 0, 0]","[3, 3, 0]",non-match,0.9462544851682343,3,-1.2228334395071563,-0.6446426352068017,-0.365654873050234,1st,1st,2nd,-1.2157152957713615,-1.2341094142375364,-0.432309265343013
mem,resp,622,1,mem3.1.3.bmp,mem2.1.2.bmp,mem3.3.1.bmp,ACC020,"[3, -3, 3]","[0, -3, 0]","[3, 3, -3]",non-match,0.4763966378857265,1,3.059088655484075,0.27323458934163447,-0.6050547467791303,4th,3rd,2nd,1.2704670957458235,0.26331391416292615,-0.432309265343013
mem,resp,883,1,mem2.3.3.bmp,mem3.3.3.bmp,mem2.3.3.bmp,ACC020,"[0, 3, 3]","[3, 3, 3]","[0, 3, 3]",match,1.7113248654051871,,-1.5604105773957473,-1.0257836554875548,-0.8297218983645972,1st,1st,1st,-1.2157152957713615,-1.2341094142375364,-1.076027866896446
mem,resp,664,1,mem1.2.3.bmp,mem2.2.3.bmp,mem3.1.2.bmp,ACC020,"[-3, 0, 3]","[0, 0, 3]","[3, -3, 0]",non-match,0.7928932188134524,2,0.6143997166436905,-0.48551116298843433,-0.7549305135245458,4th,2nd,1st,1.2704670957458235,-0.32118340794547545,-1.076027866896446
mem,resp,990,0,mem1.2.2.bmp,mem3.3.2.bmp,mem3.3.2.bmp,ACC020,"[-3, 0, 0]","[3, 3, 0]","[3, 3, 0]",match,1.3545027756320973,,0.5714355245797565,-1.8897652064772654,-0.7950966755582823,3rd,1st,1st,0.2633710160958495,-1.2341094142375364,-1.076027866896446
mem,resp,931,0,mem2.2.1.bmp,mem1.3.3.bmp,mem2.2.1.bmp,ACC020,"[0, 0, -3]","[-3, 3, 3]","[0, 0, -3]",match,1.2928932188134525,,-0.5370045050416085,-0.38286482650442766,-0.7247398808324725,2nd,2nd,1st,-0.31474626458190336,-0.32118340794547545,-1.076027866896446
mem,resp,844,1,mem3.2.2.bmp,mem2.3.3.bmp,mem1.1.1.bmp,ACC020,"[3, 0, 0]","[0, 3, 3]","[-3, -3, -3]",non-match,0.42686781502901383,1,-0.667153297499964,-1.5390986240057851,-0.8270899849044272,1st,1st,1st,-1.2157152957713615,-1.2341094142375364,-1.076027866896446
mem,resp,768,1,mem3.2.3.bmp,mem1.3.1.bmp,mem2.1.1.bmp,ACC020,"[3, 0, 3]","[-3, 3, -3]","[0, -3, -3]",non-match,0.6473959944455496,1,1.2224638460290196,-0.3970193091075753,-0.8958212798484789,4th,2nd,1st,1.2704670957458235,-0.32118340794547545,-1.076027866896446
mem,resp,619,1,mem1.1.2.bmp,mem1.2.2.bmp,mem2.3.2.bmp,ACC020,"[-3, -3, 0]","[-3, 0, 0]","[0, 3, 0]",non-match,0.9462544851682343,3,2.082127543909354,0.1636652236323919,-0.6499400604032931,4th,3rd,1st,1.2704670957458235,0.26331391416292615,-1.076027866896446
mem,resp,610,1,mem1.3.2.bmp,mem2.1.3.bmp,mem3.1.1.bmp,ACC020,"[-3, 3, 0]","[0, -3, 3]","[3, -3, -3]",non-match,0.4884773718476586,1,1.7563928170067438,-0.5360683442864541,-0.510792410374319,4th,2nd,2nd,1.2704670957458235,-0.32118340794547545,-0.432309265343013
mem,resp,931,0,mem3.2.2.bmp,mem1.2.1.bmp,mem2.1.2.bmp,ACC020,"[3, 0, 0]","[-3, 0, -3]","[0, -3, 0]",non-match,1.091751709536137,4,-1.2581132505511576,-0.03792867489789441,-0.35374888752996964,1st,3rd,2nd,-1.2157152957713615,0.26331391416292615,-0.432309265343013
mem,resp,1166,1,mem1.1.1.bmp,mem2.1.1.bmp,mem2.2.3.bmp,ACC020,"[-3, -3, -3]","[0, -3, -3]","[0, 0, 3]",non-match,0.6473959944455496,1,-0.06841021494095328,0.051498189717397905,-0.3216933745365924,2nd,3rd,2nd,-0.31474626458190336,0.26331391416292615,-0.432309265343013
mem,resp,788,0,mem2.2.1.bmp,mem2.3.2.bmp,mem2.2.1.bmp,ACC020,"[0, 0, -3]","[0, 3, 0]","[0, 0, -3]",match,1.591751709536137,,-0.3322524911670711,-0.20470013140428725,-0.5412219008798641,2nd,2nd,2nd,-0.31474626458190336,-0.32118340794547545,-0.432309265343013
mem,resp,701,1,mem2.3.3.bmp,mem1.1.2.bmp,mem1.1.2.bmp,ACC020,"[0, 3, 3]","[-3, -3, 0]","[-3, -3, 0]",match,1.2928932188134525,,0.2906556678330675,0.07713028660984834,-0.3625090255170238,3rd,3rd,2nd,0.2633710160958495,0.26331391416292615,-0.432309265343013
mem,resp,670,1,mem2.2.2.bmp,mem1.3.2.bmp,mem1.3.2.bmp,ACC020,"[0, 0, 0]","[-3, 3, 0]","[-3, 3, 0]",match,1.591751709536137,,-1.0839544263916452,-1.9948436945180767,-0.22889474583964667,1st,1st,3rd,-1.2157152957713615,-1.2341094142375364,0.053513117762775037
mem,resp,643,1,mem1.1.3.bmp,mem3.2.1.bmp,mem3.2.1.bmp,ACC020,"[-3, -3, 3]","[3, 0, -3]","[3, 0, -3]",match,1.1339745962155614,,0.27721323041404516,-0.360286326212996,-0.5893025320872418,3rd,2nd,2nd,0.2633710160958495,-0.32118340794547545,-0.432309265343013
mem,resp,885,0,mem2.2.3.bmp,mem2.3.1.bmp,mem1.3.1.bmp,ACC020,"[0, 0, 3]","[0, 3, -3]","[-3, 3, -3]",non-match,1.0042180842186395,3,-0.05189280139711542,-0.7368859046978368,-0.6183704466895797,2nd,1st,1st,-0.31474626458190336,-1.2341094142375364,-1.076027866896446
mem,resp,910,1,mem2.3.2.bmp,mem3.3.3.bmp,mem2.1.1.bmp,ACC020,"[0, 3, 0]","[3, 3, 3]","[0, -3, -3]",non-match,0.4884773718476586,1,1.1520641044974074,-0.037302905514156874,-0.4720719719238346,4th,3rd,2nd,1.2704670957458235,0.26331391416292615,-0.432309265343013
mem,resp,652,0,mem3.3.1.bmp,mem3.2.3.bmp,mem3.2.2.bmp,ACC020,"[3, 3, -3]","[3, 0, 3]","[3, 0, 0]",non-match,1.3030765749413242,4,-0.051637490430179796,0.6313349157508686,-0.22470255869587183,2nd,4th,3rd,-0.31474626458190336,1.2953547274324329,0.053513117762775037
mem,resp,689,1,mem2.1.2.bmp,mem3.1.2.bmp,mem2.1.2.bmp,ACC020,"[0, -3, 0]","[3, -3, 0]","[0, -3, 0]",match,1.7113248654051871,,0.288996288987232,-1.1776444828729717,-0.22058456423165534,3rd,1st,3rd,0.2633710160958495,-1.2341094142375364,0.053513117762775037
mem,resp,610,1,mem1.2.1.bmp,mem1.1.3.bmp,mem1.1.3.bmp,ACC020,"[-3, 0, -3]","[-3, -3, 3]","[-3, -3, 3]",match,1.3545027756320973,,0.41925678124134436,0.11094532777471226,-0.20469476194771852,3rd,3rd,3rd,0.2633710160958495,0.26331391416292615,0.053513117762775037
mem,resp,522,1,mem1.2.2.bmp,mem1.3.2.bmp,mem1.3.2.bmp,ACC020,"[-3, 0, 0]","[-3, 3, 0]","[-3, 3, 0]",match,1.7113248654051871,,0.7544451145104403,-0.16960835453300244,-0.35589478968902455,4th,2nd,2nd,1.2704670957458235,-0.32118340794547545,-0.432309265343013
mem,resp,610,1,mem2.1.3.bmp,mem3.1.1.bmp,mem3.1.1.bmp,ACC020,"[0, -3, 3]","[3, -3, -3]","[3, -3, -3]",match,1.3545027756320973,,-0.4888797593143004,-0.5739696479501478,-0.407588945602346,2nd,2nd,2nd,-0.31474626458190336,-0.32118340794547545,-0.432309265343013
mem,resp,731,1,mem3.1.2.bmp,mem2.1.1.bmp,mem2.1.1.bmp,ACC020,"[3, -3, 0]","[0, -3, -3]","[0, -3, -3]",match,1.591751709536137,,-0.22450996640577045,-2.140897104175088,-0.3457796358348012,2nd,1st,2nd,-0.31474626458190336,-1.2341094142375364,-0.432309265343013
mem,resp,682,0,mem3.2.1.bmp,mem1.2.2.bmp,mem1.1.2.bmp,ACC020,"[3, 0, -3]","[-3, 0, 0]","[-3, -3, 0]",non-match,1.0042180842186395,3,-1.0518860477532737,-0.43443935123738453,-0.5638211416865093,1st,2nd,2nd,-1.2157152957713615,-0.32118340794547545,-0.432309265343013
mem,resp,785,1,mem2.1.2.bmp,mem1.3.3.bmp,mem2.1.2.bmp,ACC020,"[0, -3, 0]","[-3, 3, 3]","[0, -3, 0]",match,1.2928932188134525,,-0.37787435028095456,-0.2735392582044538,-0.5291223328154392,2nd,2nd,2nd,-0.31474626458190336,-0.32118340794547545,-0.432309265343013
mem,resp,708,0,mem3.2.2.bmp,mem3.1.3.bmp,mem3.1.1.bmp,ACC020,"[3, 0, 0]","[3, -3, 3]","[3, -3, -3]",non-match,1.0144014403465114,3,-1.3083647753232117,-1.2894950228048419,-0.6682957300969,1st,1st,1st,-1.2157152957713615,-1.2341094142375364,-1.076027866896446
mem,resp,818,1,mem1.3.2.bmp,mem1.2.3.bmp,mem1.2.3.bmp,ACC020,"[-3, 3, 0]","[-3, 0, 3]","[-3, 0, 3]",match,1.591751709536137,,-2.472454293432982,-2.1198871814329334,-0.7420066019134188,1st,1st,1st,-1.2157152957713615,-1.2341094142375364,-1.076027866896446
mem,resp,779,0,mem2.1.1.bmp,mem3.3.2.bmp,mem3.3.2.bmp,ACC020,"[0, -3, -3]","[3, 3, 0]","[3, 3, 0]",match,1.2928932188134525,,-1.6998471106274913,-0.2640342237355158,-0.7781480462744276,1st,2nd,1st,-1.2157152957713615,-0.32118340794547545,-1.076027866896446
mem,resp,1054,1,mem2.3.2.bmp,mem3.2.3.bmp,mem3.1.2.bmp,ACC020,"[0, 3, 0]","[3, 0, 3]","[3, -3, 0]",non-match,0.9462544851682343,3,-0.8975480721393856,-0.7394730855289986,-0.7223680694040672,1st,1st,1st,-1.2157152957713615,-1.2341094142375364,-1.076027866896446
mem,resp,508,1,mem1.1.2.bmp,mem1.1.3.bmp,mem1.1.3.bmp,ACC020,"[-3, -3, 0]","[-3, -3, 3]","[-3, -3, 3]",match,1.7113248654051871,,-0.03638816604741298,-0.049063951316694304,-0.6098710769444562,2nd,2nd,2nd,-0.31474626458190336,-0.32118340794547545,-0.432309265343013
mem,resp,779,1,mem2.3.3.bmp,mem2.1.3.bmp,mem2.3.3.bmp,ACC020,"[0, 3, 3]","[0, -3, 3]","[0, 3, 3]",match,1.4226497308103743,,-0.4610601081241406,-0.12549205562847943,-0.8056169288457629,2nd,2nd,1st,-0.31474626458190336,-0.32118340794547545,-1.076027866896446
mem,resp,1084,1,mem3.3.2.bmp,mem1.3.2.bmp,mem1.2.1.bmp,ACC020,"[3, 3, 0]","[-3, 3, 0]","[-3, 0, -3]",non-match,0.8846449283495895,2,0.40922196594852955,-0.7035483795759332,-0.9905188710098671,3rd,1st,1st,0.2633710160958495,-1.2341094142375364,-1.076027866896446
mem,resp,868,1,mem2.2.2.bmp,mem2.2.3.bmp,mem2.2.3.bmp,ACC020,"[0, 0, 0]","[0, 0, 3]","[0, 0, 3]",match,1.7113248654051871,,-0.08042594928234037,-1.934524606173531,-0.870812069443258,2nd,1st,1st,-0.31474626458190336,-1.2341094142375364,-1.076027866896446
mem,resp,719,1,mem1.2.2.bmp,mem3.2.1.bmp,mem1.2.2.bmp,ACC020,"[-3, 0, 0]","[3, 0, -3]","[-3, 0, 0]",match,1.3545027756320973,,-0.08435127654153288,0.583522838801357,-0.6358940555456255,2nd,3rd,1st,-0.31474626458190336,0.26331391416292615,-1.076027866896446
mem,resp,954,1,mem3.3.1.bmp,mem1.3.1.bmp,mem1.3.1.bmp,ACC020,"[3, 3, -3]","[-3, 3, -3]","[-3, 3, -3]",match,1.4226497308103743,,-0.06752095683516651,1.8196369255497236,-0.3682682850503196,2nd,4th,2nd,-0.31474626458190336,1.2953547274324329,-0.432309265343013
mem,resp,626,1,mem3.2.3.bmp,mem3.1.2.bmp,mem3.2.3.bmp,ACC020,"[3, 0, 3]","[3, -3, 0]","[3, 0, 3]",match,1.591751709536137,,-0.3669749937290005,-1.5282321035857793,-0.34226712653703567,2nd,1st,2nd,-0.31474626458190336,-1.2341094142375364,-0.432309265343013
mem,resp,507,1,mem3.1.1.bmp,mem3.3.3.bmp,mem3.1.1.bmp,ACC020,"[3, -3, -3]","[3, 3, 3]","[3, -3, -3]",match,1.1835034190722742,,-0.3162276613174347,-1.2284854021334826,-0.5147672659205478,2nd,1st,2nd,-0.31474626458190336,-1.2341094142375364,-0.432309265343013
mem,resp,608,0,mem1.2.1.bmp,mem1.1.1.bmp,mem1.2.3.bmp,ACC020,"[-3, 0, -3]","[-3, -3, -3]","[-3, 0, 3]",non-match,0.7771525064424715,2,0.5172689962415303,-1.1541995824308602,-0.4950940726857675,3rd,1st,2nd,0.2633710160958495,-1.2341094142375364,-0.432309265343013
mem,resp,557,1,mem2.3.1.bmp,mem1.1.2.bmp,mem1.1.2.bmp,ACC020,"[0, 3, -3]","[-3, -3, 0]","[-3, -3, 0]",match,1.2928932188134525,,-0.39954913199920095,1.1778285324759676,-0.5050030630445653,2nd,4th,2nd,-0.31474626458190336,1.2953547274324329,-0.432309265343013
mem,resp,647,1,mem3.1.3.bmp,mem3.3.1.bmp,mem3.1.3.bmp,ACC020,"[3, -3, 3]","[3, 3, -3]","[3, -3, 3]",match,1.1835034190722742,,-0.34248941219399176,-1.6368330555915256,-0.5925854353776716,2nd,1st,2nd,-0.31474626458190336,-1.2341094142375364,-0.432309265343013
mem,resp,396,0,mem2.2.1.bmp,mem2.3.3.bmp,mem1.3.1.bmp,ACC020,"[0, 0, -3]","[0, 3, 3]","[-3, 3, -3]",non-match,0.9462544851682343,3,0.11065293417250364,-1.6674735548484256,-0.27850467267578033,3rd,1st,2nd,0.2633710160958495,-1.2341094142375364,-0.432309265343013
mem,resp,636,1,mem3.3.3.bmp,mem2.2.2.bmp,mem3.3.3.bmp,ACC020,"[3, 3, 3]","[0, 0, 0]","[3, 3, 3]",match,1.5,,0.15381621470479492,0.049231010010861186,-0.2751331489349111,3rd,3rd,2nd,0.2633710160958495,0.26331391416292615,-0.432309265343013
mem,resp,869,1,mem1.1.1.bmp,mem1.2.1.bmp,mem3.2.3.bmp,ACC020,"[-3, -3, -3]","[-3, 0, -3]","[3, 0, 3]",non-match,0.3174780152878355,1,1.2925398428318502,-0.20531085072449073,-0.2368415138188059,4th,2nd,3rd,1.2704670957458235,-0.32118340794547545,0.053513117762775037
mem,resp,601,1,mem1.2.3.bmp,mem3.3.1.bmp,mem3.3.1.bmp,ACC020,"[-3, 0, 3]","[3, 3, -3]","[3, 3, -3]",match,1.1339745962155614,,0.13371775649485768,1.4436409840022477,-0.11973053876970431,3rd,4th,3rd,0.2633710160958495,1.2953547274324329,0.053513117762775037
mem,resp,832,0,mem1.1.3.bmp,mem3.3.2.bmp,mem1.1.3.bmp,ACC020,"[-3, -3, 3]","[3, 3, 0]","[-3, -3, 3]",match,1.1339745962155614,,-0.8894825408647863,0.17993801970278567,-0.13551987732633036,1st,3rd,3rd,-1.2157152957713615,0.26331391416292615,0.053513117762775037
mem,resp,917,1,mem1.3.1.bmp,mem1.2.2.bmp,mem1.2.2.bmp,ACC020,"[-3, 3, -3]","[-3, 0, 0]","[-3, 0, 0]",match,1.591751709536137,,0.4884324204985212,-0.43295252754001545,-0.2643009348094622,3rd,2nd,2nd,0.2633710160958495,-0.32118340794547545,-0.432309265343013
mem,resp,931,0,mem2.2.3.bmp,mem2.1.1.bmp,mem2.2.3.bmp,ACC020,"[0, 0, 3]","[0, -3, -3]","[0, 0, 3]",match,1.3545027756320973,,-0.009217913594665101,-0.30271554290920255,-0.215028844527763,3rd,2nd,3rd,0.2633710160958495,-0.32118340794547545,0.053513117762775037
mem,resp,724,0,mem1.3.3.bmp,mem2.3.1.bmp,mem1.3.2.bmp,ACC020,"[-3, 3, 3]","[0, 3, -3]","[-3, 3, 0]",non-match,1.3030765749413242,4,0.25522516986306576,1.3975939185760453,-0.23397514859357157,3rd,4th,3rd,0.2633710160958495,1.2953547274324329,0.053513117762775037
mem,resp,714,1,mem1.3.3.bmp,mem1.1.1.bmp,mem1.1.1.bmp,ACC020,"[-3, 3, 3]","[-3, -3, -3]","[-3, -3, -3]",match,1.1835034190722742,,-0.9452536835909408,-1.3326095050368054,-0.2501703802743845,1st,1st,3rd,-1.2157152957713615,-1.2341094142375364,0.053513117762775037
mem,resp,647,0,mem2.3.2.bmp,mem3.2.1.bmp,mem2.3.3.bmp,ACC020,"[0, 3, 0]","[3, 0, -3]","[0, 3, 3]",non-match,1.0042180842186395,3,1.4467055218388603,1.085914185187941,-0.19081860679936175,4th,4th,3rd,1.2704670957458235,1.2953547274324329,0.053513117762775037
mem,resp,829,1,mem1.3.1.bmp,mem3.1.1.bmp,mem1.1.3.bmp,ACC020,"[-3, 3, -3]","[3, -3, -3]","[-3, -3, 3]",non-match,0.36700683814454815,1,0.8494680806535037,-0.26549244550218903,-0.15510372375736034,4th,2nd,3rd,1.2704670957458235,-0.32118340794547545,0.053513117762775037
mem,resp,698,1,mem2.2.1.bmp,mem2.1.2.bmp,mem3.3.1.bmp,ACC020,"[0, 0, -3]","[0, -3, 0]","[3, 3, -3]",non-match,0.8846449283495895,2,3.63451302392871,0.32080307318138196,-0.18725458297266973,4th,3rd,3rd,1.2704670957458235,0.26331391416292615,0.053513117762775037
mem,resp,752,1,mem3.2.2.bmp,mem1.1.2.bmp,mem2.3.1.bmp,ACC020,"[3, 0, 0]","[-3, -3, 0]","[0, 3, -3]",non-match,0.7928932188134524,2,-0.018452498414533662,0.013002442594062597,-0.1162031249987754,3rd,3rd,3rd,0.2633710160958495,0.26331391416292615,0.053513117762775037
mem,resp,763,1,mem3.3.2.bmp,mem1.2.3.bmp,mem1.2.3.bmp,ACC020,"[3, 3, 0]","[-3, 0, 3]","[-3, 0, 3]",match,1.2928932188134525,,0.8119522030599474,0.4413788704216208,-0.11364329117984806,4th,3rd,3rd,1.2704670957458235,0.26331391416292615,0.053513117762775037
mem,resp,644,0,mem2.2.2.bmp,mem3.3.3.bmp,mem2.2.2.bmp,ACC020,"[0, 0, 0]","[3, 3, 3]","[0, 0, 0]",match,1.5,,0.3834970607429688,-0.3577766429940545,0.08112959142908249,3rd,2nd,3rd,0.2633710160958495,-0.32118340794547545,0.053513117762775037
mem,resp,586,0,mem1.2.1.bmp,mem2.1.3.bmp,mem1.1.1.bmp,ACC020,"[-3, 0, -3]","[0, -3, 3]","[-3, -3, -3]",non-match,1.0658276410372842,3,0.3187730357685996,-0.8246761940786133,-0.0563148828488867,3rd,1st,3rd,0.2633710160958495,-1.2341094142375364,0.053513117762775037
mem,resp,797,1,mem3.2.3.bmp,mem3.1.2.bmp,mem1.3.1.bmp,ACC020,"[3, 0, 3]","[3, -3, 0]","[-3, 3, -3]",non-match,0.2679491924311228,1,-0.025402552185662446,0.7051011337125063,0.048706221328398545,2nd,4th,3rd,-0.31474626458190336,1.2953547274324329,0.053513117762775037
mem,resp,942,1,mem3.2.1.bmp,mem3.1.3.bmp,mem3.1.3.bmp,ACC020,"[3, 0, -3]","[3, -3, 3]","[3, -3, 3]",match,1.3545027756320973,,-0.019770292385139845,-1.1817527756684207,-0.09689760422912361,2nd,1st,3rd,-0.31474626458190336,-1.2341094142375364,0.053513117762775037
mem,resp,764,1,mem1.2.2.bmp,mem2.2.3.bmp,mem2.2.1.bmp,ACC020,"[-3, 0, 0]","[0, 0, 3]","[0, 0, -3]",non-match,1.0144014403465114,3,0.8360055390711605,-0.6141910448921671,-0.17684638132973177,4th,2nd,3rd,1.2704670957458235,-0.32118340794547545,0.053513117762775037
mem,resp,849,0,mem2.1.2.bmp,mem1.3.2.bmp,mem1.1.2.bmp,ACC020,"[0, -3, 0]","[-3, 3, 0]","[-3, -3, 0]",non-match,1.1339745962155614,4,-1.0332651830371025,-0.32205623654596266,-0.2565731447876606,1st,2nd,2nd,-1.2157152957713615,-0.32118340794547545,-0.432309265343013
mem,resp,675,1,mem1.2.3.bmp,mem2.3.3.bmp,mem1.2.3.bmp,ACC020,"[-3, 0, 3]","[0, 3, 3]","[-3, 0, 3]",match,1.591751709536137,,1.7589346082086528,2.934198731523908,-0.524728111312716,4th,4th,2nd,1.2704670957458235,1.2953547274324329,-0.432309265343013
mem,resp,788,1,mem2.3.1.bmp,mem3.1.1.bmp,mem2.2.1.bmp,ACC020,"[0, 3, -3]","[3, -3, -3]","[0, 0, -3]",non-match,1.3030765749413242,4,1.176486578600817,0.18277989391681596,-0.4917728539755464,4th,3rd,2nd,1.2704670957458235,0.26331391416292615,-0.432309265343013
mem,resp,1042,1,mem1.2.1.bmp,mem3.1.2.bmp,mem3.1.2.bmp,ACC020,"[-3, 0, -3]","[3, -3, 0]","[3, -3, 0]",match,1.2928932188134525,,-1.465167640721134,-2.855565783105589,-0.40620494711107263,1st,1st,2nd,-1.2157152957713615,-1.2341094142375364,-0.432309265343013
mem,resp,613,1,mem1.2.3.bmp,mem3.3.3.bmp,mem3.2.1.bmp,ACC020,"[-3, 0, 3]","[3, 3, 3]","[3, 0, -3]",non-match,0.5380061947043713,1,0.39513812367371226,0.3437638178466209,-0.44099682232348786,3rd,3rd,2nd,0.2633710160958495,0.26331391416292615,-0.432309265343013
mem,resp,736,1,mem1.1.2.bmp,mem1.2.2.bmp,mem1.1.2.bmp,ACC020,"[-3, -3, 0]","[-3, 0, 0]","[-3, -3, 0]",match,1.7113248654051871,,-0.31473523780294177,-0.6333266218259337,-0.5791374572820386,2nd,2nd,2nd,-0.31474626458190336,-0.32118340794547545,-0.432309265343013
mem,resp,1010,0,mem3.2.2.bmp,mem1.3.2.bmp,mem1.3.2.bmp,ACC020,"[3, 0, 0]","[-3, 3, 0]","[-3, 3, 0]",match,1.3545027756320973,,-0.48963856527696875,0.06761122357490089,-0.43317184206314013,2nd,3rd,2nd,-0.31474626458190336,0.26331391416292615,-0.432309265343013
mem,resp,975,0,mem2.1.2.bmp,mem1.1.3.bmp,mem3.1.1.bmp,ACC020,"[0, -3, 0]","[-3, -3, 3]","[3, -3, -3]",non-match,0.7752551286084112,2,0.4423941781400843,1.160600363820479,-0.40818571503498,3rd,4th,2nd,0.2633710160958495,1.2953547274324329,-0.432309265343013
mem,resp,596,1,mem2.2.3.bmp,mem2.3.3.bmp,mem3.1.3.bmp,ACC020,"[0, 0, 3]","[0, 3, 3]","[3, -3, 3]",non-match,0.9462544851682343,3,-0.5079777222881843,-0.4579008339893162,-0.07263063795224986,2nd,2nd,3rd,-0.31474626458190336,-0.32118340794547545,0.053513117762775037
mem,resp,1039,0,mem3.2.1.bmp,mem3.3.1.bmp,mem3.3.3.bmp,ACC020,"[3, 0, -3]","[3, 3, -3]","[3, 3, 3]",non-match,0.7771525064424715,2,0.7146505892588617,-0.6163143296473674,-0.4315897164572349,4th,2nd,2nd,1.2704670957458235,-0.32118340794547545,-0.432309265343013
mem,resp,1065,1,mem2.1.1.bmp,mem1.2.1.bmp,mem2.2.2.bmp,ACC020,"[0, -3, -3]","[-3, 0, -3]","[0, 0, 0]",non-match,1.1835034190722742,4,-0.479209008064716,0.3456388787032766,-0.44910676646102,2nd,3rd,2nd,-0.31474626458190336,0.26331391416292615,-0.432309265343013
mem,resp,818,0,mem2.3.2.bmp,mem1.3.3.bmp,mem1.3.3.bmp,ACC020,"[0, 3, 0]","[-3, 3, 3]","[-3, 3, 3]",match,1.591751709536137,,0.9496560348434908,0.0293286289350902,-0.3039198228747099,4th,3rd,2nd,1.2704670957458235,0.26331391416292615,-0.432309265343013
mem,resp,1124,0,mem1.3.2.bmp,mem3.1.3.bmp,mem3.1.3.bmp,ACC020,"[-3, 3, 0]","[3, -3, 3]","[3, -3, 3]",match,1.1339745962155614,,-1.0074078978234413,-0.13048704232543606,-0.37599010721429627,1st,2nd,2nd,-1.2157152957713615,-0.32118340794547545,-0.432309265343013
mem,resp,656,1,mem3.1.2.bmp,mem2.1.3.bmp,mem3.2.2.bmp,ACC020,"[3, -3, 0]","[0, -3, 3]","[3, 0, 0]",non-match,1.2113248654051871,4,-0.8867374071542499,-1.6421893289380707,-0.6091834289913575,1st,1st,2nd,-1.2157152957713615,-1.2341094142375364,-0.432309265343013
mem,resp,767,1,mem1.1.1.bmp,mem2.1.2.bmp,mem1.1.1.bmp,ACC020,"[-3, -3, -3]","[0, -3, 0]","[-3, -3, -3]",match,1.591751709536137,,-2.1371014323568454,-1.2705749818488237,-0.6466434094898852,1st,1st,1st,-1.2157152957713615,-1.2341094142375364,-1.076027866896446
mem,resp,900,0,mem3.3.1.bmp,mem2.3.1.bmp,mem2.3.1.bmp,ACC020,"[3, 3, -3]","[0, 3, -3]","[0, 3, -3]",match,1.7113248654051871,,0.18774564398849025,-0.7690246003245503,-0.5788046869176922,3rd,1st,2nd,0.2633710160958495,-1.2341094142375364,-0.432309265343013
mem,resp,1036,0,mem3.1.3.bmp,mem1.2.3.bmp,mem3.1.3.bmp,ACC020,"[3, -3, 3]","[-3, 0, 3]","[3, -3, 3]",match,1.3545027756320973,,0.40805502934626847,-1.0298157786175666,-0.5596222903886935,3rd,1st,2nd,0.2633710160958495,-1.2341094142375364,-0.432309265343013
mem,resp,859,1,mem3.3.3.bmp,mem3.3.2.bmp,mem2.3.3.bmp,ACC020,"[3, 3, 3]","[3, 3, 0]","[0, 3, 3]",non-match,1.3030765749413242,4,0.6063651939580017,-0.47998942406781875,-0.4334134689820398,4th,2nd,2nd,1.2704670957458235,-0.32118340794547545,-0.432309265343013
mem,resp,1204,1,mem2.1.3.bmp,mem2.2.1.bmp,mem1.3.3.bmp,ACC020,"[0, -3, 3]","[0, 0, -3]","[-3, 3, 3]",non-match,0.6473959944455496,1,-1.472696113906745,-0.11675477869923478,-0.1526593009009792,1st,2nd,3rd,-1.2157152957713615,-0.32118340794547545,0.053513117762775037
mem,resp,885,1,mem3.2.3.bmp,mem1.1.2.bmp,mem3.1.2.bmp,ACC020,"[3, 0, 3]","[-3, -3, 0]","[3, -3, 0]",non-match,1.0144014403465114,3,0.024310512925808145,0.7564766026277833,-0.14440374141616424,3rd,4th,3rd,0.2633710160958495,1.2953547274324329,0.053513117762775037
mem,resp,879,0,mem3.1.1.bmp,mem2.1.1.bmp,mem2.1.1.bmp,ACC020,"[3, -3, -3]","[0, -3, -3]","[0, -3, -3]",match,1.7113248654051871,,1.0831509165154793,-0.5683633971343076,-0.19317564719564678,4th,2nd,3rd,1.2704670957458235,-0.32118340794547545,0.053513117762775037
mem,resp,620,0,mem1.3.1.bmp,mem3.3.2.bmp,mem3.1.3.bmp,ACC020,"[-3, 3, -3]","[3, 3, 0]","[3, -3, 3]",non-match,0.3545027756320972,1,0.22146024662463892,-0.6319656466236284,-0.2769167175367923,3rd,2nd,2nd,0.2633710160958495,-0.32118340794547545,-0.432309265343013
mem,resp,893,1,mem2.2.1.bmp,mem2.3.1.bmp,mem3.2.1.bmp,ACC020,"[0, 0, -3]","[0, 3, -3]","[3, 0, -3]",non-match,1.3030765749413242,4,-0.6908892629513866,-1.2299682079405878,-0.28272945826644225,1st,1st,2nd,-1.2157152957713615,-1.2341094142375364,-0.432309265343013
mem,resp,897,1,mem2.2.2.bmp,mem2.3.3.bmp,mem3.3.1.bmp,ACC020,"[0, 0, 0]","[0, 3, 3]","[3, 3, -3]",non-match,0.8545027756320972,2,1.2660801536775717,-0.11752669032886336,-0.28645392332953196,4th,2nd,2nd,1.2704670957458235,-0.32118340794547545,-0.432309265343013
mem,resp,691,1,mem1.2.2.bmp,mem3.2.2.bmp,mem2.3.2.bmp,ACC020,"[-3, 0, 0]","[3, 0, 0]","[0, 3, 0]",non-match,1.1835034190722742,4,1.2424347463762004,-1.1664353521831228,-0.21310456515479,4th,1st,3rd,1.2704670957458235,-1.2341094142375364,0.053513117762775037
mem,resp,882,0,mem1.3.3.bmp,mem2.1.3.bmp,mem1.1.2.bmp,ACC020,"[-3, 3, 3]","[0, -3, 3]","[-3, -3, 0]",non-match,0.9462544851682343,3,0.5507739594290042,0.40899065699949894,-0.37820297010382803,3rd,3rd,2nd,0.2633710160958495,0.26331391416292615,-0.432309265343013
mem,resp,663,1,mem3.3.2.bmp,mem3.1.2.bmp,mem1.1.1.bmp,ACC020,"[3, 3, 0]","[3, -3, 0]","[-3, -3, -3]",non-match,0.4884773718476586,1,0.9632863316333292,-0.41373516270442423,-0.4351273211272429,4th,2nd,2nd,1.2704670957458235,-0.32118340794547545,-0.432309265343013
mem,resp,1167,1,mem1.1.3.bmp,mem2.2.3.bmp,mem1.1.3.bmp,ACC020,"[-3, -3, 3]","[0, 0, 3]","[-3, -3, 3]",match,1.591751709536137,,-0.5331206568051072,-0.7074238049856291,-0.31393864421657974,2nd,1st,2nd,-0.31474626458190336,-1.2341094142375364,-0.432309265343013
mem,resp,749,1,mem2.3.3.bmp,mem1.3.2.bmp,mem3.2.2.bmp,ACC020,"[0, 3, 3]","[-3, 3, 0]","[3, 0, 0]",non-match,0.8545027756320972,2,-0.5254631414501019,-2.0169853343680377,-0.24196088141008687,2nd,1st,3rd,-0.31474626458190336,-1.2341094142375364,0.053513117762775037
mem,resp,972,1,mem3.2.1.bmp,mem1.2.3.bmp,mem3.2.1.bmp,ACC020,"[3, 0, -3]","[-3, 0, 3]","[3, 0, -3]",match,1.1835034190722742,,-0.15812840769428074,0.18388501803905788,-0.3458246141689382,2nd,3rd,2nd,-0.31474626458190336,0.26331391416292615,-0.432309265343013
mem,resp,716,0,mem2.1.1.bmp,mem2.3.2.bmp,mem2.1.2.bmp,ACC020,"[0, -3, -3]","[0, 3, 0]","[0, -3, 0]",non-match,1.1339745962155614,4,-0.18118207050138682,-1.4550775242921183,-0.11983166010682499,2nd,1st,3rd,-0.31474626458190336,-1.2341094142375364,0.053513117762775037
mem,resp,959,0,mem3.3.3.bmp,mem1.1.3.bmp,mem3.3.3.bmp,ACC020,"[3, 3, 3]","[-3, -3, 3]","[3, 3, 3]",match,1.1835034190722742,,-0.6113665482902891,-0.3313993296072921,0.060041321877094565,2nd,2nd,3rd,-0.31474626458190336,-0.32118340794547545,0.053513117762775037
mem,resp,1065,0,mem1.3.3.bmp,mem3.3.1.bmp,mem3.2.2.bmp,ACC020,"[-3, 3, 3]","[3, 3, -3]","[3, 0, 0]",non-match,0.8846449283495895,2,-0.747156391151197,0.08667086919265268,-0.18169738891427317,1st,3rd,3rd,-1.2157152957713615,0.26331391416292615,0.053513117762775037
mem,resp,827,1,mem3.1.1.bmp,mem2.2.2.bmp,mem1.2.1.bmp,ACC020,"[3, -3, -3]","[0, 0, 0]","[-3, 0, -3]",non-match,0.9462544851682343,3,-0.24588805883226364,-2.5431929806718174,-0.1778808843960406,2nd,1st,3rd,-0.31474626458190336,-1.2341094142375364,0.053513117762775037
mem,resp,680,0,mem1.3.1.bmp,mem1.2.2.bmp,mem1.2.2.bmp,ACC020,"[-3, 3, -3]","[-3, 0, 0]","[-3, 0, 0]",match,1.591751709536137,,0.13396125634770883,-0.0822221014732303,-0.33362421633594885,3rd,2nd,2nd,0.2633710160958495,-0.32118340794547545,-0.432309265343013
mem,resp,699,1,mem2.3.2.bmp,mem3.3.3.bmp,mem2.3.2.bmp,ACC020,"[0, 3, 0]","[3, 3, 3]","[0, 3, 0]",match,1.591751709536137,,-0.9523003574718854,0.47183672592107345,-0.36542805502737513,1st,3rd,2nd,-1.2157152957713615,0.26331391416292615,-0.432309265343013
mem,resp,821,1,mem3.3.1.bmp,mem3.1.3.bmp,mem3.1.3.bmp,ACC020,"[3, 3, -3]","[3, -3, 3]","[3, -3, 3]",match,1.1835034190722742,,-0.45254117176468056,-1.0154990822074688,-0.6764173289704004,2nd,1st,1st,-0.31474626458190336,-1.2341094142375364,-1.076027866896446
mem,resp,795,1,mem2.2.2.bmp,mem2.1.2.bmp,mem2.1.2.bmp,ACC020,"[0, 0, 0]","[0, -3, 0]","[0, -3, 0]",match,1.7113248654051871,,0.5276606251699483,-0.008732845540503584,-0.7026933804057167,3rd,3rd,1st,0.2633710160958495,0.26331391416292615,-1.076027866896446
mem,resp,636,1,mem1.1.3.bmp,mem1.1.1.bmp,mem1.1.3.bmp,ACC020,"[-3, -3, 3]","[-3, -3, -3]","[-3, -3, 3]",match,1.4226497308103743,,-0.033194546478235255,-0.39791543483622926,-0.9022694578429491,2nd,2nd,1st,-0.31474626458190336,-0.32118340794547545,-1.076027866896446
mem,resp,800,0,mem2.2.1.bmp,mem2.1.1.bmp,mem2.2.1.bmp,ACC020,"[0, 0, -3]","[0, -3, -3]","[0, 0, -3]",match,1.7113248654051871,,0.10783558667615431,0.7859455804233252,-0.8075513577748759,3rd,4th,1st,0.2633710160958495,1.2953547274324329,-1.076027866896446
mem,resp,721,1,mem1.2.2.bmp,mem1.1.2.bmp,mem3.3.2.bmp,ACC020,"[-3, 0, 0]","[-3, -3, 0]","[3, 3, 0]",non-match,0.5380061947043713,1,-0.023809081628577006,-2.5485759746911176,-0.6826642599719968,2nd,1st,1st,-0.31474626458190336,-1.2341094142375364,-1.076027866896446
