ams,pams,slps,Pnumber,subj,trialno,group,age,sex,hands,devcond,coherence,motiondir,keypress,RT,accuracy,ams_quantile,pams_quantile,slps_quantile,ams_bin,pam_bin,slp_bin
-0.03522517708717634,-0.8032612394296138,0.2796419016244809,1,sub-A001,0,1,34.0,,1,0,0.1,1,1,0.628651322,1,2nd,1st,3rd,-0.28982143037750996,-1.2900504464254512,0.3870619403794168
0.2694546217337182,-0.12944278032699844,0.4815923002596802,1,sub-A001,1,1,34.0,,1,0,0.3,2,1,2.318509982,0,3rd,2nd,3rd,0.24418424435324815,-0.31498483246452785,0.3870619403794168
1.1287470508057558,1.1564332830282538,0.4853480257414545,1,sub-A001,2,1,34.0,,1,0,0.5,2,2,0.539724779,1,4th,4th,3rd,1.2890500085970444,1.2556651273199475,0.3870619403794168
1.1927458319083246,1.0048553383842813,0.4348560848132559,1,sub-A001,3,1,34.0,,1,0,1.0,2,2,0.617279638,1,4th,4th,3rd,1.2890500085970444,1.2556651273199475,0.3870619403794168
-1.457842898296907,-0.054476182631446796,0.48950914414937063,1,sub-A001,5,1,34.0,,1,0,0.1,1,1,1.518098811,1,1st,2nd,3rd,-1.225899965916828,-0.31498483246452785,0.3870619403794168
0.1704086591968556,-0.05483603911554076,0.5560883554892356,1,sub-A001,6,1,34.0,,1,0,0.5,2,2,0.54276416,1,3rd,2nd,3rd,0.24418424435324815,-0.31498483246452785,0.3870619403794168
-0.3598513125160997,0.12763836750142632,0.49355076695919176,1,sub-A001,7,1,34.0,,1,0,0.1,2,1,2.001721364,0,2nd,3rd,3rd,-0.28982143037750996,0.3677994436618236,0.3870619403794168
-0.12066554400676403,0.3233147659948856,0.426099458783766,1,sub-A001,8,1,34.0,,1,0,0.3,1,1,0.59424978,1,2nd,3rd,3rd,-0.28982143037750996,0.3677994436618236,0.3870619403794168
1.8214486655898534,0.20931666541185945,0.4094203435804193,1,sub-A001,9,1,34.0,,1,0,0.75,1,1,0.656560432,1,4th,3rd,3rd,1.2890500085970444,0.3677994436618236,0.3870619403794168
-0.2261369680222463,0.6866237298905135,0.22552138518255868,1,sub-A001,10,1,34.0,,1,0,0.5,1,1,0.702851303,1,2nd,4th,3rd,-0.28982143037750996,1.2556651273199475,0.3870619403794168
0.318812988666131,-0.4398376006369278,0.31007323016935096,1,sub-A001,11,1,34.0,,1,0,0.3,2,1,1.992234623,0,3rd,2nd,3rd,0.24418424435324815,-0.31498483246452785,0.3870619403794168
-0.3317896204948733,0.7433293259884061,0.7423996866590339,1,sub-A001,13,1,34.0,,1,0,1.0,2,2,0.528534718,1,2nd,4th,4th,-0.28982143037750996,1.2556651273199475,1.1992118340268907
0.1082145858635048,0.18930808394051177,0.4836649519879597,1,sub-A001,14,1,34.0,,1,0,0.3,2,2,1.175717099,1,3rd,3rd,3rd,0.24418424435324815,0.3677994436618236,0.3870619403794168
-0.3299826864634593,0.1292448974206955,0.36074139143734135,1,sub-A001,15,1,34.0,,1,0,0.75,2,2,0.550319996,1,2nd,3rd,3rd,-0.28982143037750996,0.3677994436618236,0.3870619403794168
-0.8898219900354262,2.249473580429196,0.1624707335164076,1,sub-A001,16,1,34.0,,1,0,1.0,1,1,0.516928754,1,1st,4th,3rd,-1.225899965916828,1.2556651273199475,0.3870619403794168
0.5392717767183242,0.9612326155502015,-0.0401927206327503,1,sub-A001,17,1,34.0,,1,0,0.3,1,1,0.606150711,1,4th,4th,2nd,1.2890500085970444,1.2556651273199475,-0.26498787734920015
-0.019288271467642438,2.052397664958673,-0.12408411767336963,1,sub-A001,18,1,34.0,,1,0,0.75,1,1,0.494614675,1,3rd,4th,2nd,0.24418424435324815,1.2556651273199475,-0.26498787734920015
-1.5090644886121038,0.8559463265146274,-0.07071530359401468,1,sub-A001,19,1,34.0,,1,0,0.75,1,1,0.440930402,1,1st,4th,2nd,-1.225899965916828,1.2556651273199475,-0.26498787734920015
-1.1383547153049203,0.9372094833876776,-0.11156393074772568,1,sub-A001,20,1,34.0,,1,0,0.1,2,1,1.021043365,0,1st,4th,2nd,-1.225899965916828,1.2556651273199475,-0.26498787734920015
-0.3586624673219683,1.994358616249049,-0.5014591804111886,1,sub-A001,21,1,34.0,,1,0,0.75,2,2,0.589330811,1,2nd,4th,2nd,-0.28982143037750996,1.2556651273199475,-0.26498787734920015
-0.2382923873092989,-0.6656999059065516,-0.8452816406101504,1,sub-A001,22,1,34.0,,1,0,0.5,1,1,0.684992096,1,2nd,2nd,1st,-0.28982143037750996,-0.31498483246452785,-1.3026762365351758
0.26004946836974957,-0.9857672420473907,-0.8752947499179334,1,sub-A001,23,1,34.0,,1,0,0.3,1,1,0.93098425,1,3rd,1st,1st,0.24418424435324815,-1.2900504464254512,-1.3026762365351758
1.882462594816217,0.4668115349920689,-0.820321292524467,1,sub-A001,24,1,34.0,,1,0,1.0,1,1,0.468708316,1,4th,3rd,1st,1.2890500085970444,0.3677994436618236,-1.3026762365351758
-0.6024496791522103,0.3844799939889493,-0.8318477087191405,1,sub-A001,25,1,34.0,,1,0,0.3,2,2,1.367887536,1,1st,3rd,1st,-1.225899965916828,0.3677994436618236,-1.3026762365351758
-1.4284133872262226,-0.8008620638483082,-1.1448275997558899,1,sub-A001,26,1,34.0,,1,0,0.1,1,1,1.16878333,1,1st,1st,1st,-1.225899965916828,-1.2900504464254512,-1.3026762365351758
2.2682740879284737,2.053643932883678,-1.0026464361035732,1,sub-A001,27,1,34.0,,1,0,0.5,1,1,0.65805491,1,4th,4th,1st,1.2890500085970444,1.2556651273199475,-1.3026762365351758
1.399276238824863,-0.7560030841215661,-1.1630279466024338,1,sub-A001,28,1,34.0,,1,0,0.5,1,1,0.810833883,1,4th,2nd,1st,1.2890500085970444,-0.31498483246452785,-1.3026762365351758
-0.3719771341517903,-1.3463917286121514,-1.3144203812685626,1,sub-A001,29,1,34.0,,1,0,0.3,1,1,1.23406955,1,2nd,1st,1st,-0.28982143037750996,-1.2900504464254512,-1.3026762365351758
-0.690608559032254,-1.299400711577264,-1.7810805820914937,1,sub-A001,30,1,34.0,,1,0,0.75,2,2,0.729564028,1,1st,1st,1st,-1.225899965916828,-1.2900504464254512,-1.3026762365351758
0.8506940757689327,1.2237948753951082,-2.0591498144206857,1,sub-A001,31,1,34.0,,1,0,0.75,2,2,0.636932753,1,4th,4th,1st,1.2890500085970444,1.2556651273199475,-1.3026762365351758
0.08367569796900202,0.3478456644763118,-2.30953203924079,1,sub-A001,32,1,34.0,,1,0,0.1,1,1,1.239434764,1,3rd,3rd,1st,0.24418424435324815,0.3677994436618236,-1.3026762365351758
-0.526855103823204,-1.6198275261484436,-2.1746370104432438,1,sub-A001,33,1,34.0,,1,0,0.5,2,2,0.995874204,1,2nd,1st,1st,-0.28982143037750996,-1.2900504464254512,-1.3026762365351758
2.68754106091169,0.6091684148990609,-1.9163088267092852,1,sub-A001,34,1,34.0,,1,0,0.75,1,1,0.676779833,1,4th,3rd,1st,1.2890500085970444,0.3677994436618236,-1.3026762365351758
0.03746226276042159,-0.7225257611144794,-1.734296901656696,1,sub-A001,35,1,34.0,,1,0,0.5,2,2,0.661142931,1,3rd,2nd,1st,0.24418424435324815,-0.31498483246452785,-1.3026762365351758
2.5353805998893875,0.31114631816628535,-1.303415480687877,1,sub-A001,37,1,34.0,,1,0,1.0,2,2,0.490770267,1,4th,3rd,1st,1.2890500085970444,0.3677994436618236,-1.3026762365351758
0.6205068272242162,-0.11556071410151647,-1.0596885455373202,1,sub-A001,38,1,34.0,,1,0,0.75,1,1,0.553059499,1,4th,2nd,1st,1.2890500085970444,-0.31498483246452785,-1.3026762365351758
-1.752263890003862,-1.313155878463663,-1.2167013245685336,1,sub-A001,39,1,34.0,,1,0,0.1,2,1,1.76946689,0,1st,1st,1st,-1.225899965916828,-1.2900504464254512,-1.3026762365351758
-0.5496632740595891,0.08370319908072534,-1.2414215366918318,1,sub-A001,40,1,34.0,,1,0,0.5,1,1,0.685517328,1,2nd,3rd,1st,-0.28982143037750996,0.3677994436618236,-1.3026762365351758
0.5596602258500467,0.33327223720208626,-1.9315766320902163,1,sub-A001,41,1,34.0,,1,0,0.1,2,2,2.25186896,1,4th,3rd,1st,1.2890500085970444,0.3677994436618236,-1.3026762365351758
-0.9032549794477942,1.0219629338860545,-1.9938062732554012,1,sub-A001,42,1,34.0,,1,0,0.5,1,1,0.535127554,1,1st,4th,1st,-1.225899965916828,1.2556651273199475,-1.3026762365351758
-0.5805043557929669,-1.1326121418065467,-1.9177973511960158,1,sub-A001,43,1,34.0,,1,0,0.1,2,2,1.286417317,1,2nd,1st,1st,-0.28982143037750996,-1.2900504464254512,-1.3026762365351758
-1.4140489270975745,-1.672574356660066,-1.8335175261624523,1,sub-A001,44,1,34.0,,1,0,0.3,2,2,1.196272523,1,1st,1st,1st,-1.225899965916828,-1.2900504464254512,-1.3026762365351758
-0.8771971549011423,-1.2799525113694832,-1.8215199987219528,1,sub-A001,45,1,34.0,,1,0,0.1,1,1,1.503949247,1,1st,1st,1st,-1.225899965916828,-1.2900504464254512,-1.3026762365351758
1.2862751462918738,0.3607781272592623,-1.6369335597516637,1,sub-A001,46,1,34.0,,1,0,1.0,2,2,0.801716187,1,4th,3rd,1st,1.2890500085970444,0.3677994436618236,-1.3026762365351758
0.023822336931655953,-0.16201714200932724,-1.4474538414060076,1,sub-A001,47,1,34.0,,1,0,0.3,1,1,0.896130215,1,3rd,2nd,1st,0.24418424435324815,-0.31498483246452785,-1.3026762365351758
-0.41655436415434444,-0.7700184787119642,-2.0378149566431305,1,sub-A001,48,1,34.0,,1,0,0.5,2,2,0.74309465,1,2nd,1st,1st,-0.28982143037750996,-1.2900504464254512,-1.3026762365351758
-0.9860389542912722,-1.773443986261399,-2.503549379388597,1,sub-A001,49,1,34.0,,1,0,1.0,1,1,0.850527455,1,1st,1st,1st,-1.225899965916828,-1.2900504464254512,-1.3026762365351758
2.010752807174798,1.2636376013793207,-2.202013168642057,1,sub-A001,50,1,34.0,,1,0,0.5,1,1,0.712135449,1,4th,4th,1st,1.2890500085970444,1.2556651273199475,-1.3026762365351758
-0.28661902537254424,-0.03535076851964351,-2.141143622231457,1,sub-A001,51,1,34.0,,1,0,1.0,1,1,0.586865749,1,2nd,2nd,1st,-0.28982143037750996,-0.31498483246452785,-1.3026762365351758
1.9607680473400921,1.0011966228680047,-2.197577477905577,1,sub-A001,52,1,34.0,,1,0,0.5,2,2,0.616926211,1,4th,4th,1st,1.2890500085970444,1.2556651273199475,-1.3026762365351758
0.7546589650652019,-1.5905755267199564,-2.2320816063345053,1,sub-A001,53,1,34.0,,1,0,0.75,1,1,0.751851333,1,4th,1st,1st,1.2890500085970444,-1.2900504464254512,-1.3026762365351758
0.3200880299273417,1.0843136370720137,-1.8232289889585485,1,sub-A001,54,1,34.0,,1,0,0.75,1,1,0.562326688,1,3rd,4th,1st,0.24418424435324815,1.2556651273199475,-1.3026762365351758
-0.2949554578659918,-1.113401906239978,-1.6843439177313686,1,sub-A001,55,1,34.0,,1,0,0.75,2,2,0.600252233,1,2nd,1st,1st,-0.28982143037750996,-1.2900504464254512,-1.3026762365351758
-0.35944245835371746,0.6028791886971511,-1.7881817375503124,1,sub-A001,56,1,34.0,,1,0,0.3,1,1,1.026163144,1,2nd,3rd,1st,-0.28982143037750996,0.3677994436618236,-1.3026762365351758
-2.2433196792041525,-2.4790630587918776,-1.5176234063427885,1,sub-A001,57,1,34.0,,1,0,0.1,1,1,2.01281816,1,1st,1st,1st,-1.225899965916828,-1.2900504464254512,-1.3026762365351758
-0.5451059983587304,-0.4068631017935365,-1.6092790551103024,1,sub-A001,58,1,34.0,,1,0,0.5,1,1,0.879339321,1,2nd,2nd,1st,-0.28982143037750996,-0.31498483246452785,-1.3026762365351758
-1.9805928247413283,-1.828837494008668,-1.6209279330522082,1,sub-A001,60,1,34.0,,1,0,0.1,1,1,2.026866874,1,1st,1st,1st,-1.225899965916828,-1.2900504464254512,-1.3026762365351758
-0.6140813584196272,-0.9081518350197477,-1.5579874699932126,1,sub-A001,61,1,34.0,,1,0,0.3,1,1,0.44044801,1,1st,1st,1st,-1.225899965916828,-1.2900504464254512,-1.3026762365351758
0.852578001682279,-0.43732647045595985,-1.4456337856601145,1,sub-A001,62,1,34.0,,1,0,0.3,2,2,0.701287211,1,4th,2nd,1st,1.2890500085970444,-0.31498483246452785,-1.3026762365351758
0.9693593023734033,0.9629162261944421,-1.2682680494069614,1,sub-A001,63,1,34.0,,1,0,0.75,1,1,0.578885534,1,4th,4th,1st,1.2890500085970444,1.2556651273199475,-1.3026762365351758
0.7980331638637963,3.049196341136714,-1.0935678550708416,1,sub-A001,64,1,34.0,,1,0,0.75,2,2,0.459145713,1,4th,4th,1st,1.2890500085970444,1.2556651273199475,-1.3026762365351758
-0.8105266041226248,-1.0863860414317308,-1.1774219852278023,1,sub-A001,65,1,34.0,,1,0,0.5,2,2,0.590798068,1,1st,1st,1st,-1.225899965916828,-1.2900504464254512,-1.3026762365351758
2.621231659578429,1.410767369789447,-1.1621826312913839,1,sub-A001,66,1,34.0,,1,0,0.5,2,2,0.567573647,1,4th,4th,1st,1.2890500085970444,1.2556651273199475,-1.3026762365351758
-1.1879803025090427,-1.0905835447949779,-0.8147229480270504,1,sub-A001,68,1,34.0,,1,0,0.75,2,1,0.233827685,0,1st,1st,1st,-1.225899965916828,-1.2900504464254512,-1.3026762365351758
0.5021189535323389,1.7377465761032418,-0.9377320504478305,1,sub-A001,69,1,34.0,,1,0,0.75,2,2,0.533640217,1,3rd,4th,1st,0.24418424435324815,1.2556651273199475,-1.3026762365351758
0.722159076194434,-0.1768155429470758,-0.7622861172417307,1,sub-A001,70,1,34.0,,1,0,0.3,1,1,1.129649797,1,4th,2nd,1st,1.2890500085970444,-0.31498483246452785,-1.3026762365351758
0.2163274807928131,0.12685772663007203,-0.4185870828407943,1,sub-A001,71,1,34.0,,1,0,0.3,2,2,0.776489461,1,3rd,3rd,2nd,0.24418424435324815,0.3677994436618236,-0.26498787734920015
-1.9089752721363606,0.14765032822419735,-0.42111326693598733,1,sub-A001,73,1,34.0,,1,0,1.0,2,2,0.311891709,1,1st,3rd,2nd,-1.225899965916828,0.3677994436618236,-0.26498787734920015
-0.35688071748168815,0.0415761667192226,-0.4327855527635162,1,sub-A001,74,1,34.0,,1,0,0.1,2,1,1.483836944,0,2nd,2nd,2nd,-0.28982143037750996,-0.31498483246452785,-0.26498787734920015
-0.3912320117457049,-1.27262177453445,-0.09973244310275378,1,sub-A001,75,1,34.0,,1,0,0.3,2,1,1.370891217,0,2nd,1st,2nd,-0.28982143037750996,-1.2900504464254512,-0.26498787734920015
-0.3296454670821834,-0.8711957923234597,0.5048200506248691,1,sub-A001,76,1,34.0,,1,0,0.3,2,2,0.683589546,1,2nd,1st,3rd,-0.28982143037750996,-1.2900504464254512,0.3870619403794168
0.3497933881413034,0.8369262098771819,0.6776977415643591,1,sub-A001,77,1,34.0,,1,0,0.5,1,1,0.571941948,1,3rd,4th,4th,0.24418424435324815,1.2556651273199475,1.1992118340268907
1.4729553427045756,1.091753937686327,0.5984927568968811,1,sub-A001,78,1,34.0,,1,0,1.0,2,2,0.546088246,1,4th,4th,3rd,1.2890500085970444,1.2556651273199475,0.3870619403794168
0.3728231608709477,-1.2469655092958247,0.5724743549181999,1,sub-A001,79,1,34.0,,1,0,0.1,1,1,2.118571296,1,3rd,1st,3rd,0.24418424435324815,-1.2900504464254512,0.3870619403794168
-0.6517640959888054,1.0725489759960136,0.6267895251097125,1,sub-A001,80,1,34.0,,1,0,0.1,2,1,1.918967295,0,1st,4th,3rd,-1.225899965916828,1.2556651273199475,0.3870619403794168
3.110439372912775,1.3759110672058235,0.6495696153565833,1,sub-A001,81,1,34.0,,1,0,0.5,2,2,0.604414369,1,4th,4th,4th,1.2890500085970444,1.2556651273199475,1.1992118340268907
0.19924091107157318,-2.0397334706651145,0.5741420102742986,1,sub-A001,82,1,34.0,,1,0,0.3,1,1,1.76739497,1,3rd,1st,3rd,0.24418424435324815,-1.2900504464254512,0.3870619403794168
-0.06058702082815563,0.030744787301377974,0.5254344920137821,1,sub-A001,83,1,34.0,,1,0,0.75,2,2,0.633625625,1,2nd,2nd,3rd,-0.28982143037750996,-0.31498483246452785,0.3870619403794168
-0.35085237287319826,-0.5582385701403388,0.9918905300063736,1,sub-A001,84,1,34.0,,1,0,1.0,1,1,0.622345867,1,2nd,2nd,4th,-0.28982143037750996,-0.31498483246452785,1.1992118340268907
0.04718840991631432,1.1648745854992504,1.3551933303560422,1,sub-A001,86,1,34.0,,1,0,0.3,2,2,0.604459886,1,3rd,4th,4th,0.24418424435324815,1.2556651273199475,1.1992118340268907
-0.48759946375422164,-2.1256477827328304,1.2897130879452483,1,sub-A001,87,1,34.0,,1,0,0.3,2,2,1.471380437,1,2nd,1st,4th,-0.28982143037750996,-1.2900504464254512,1.1992118340268907
-1.861418259213687,-1.4858070123955869,1.2510464396808403,1,sub-A001,88,1,34.0,,1,0,0.1,1,1,2.408100538,1,1st,1st,4th,-1.225899965916828,-1.2900504464254512,1.1992118340268907
-0.7323212593613662,1.7764556984049094,1.1499440738450692,1,sub-A001,89,1,34.0,,1,0,0.5,1,1,0.85560975,1,1st,4th,4th,-1.225899965916828,1.2556651273199475,1.1992118340268907
-2.05396425630151,-1.3166796858149827,1.089954764215122,1,sub-A001,90,1,34.0,,1,0,0.3,1,1,1.763044519,1,1st,1st,4th,-1.225899965916828,-1.2900504464254512,1.1992118340268907
1.3087146525516726,0.44027775419190524,0.8269018731780091,1,sub-A001,91,1,34.0,,1,0,0.75,2,2,0.600241077,1,4th,3rd,4th,1.2890500085970444,0.3677994436618236,1.1992118340268907
0.6173146272760429,0.3017054669167171,-0.05515618187251168,1,sub-A001,92,1,34.0,,1,0,1.0,1,1,0.559983004,1,4th,3rd,2nd,1.2890500085970444,0.3677994436618236,-0.26498787734920015
-0.29765490474421175,-0.6799423692963551,-0.25174614714910915,1,sub-A001,93,1,34.0,,1,0,0.75,1,1,0.763110117,1,2nd,2nd,2nd,-0.28982143037750996,-0.31498483246452785,-0.26498787734920015
1.0500131446251662,0.8009058903482034,-0.13403150688684934,1,sub-A001,94,1,34.0,,1,0,0.5,1,1,1.027161396,1,4th,4th,2nd,1.2890500085970444,1.2556651273199475,-0.26498787734920015
-0.3308885213724524,-0.43715531981948585,-0.14870118478715288,1,sub-A001,96,1,34.0,,1,0,0.5,2,2,0.718986216,1,2nd,2nd,2nd,-0.28982143037750996,-0.31498483246452785,-0.26498787734920015
-0.2231985051075215,-1.2368997499767564,0.3096231120773886,1,sub-A001,98,1,34.0,,1,0,0.3,1,1,0.855104153,1,2nd,1st,3rd,-0.28982143037750996,-1.2900504464254512,0.3870619403794168
0.4273243775802775,-0.9862055563014108,0.18523855856783125,1,sub-A001,99,1,34.0,,1,0,0.75,1,1,0.778231605,1,3rd,1st,3rd,0.24418424435324815,-1.2900504464254512,0.3870619403794168
-0.13767789950306134,-1.1872039674302675,-0.07415611432410599,1,sub-A001,100,1,34.0,,1,0,0.75,2,2,0.878598999,1,2nd,1st,2nd,-0.28982143037750996,-1.2900504464254512,-0.26498787734920015
-1.0938608303896136,-0.3084972493332767,-0.20424175142355291,1,sub-A001,102,1,34.0,,1,0,0.1,2,1,1.017119525,0,1st,2nd,2nd,-1.225899965916828,-0.31498483246452785,-0.26498787734920015
1.0722215184905726,0.26747770509787405,-0.2895077664558767,1,sub-A001,103,1,34.0,,1,0,0.75,1,1,0.621470779,1,4th,3rd,2nd,1.2890500085970444,0.3677994436618236,-0.26498787734920015
-0.07996759145469634,0.7169458880840754,-0.03224873278654656,1,sub-A001,104,1,34.0,,1,0,0.75,2,2,0.571152092,1,2nd,4th,2nd,-0.28982143037750996,1.2556651273199475,-0.26498787734920015
-1.1486322769542503,1.8447797015771914,0.19292632352084094,1,sub-A001,105,1,34.0,,1,0,0.3,1,1,0.944105218,1,1st,4th,3rd,-1.225899965916828,1.2556651273199475,0.3870619403794168
0.9849790488875864,0.5599707382364669,-0.03764261194434957,1,sub-A001,106,1,34.0,,1,0,0.5,1,1,0.616947631,1,4th,3rd,2nd,1.2890500085970444,0.3677994436618236,-0.26498787734920015
-0.818402210624106,0.46467726737798415,0.41337356880806886,1,sub-A001,107,1,34.0,,1,0,0.5,2,2,0.450179294,1,1st,3rd,3rd,-1.225899965916828,0.3677994436618236,0.3870619403794168
1.335500418376748,-0.10704763633028341,0.5204724513500045,1,sub-A001,110,1,34.0,,1,0,0.75,2,2,0.525026332,1,4th,2nd,3rd,1.2890500085970444,-0.31498483246452785,0.3870619403794168
-0.01106665386644374,1.692007191554994,0.8115748444613203,1,sub-A001,111,1,34.0,,1,0,0.3,2,2,0.74389343,1,3rd,4th,4th,0.24418424435324815,1.2556651273199475,1.1992118340268907
1.1517185978842144,0.4794606137506407,0.9255639922924619,1,sub-A001,112,1,34.0,,1,0,0.3,2,2,0.642804456,1,4th,3rd,4th,1.2890500085970444,0.3677994436618236,1.1992118340268907
-0.5837818096364107,0.2804114857888796,0.8578777927909553,1,sub-A001,113,1,34.0,,1,0,0.3,1,1,0.972195951,1,2nd,3rd,4th,-0.28982143037750996,0.3677994436618236,1.1992118340268907
-1.0827318140614766,-0.19773671660973877,0.5863906532004978,1,sub-A001,114,1,34.0,,1,0,0.1,2,2,1.850615812,1,1st,2nd,3rd,-1.225899965916828,-0.31498483246452785,0.3870619403794168
0.6955704848439104,-0.5375869086749611,0.07237562221778952,1,sub-A001,115,1,34.0,,1,0,0.5,1,1,0.936180338,1,4th,2nd,2nd,1.2890500085970444,-0.31498483246452785,-0.26498787734920015
0.35780104863116063,0.7201188362082168,0.3538295934166249,1,sub-A001,116,1,34.0,,1,0,0.75,1,1,0.700335815,1,3rd,4th,3rd,0.24418424435324815,1.2556651273199475,0.3870619403794168
-1.2993239261529022,-1.0375339608122234,0.48321051626080014,1,sub-A001,117,1,34.0,,1,0,0.75,1,1,0.750322048,1,1st,1st,3rd,-1.225899965916828,-1.2900504464254512,0.3870619403794168
0.15664646122377046,0.7720229553359308,0.5578740950452388,1,sub-A001,118,1,34.0,,1,0,1.0,2,2,0.550257521,1,3rd,4th,3rd,0.24418424435324815,1.2556651273199475,0.3870619403794168
-0.03737424579975732,-0.6650391101869338,0.3963233441656427,1,sub-A001,119,1,34.0,,1,0,0.3,1,1,1.087671446,1,2nd,2nd,3rd,-0.28982143037750996,-0.31498483246452785,0.3870619403794168
0.6590233885835064,0.17959060716941136,0.46918777462291417,1,sub-A001,120,1,34.0,,1,0,0.5,2,2,0.583662596,1,4th,3rd,3rd,1.2890500085970444,0.3677994436618236,0.3870619403794168
-0.39930651577266374,0.9591398113510837,0.4598940462393292,1,sub-A001,121,1,34.0,,1,0,0.3,1,1,0.986572655,1,2nd,4th,3rd,-0.28982143037750996,1.2556651273199475,0.3870619403794168
-1.3137482071148887,-2.7655176568729596,0.07839250021684746,1,sub-A001,122,1,34.0,,1,0,0.5,2,2,0.712634352,1,1st,1st,2nd,-1.225899965916828,-1.2900504464254512,-0.26498787734920015
0.317462373336528,-1.7039961908518793,0.3391317473092846,1,sub-A001,123,1,34.0,,1,0,0.1,1,1,2.13796425,1,3rd,1st,3rd,0.24418424435324815,-1.2900504464254512,0.3870619403794168
0.07068316912694299,0.41175430394607,0.44879486991162426,1,sub-A001,124,1,34.0,,1,0,0.3,2,2,0.650240698,1,3rd,3rd,3rd,0.24418424435324815,0.3677994436618236,0.3870619403794168
-0.013565949746502657,-1.805914755935323,-0.10444847080356813,1,sub-A001,125,1,34.0,,1,0,0.5,2,2,0.696507472,1,3rd,1st,2nd,0.24418424435324815,-1.2900504464254512,-0.26498787734920015
0.3984441927968829,-0.7718215458940273,-0.7833565443784248,1,sub-A001,126,1,34.0,,1,0,0.1,1,1,1.940097038,1,3rd,1st,1st,0.24418424435324815,-1.2900504464254512,-1.3026762365351758
1.3594654301163216,0.7697241181775188,-0.6543637390801024,1,sub-A001,128,1,34.0,,1,0,0.1,2,2,1.390679545,1,4th,4th,1st,1.2890500085970444,1.2556651273199475,-1.3026762365351758
1.2424666085641,1.3017100051277632,-0.547531831961557,1,sub-A001,129,1,34.0,,1,0,0.5,1,1,0.700282712,1,4th,4th,2nd,1.2890500085970444,1.2556651273199475,-0.26498787734920015
0.16729390008883935,-1.690371175834058,-0.7256817788788438,1,sub-A001,130,1,34.0,,1,0,0.75,2,2,0.702787936,1,3rd,1st,1st,0.24418424435324815,-1.2900504464254512,-1.3026762365351758
-0.842582158242904,-0.1458756744895461,-0.5117798343566359,1,sub-A001,131,1,34.0,,1,0,0.5,1,1,0.746344659,1,1st,2nd,2nd,-1.225899965916828,-0.31498483246452785,-0.26498787734920015
-0.7922122390166683,-0.5584250118895044,-0.5605132743399792,1,sub-A001,132,1,34.0,,1,0,0.1,1,1,1.834460372,1,1st,2nd,2nd,-1.225899965916828,-0.31498483246452785,-0.26498787734920015
0.6946537088138774,1.314745467494104,-1.0448618565974077,1,sub-A001,133,1,34.0,,1,0,0.3,2,2,0.822244837,1,4th,4th,1st,1.2890500085970444,1.2556651273199475,-1.3026762365351758
1.0197836862282363,0.9573417454611272,-0.9983104624377055,1,sub-A001,134,1,34.0,,1,0,1.0,1,1,0.533621474,1,4th,4th,1st,1.2890500085970444,1.2556651273199475,-1.3026762365351758
0.521011239749557,-0.681174596431695,-0.8272082971699771,1,sub-A001,135,1,34.0,,1,0,0.75,1,1,0.608533218,1,3rd,2nd,1st,0.24418424435324815,-0.31498483246452785,-1.3026762365351758
0.3744126481449136,0.8150148902030337,-0.6951974414125991,1,sub-A001,137,1,34.0,,1,0,0.75,1,1,0.533668777,1,3rd,4th,1st,0.24418424435324815,1.2556651273199475,-1.3026762365351758
0.2583518178957696,-0.16356010820931996,-0.647854593773912,1,sub-A001,138,1,34.0,,1,0,0.75,2,2,0.500208813,1,3rd,2nd,1st,0.24418424435324815,-0.31498483246452785,-1.3026762365351758
-0.5904693367542996,0.012057628306695146,-0.6914487652370732,1,sub-A001,140,1,34.0,,1,0,0.1,1,1,1.229711066,1,2nd,2nd,1st,-0.28982143037750996,-0.31498483246452785,-1.3026762365351758
0.10474072810389332,-1.3458368196238584,-0.5680998391506964,1,sub-A001,141,1,34.0,,1,0,1.0,1,1,0.718376644,1,3rd,1st,2nd,0.24418424435324815,-1.2900504464254512,-0.26498787734920015
-2.0463803083803476,-1.0667470317923193,-0.40530944628817744,1,sub-A001,142,1,34.0,,1,0,0.5,1,1,1.127725585,1,1st,1st,2nd,-1.225899965916828,-1.2900504464254512,-0.26498787734920015
-0.44807922695388314,-1.175321653491892,-0.466263737873612,1,sub-A001,143,1,34.0,,1,0,0.3,1,1,2.37808247,1,2nd,1st,2nd,-0.28982143037750996,-1.2900504464254512,-0.26498787734920015
-1.51955032827837,0.42641363179148245,-0.7604409442220674,1,sub-A001,145,1,34.0,,1,0,0.75,1,1,0.32277163,1,1st,3rd,1st,-1.225899965916828,0.3677994436618236,-1.3026762365351758
2.7342985957700163,0.4365546639360102,-0.4390998048254174,1,sub-A001,147,1,34.0,,1,0,1.0,1,1,0.536140532,1,4th,3rd,2nd,1.2890500085970444,0.3677994436618236,-0.26498787734920015
-0.18057069864116793,-0.004251314913636941,-0.5854334306123382,1,sub-A001,148,1,34.0,,1,0,1.0,2,2,0.486654095,1,2nd,2nd,2nd,-0.28982143037750996,-0.31498483246452785,-0.26498787734920015
-0.8678577538976051,-1.4202754536371553,-0.5855922115297068,1,sub-A001,149,1,34.0,,1,0,0.1,1,1,1.773913284,1,1st,1st,2nd,-1.225899965916828,-1.2900504464254512,-0.26498787734920015
0.3582487674069666,-1.091456625089023,-0.6201101521768242,1,sub-A001,152,1,34.0,,1,0,0.3,1,1,0.601677096,1,3rd,1st,2nd,0.24418424435324815,-1.2900504464254512,-0.26498787734920015
0.6157247322363016,-0.1470206493531303,-0.2702572601358663,1,sub-A001,153,1,34.0,,1,0,0.5,2,2,0.692944644,1,4th,2nd,2nd,1.2890500085970444,-0.31498483246452785,-0.26498787734920015
1.7978379793330603,1.6438272440436303,0.35454728845475336,1,sub-A001,155,1,34.0,,1,0,0.75,2,2,0.538177645,1,4th,4th,3rd,1.2890500085970444,1.2556651273199475,0.3870619403794168
0.007112777047661388,0.8803464817584763,1.1058450869914431,1,sub-A001,156,1,34.0,,1,0,0.1,2,1,1.45988782,0,3rd,4th,4th,0.24418424435324815,1.2556651273199475,1.1992118340268907
-0.4089018682357432,-1.2750491077282424,0.9185390431591528,1,sub-A001,157,1,34.0,,1,0,0.3,1,1,2.229507132,1,2nd,1st,4th,-0.28982143037750996,-1.2900504464254512,1.1992118340268907
-0.23207743830259187,-1.0910334667776378,0.8389674800100064,1,sub-A001,158,1,34.0,,1,0,0.1,1,1,2.341810711,1,2nd,1st,4th,-0.28982143037750996,-1.2900504464254512,1.1992118340268907
2.635918302765857,-0.22958052637493906,0.7642632475175504,1,sub-A001,159,1,34.0,,1,0,1.0,2,2,0.600870284,1,4th,2nd,4th,1.2890500085970444,-0.31498483246452785,1.1992118340268907
-0.23508908973545203,-0.8939207005703416,1.0586591152952052,1,sub-A001,160,1,34.0,,1,0,0.5,1,1,0.850504697,1,2nd,1st,4th,-0.28982143037750996,-1.2900504464254512,1.1992118340268907
-1.8818134017588983,-0.8796953214085164,0.9964985534544064,1,sub-A001,162,1,34.0,,1,0,0.3,1,1,1.203060369,1,1st,1st,4th,-1.225899965916828,-1.2900504464254512,1.1992118340268907
-0.5538477539085862,-0.37571718348045596,0.7918140775838477,1,sub-A001,163,1,34.0,,1,0,0.1,1,2,1.703780387,0,2nd,2nd,4th,-0.28982143037750996,-0.31498483246452785,1.1992118340268907
2.333901429875227,1.0068408513507014,0.7873944741941584,1,sub-A001,164,1,34.0,,1,0,0.5,2,2,0.574278937,1,4th,4th,4th,1.2890500085970444,1.2556651273199475,1.1992118340268907
2.0199487369955658,-0.36628951131143944,0.747313538745214,1,sub-A001,165,1,34.0,,1,0,0.75,1,1,0.602611089,1,4th,2nd,4th,1.2890500085970444,-0.31498483246452785,1.1992118340268907
-0.8398940940996674,-1.160415040475433,0.4452112563189803,1,sub-A001,166,1,34.0,,1,0,0.75,2,2,0.728143628,1,1st,1st,3rd,-1.225899965916828,-1.2900504464254512,0.3870619403794168
-1.8676606980670907,-0.6183639771269909,0.3034159802598414,1,sub-A001,167,1,34.0,,1,0,0.1,2,2,2.444720815,1,1st,2nd,3rd,-1.225899965916828,-0.31498483246452785,0.3870619403794168
0.4913568954686466,-1.5784586943168106,0.8336951800761614,1,sub-A001,169,1,34.0,,1,0,0.5,1,1,0.800335056,1,3rd,1st,4th,0.24418424435324815,-1.2900504464254512,1.1992118340268907
-1.458060449142349,-1.8904139431084637,0.4986282957591869,1,sub-A001,170,1,34.0,,1,0,0.1,2,2,1.518296498,1,1st,1st,3rd,-1.225899965916828,-1.2900504464254512,0.3870619403794168
0.6756274129437739,-1.0057823116814717,0.34861114543681726,1,sub-A001,171,1,34.0,,1,0,0.75,1,2,0.710921214,0,4th,1st,3rd,1.2890500085970444,-1.2900504464254512,0.3870619403794168
-0.5158184679898256,0.2753144256966838,-0.19762757449679083,1,sub-A001,173,1,34.0,,1,0,0.3,2,2,0.883723241,1,2nd,3rd,2nd,-0.28982143037750996,0.3677994436618236,-0.26498787734920015
1.1853121064898398,0.08722725142777323,-0.13431397071698747,1,sub-A001,174,1,34.0,,1,0,0.75,2,2,0.64257107,1,4th,3rd,2nd,1.2890500085970444,0.3677994436618236,-0.26498787734920015
1.6661537384061351,0.3508010226012912,-0.09292451056789612,1,sub-A001,175,1,34.0,,1,0,0.75,1,1,0.554969878,1,4th,3rd,2nd,1.2890500085970444,0.3677994436618236,-0.26498787734920015
-0.46990353973223004,-0.4223855242450375,0.30801989415764497,1,sub-A001,176,1,34.0,,1,0,0.3,1,1,1.44184476,1,2nd,2nd,3rd,-0.28982143037750996,-0.31498483246452785,0.3870619403794168
1.8432049422479886,0.19116542190043712,0.9725902959303764,1,sub-A001,177,1,34.0,,1,0,1.0,1,1,0.687163975,1,4th,3rd,4th,1.2890500085970444,0.3677994436618236,1.1992118340268907
-2.019391694214037,0.5860165889235851,0.5321745288981159,1,sub-A001,178,1,34.0,,1,0,0.75,2,2,0.989351874,1,1st,3rd,3rd,-1.225899965916828,0.3677994436618236,0.3870619403794168
-0.2752012597378955,-1.2192324321654435,-0.07069827812371836,1,sub-A001,179,1,34.0,,1,0,0.3,2,2,0.851408345,1,2nd,1st,2nd,-0.28982143037750996,-1.2900504464254512,-0.26498787734920015
0.02795960310760542,0.9254753031595179,-0.19818720352389052,1,sub-A001,181,1,34.0,,1,0,0.3,2,2,0.733844865,1,3rd,4th,2nd,0.24418424435324815,1.2556651273199475,-0.26498787734920015
0.34710012595340534,0.055576033649329615,-0.10721075945918702,1,sub-A001,182,1,34.0,,1,0,0.1,2,2,1.804408835,1,3rd,2nd,2nd,0.24418424435324815,-0.31498483246452785,-0.26498787734920015
0.429824979718281,1.0086517921885816,0.09127204848790468,1,sub-A001,183,1,34.0,,1,0,0.5,1,1,0.537840283,1,3rd,4th,3rd,0.24418424435324815,1.2556651273199475,0.3870619403794168
-0.15751997606608084,-0.12667544375122566,-0.030678114211887344,1,sub-A001,184,1,34.0,,1,0,1.0,1,1,0.51795155,1,2nd,2nd,2nd,-0.28982143037750996,-0.31498483246452785,-0.26498787734920015
0.13238252083346025,-1.110272364600372,0.2888451892265238,1,sub-A001,185,1,34.0,,1,0,0.75,2,2,0.66787812,1,3rd,1st,3rd,0.24418424435324815,-1.2900504464254512,0.3870619403794168
0.19850776489631652,0.5900727044072707,-0.20801605711806026,1,sub-A001,186,1,34.0,,1,0,1.0,2,2,0.610038852,1,3rd,3rd,2nd,0.24418424435324815,0.3677994436618236,-0.26498787734920015
0.2417408594238891,0.5648958958087471,-0.1874993991193866,1,sub-A001,187,1,34.0,,1,0,0.5,2,2,0.616899882,1,3rd,3rd,2nd,0.24418424435324815,0.3677994436618236,-0.26498787734920015
0.20474761590868623,-0.5485410394007659,-0.08750860521016929,1,sub-A001,188,1,34.0,,1,0,0.5,2,2,0.761062294,1,3rd,2nd,2nd,0.24418424435324815,-0.31498483246452785,-0.26498787734920015
0.6720350028329527,1.4239036690182656,0.5767221821506796,1,sub-A001,189,1,34.0,,1,0,0.5,2,2,0.561986648,1,4th,4th,3rd,1.2890500085970444,1.2556651273199475,0.3870619403794168
1.3100703724173808,0.4139452247102709,0.8412528954155937,1,sub-A001,190,1,34.0,,1,0,0.3,2,2,0.570190879,1,4th,3rd,4th,1.2890500085970444,0.3677994436618236,1.1992118340268907
-0.6309752224194365,-1.2028551647053916,0.7042495579250776,1,sub-A001,192,1,34.0,,1,0,0.1,2,2,2.169023426,1,1st,1st,4th,-1.225899965916828,-1.2900504464254512,1.1992118340268907
0.18920518777775386,0.6535406556988838,0.6321085813136346,1,sub-A001,193,1,34.0,,1,0,0.1,1,1,1.457218823,1,3rd,3rd,4th,0.24418424435324815,0.3677994436618236,1.1992118340268907
1.0220277668536222,0.3302790314611635,0.35869251643052663,1,sub-A001,195,1,34.0,,1,0,0.75,2,2,0.673861385,1,4th,3rd,3rd,1.2890500085970444,0.3677994436618236,0.3870619403794168
0.8010680264152968,0.43444726137074197,0.6372793386714153,1,sub-A001,196,1,34.0,,1,0,0.5,1,1,0.638175994,1,4th,3rd,4th,1.2890500085970444,0.3677994436618236,1.1992118340268907
-0.0359320959699127,-0.36676926363604084,0.8487113882178534,1,sub-A001,197,1,34.0,,1,0,0.75,2,2,0.661718142,1,2nd,2nd,4th,-0.28982143037750996,-0.31498483246452785,1.1992118340268907
-1.8437227714251052,-0.3385154438612903,0.605488413019895,1,sub-A001,198,1,34.0,,1,0,0.3,1,1,1.033705592,1,1st,2nd,3rd,-1.225899965916828,-0.31498483246452785,0.3870619403794168
-1.3752257204331608,-1.3792449421618913,0.2753395203537076,1,sub-A001,199,1,34.0,,1,0,0.3,2,2,0.950569983,1,1st,1st,3rd,-1.225899965916828,-1.2900504464254512,0.3870619403794168
0.5207987683250309,1.186591074432574,0.19606962165498912,1,sub-A001,200,1,34.0,,1,0,0.5,1,1,0.672386989,1,3rd,4th,3rd,0.24418424435324815,1.2556651273199475,0.3870619403794168
0.08066447600702244,-0.5515810646701621,0.0960548387812081,1,sub-A001,201,1,34.0,,1,0,1.0,1,1,0.700331353,1,3rd,2nd,3rd,0.24418424435324815,-0.31498483246452785,0.3870619403794168
-0.0296871946912384,-0.3926367574330232,0.116801125475461,1,sub-A001,203,1,34.0,,1,0,0.3,1,1,0.683478877,1,2nd,2nd,3rd,-0.28982143037750996,-0.31498483246452785,0.3870619403794168
-0.040441368077326637,-1.8107894296033673,0.1770940914719114,1,sub-A001,204,1,34.0,,1,0,0.1,1,1,1.541306721,1,2nd,1st,3rd,-0.28982143037750996,-1.2900504464254512,0.3870619403794168
0.6454518955800715,1.76267098841294,0.17977615256895627,1,sub-A001,205,1,34.0,,1,0,0.75,1,1,0.520715597,1,4th,4th,3rd,1.2890500085970444,1.2556651273199475,0.3870619403794168
0.4474963015458863,-1.0414142200518277,0.3752461940918935,1,sub-A001,206,1,34.0,,1,0,0.5,2,2,0.609462302,1,3rd,1st,3rd,0.24418424435324815,-1.2900504464254512,0.3870619403794168
0.06558278351238699,-1.2651815288329726,0.66458216376202,1,sub-A001,207,1,34.0,,1,0,0.75,1,1,0.560381948,1,3rd,1st,4th,0.24418424435324815,-1.2900504464254512,1.1992118340268907
-1.1400249337320572,-0.5842629203402739,0.44614433096533845,1,sub-A001,208,1,34.0,,1,0,0.3,2,2,1.255407243,1,1st,2nd,3rd,-1.225899965916828,-0.31498483246452785,0.3870619403794168
-0.08913735075601967,-0.2378235174761448,0.7291028861473066,1,sub-A001,209,1,34.0,,1,0,0.3,1,1,0.537257932,1,2nd,2nd,4th,-0.28982143037750996,-0.31498483246452785,1.1992118340268907
1.777171697166586,0.7816845730809996,0.9155220132887176,1,sub-A001,210,1,34.0,,1,0,0.75,2,2,0.586892524,1,4th,4th,4th,1.2890500085970444,1.2556651273199475,1.1992118340268907
-1.1709855886274878,1.0948629165810209,0.6328447393658249,1,sub-A001,211,1,34.0,,1,0,0.3,1,1,0.757577339,1,1st,4th,4th,-1.225899965916828,1.2556651273199475,1.1992118340268907
0.5705515773303973,1.2531047450322321,0.33920344121689366,1,sub-A001,212,1,34.0,,1,0,1.0,2,2,0.491315579,1,4th,4th,3rd,1.2890500085970444,1.2556651273199475,0.3870619403794168
0.4038930992219387,-0.3127212122351702,-0.06234307049199325,1,sub-A001,213,1,34.0,,1,0,0.75,1,1,0.516882345,1,3rd,2nd,2nd,0.24418424435324815,-0.31498483246452785,-0.26498787734920015
-0.8850403099926935,-0.4965493723167964,-0.4988117896061038,1,sub-A001,214,1,34.0,,1,0,0.1,1,1,1.602087643,1,1st,2nd,2nd,-1.225899965916828,-0.31498483246452785,-0.26498787734920015
-1.2333756153839757,-1.3556174355957753,-0.28470114754839965,1,sub-A001,218,1,34.0,,1,0,0.1,1,1,0.938375867,1,1st,1st,2nd,-1.225899965916828,-1.2900504464254512,-0.26498787734920015
0.03852572221689056,1.8841164184532402,0.14386738986389658,1,sub-A001,219,1,34.0,,1,0,1.0,1,1,0.421845358,1,3rd,4th,3rd,0.24418424435324815,1.2556651273199475,0.3870619403794168
0.4116131079656408,-0.21621198809203682,-0.03060346220143593,1,sub-A001,220,1,34.0,,1,0,0.1,2,2,2.005946167,1,3rd,2nd,2nd,0.24418424435324815,-0.31498483246452785,-0.26498787734920015
0.40380811922452226,1.2726201923433407,-0.5947683676630398,1,sub-A001,221,1,34.0,,1,0,0.5,2,2,0.408623092,1,3rd,4th,2nd,0.24418424435324815,1.2556651273199475,-0.26498787734920015
0.38826801701847796,-1.0435968278575267,-0.45711577873327836,1,sub-A001,222,1,34.0,,1,0,0.5,2,2,0.570205605,1,3rd,1st,2nd,0.24418424435324815,-1.2900504464254512,-0.26498787734920015
-0.33179217205818856,-0.48791642404944147,-0.13119223689643705,1,sub-A001,223,1,34.0,,1,0,0.1,2,1,2.440495759,0,2nd,2nd,2nd,-0.28982143037750996,-0.31498483246452785,-0.26498787734920015
0.5069217262915141,0.29957332823102867,-0.28772154919939824,1,sub-A001,224,1,34.0,,1,0,0.5,1,1,0.47198867,1,3rd,3rd,2nd,0.24418424435324815,0.3677994436618236,-0.26498787734920015
-0.303810640009076,0.6021895510666329,-0.3534685288569727,1,sub-A001,225,1,34.0,,1,0,0.75,2,2,0.402910252,1,2nd,3rd,2nd,-0.28982143037750996,0.3677994436618236,-0.26498787734920015
0.413909124945146,-0.3052419488519435,-0.4897960134080125,1,sub-A001,226,1,34.0,,1,0,0.1,2,2,1.571356473,1,3rd,2nd,2nd,0.24418424435324815,-0.31498483246452785,-0.26498787734920015
-1.2360444802412436,0.0967496778067062,-0.5776125026153871,1,sub-A001,227,1,34.0,,1,0,0.3,2,2,0.912730116,1,1st,3rd,2nd,-1.225899965916828,0.3677994436618236,-0.26498787734920015
-0.21686687757410486,0.5751540866001297,-0.6238019326483792,1,sub-A001,228,1,34.0,,1,0,0.1,1,1,0.94384595,1,2nd,3rd,1st,-0.28982143037750996,0.3677994436618236,-1.3026762365351758
-0.020853135251622048,-1.228078062069268,-0.450238592818931,1,sub-A001,229,1,34.0,,1,0,0.3,1,2,2.31178104,0,2nd,1st,2nd,-0.28982143037750996,-1.2900504464254512,-0.26498787734920015
-0.964896010600677,-0.8095840553906736,-0.6084919921614265,1,sub-A001,230,1,34.0,,1,0,0.1,1,2,2.218153744,0,1st,1st,2nd,-1.225899965916828,-1.2900504464254512,-0.26498787734920015
0.5256381304027397,1.3165251840488297,0.008643826902785942,1,sub-A001,232,1,34.0,,1,0,0.3,1,1,0.627161307,1,4th,4th,2nd,1.2890500085970444,1.2556651273199475,-0.26498787734920015
-0.8695579855372191,-0.6629420143385077,-0.2899363649422365,1,sub-A001,233,1,34.0,,1,0,0.1,1,2,1.791643525,0,1st,2nd,2nd,-1.225899965916828,-0.31498483246452785,-0.26498787734920015
0.9195697439913578,0.5387102792827516,-0.5170634801146259,1,sub-A001,234,1,34.0,,1,0,0.3,2,2,0.635498965,1,4th,3rd,2nd,1.2890500085970444,0.3677994436618236,-0.26498787734920015
-0.828959571996492,-0.39414035535393166,-0.9797379534689862,1,sub-A001,235,1,34.0,,1,0,0.75,2,2,0.48963935,1,1st,2nd,1st,-1.225899965916828,-0.31498483246452785,-1.3026762365351758
0.5013420274162884,0.7076156735261143,-1.2573800702967117,1,sub-A001,236,1,34.0,,1,0,0.5,1,1,0.524226213,1,3rd,4th,1st,0.24418424435324815,1.2556651273199475,-1.3026762365351758
0.2775450563402149,0.10163362540787588,-0.9648956348175318,1,sub-A001,237,1,34.0,,1,0,1.0,2,2,0.519209963,1,3rd,3rd,1st,0.24418424435324815,0.3677994436618236,-1.3026762365351758
0.2950250374760091,2.1631047125803047,-0.4889476468446643,1,sub-A001,238,1,34.0,,1,0,1.0,1,1,0.467042926,1,3rd,4th,2nd,0.24418424435324815,1.2556651273199475,-0.26498787734920015
0.224540511107704,0.9461290851051635,-0.6202248843544386,1,sub-A001,239,1,34.0,,1,0,0.5,2,2,0.751011052,1,3rd,4th,2nd,0.24418424435324815,1.2556651273199475,-0.26498787734920015
-0.24531434720804546,0.526857656292196,-0.2688618070836715,1,sub-A001,240,1,34.0,,1,0,0.5,1,1,0.602019367,1,2nd,3rd,2nd,-0.28982143037750996,0.3677994436618236,-0.26498787734920015
-0.0014654049871356918,0.1116181982114935,-0.41770182749174384,1,sub-A001,241,1,34.0,,1,0,0.3,1,1,0.817007695,1,3rd,3rd,2nd,0.24418424435324815,0.3677994436618236,-0.26498787734920015
0.08265639523009648,0.19239847695237552,-0.7310604577223467,1,sub-A001,242,1,34.0,,1,0,0.5,2,2,0.550279387,1,3rd,3rd,1st,0.24418424435324815,0.3677994436618236,-1.3026762365351758
0.8181990689048302,0.4334031740584082,-0.8849255900975914,1,sub-A001,243,1,34.0,,1,0,0.75,2,2,0.600169231,1,4th,3rd,1st,1.2890500085970444,0.3677994436618236,-1.3026762365351758
0.5820102722979811,-0.6055745411605422,-0.7244694303255937,1,sub-A001,244,1,34.0,,1,0,0.3,1,1,0.943006561,1,4th,2nd,1st,1.2890500085970444,-0.31498483246452785,-1.3026762365351758
-1.3970725790393468,0.49376288989064093,-0.9073105375887635,1,sub-A001,245,1,34.0,,1,0,0.3,2,2,0.525266413,1,1st,3rd,1st,-1.225899965916828,0.3677994436618236,-1.3026762365351758
-0.27709026336443476,0.6503599015039542,-0.9092241028981223,1,sub-A001,246,1,34.0,,1,0,0.75,1,1,0.457528072,1,2nd,3rd,1st,-0.28982143037750996,0.3677994436618236,-1.3026762365351758
-0.22577453693022942,-0.06101689272429735,-1.020107560194376,1,sub-A001,247,1,34.0,,1,0,0.3,2,2,0.443416884,1,2nd,2nd,1st,-0.28982143037750996,-0.31498483246452785,-1.3026762365351758
-0.4983722156780259,-1.3221753602930684,-1.215278733122949,1,sub-A001,248,1,34.0,,1,0,0.75,1,1,0.366790664,1,2nd,1st,1st,-0.28982143037750996,-1.2900504464254512,-1.3026762365351758
0.4682909661030478,0.438585999551734,-1.2600024465547537,1,sub-A001,249,1,34.0,,1,0,0.75,1,1,0.400469733,1,3rd,3rd,1st,0.24418424435324815,0.3677994436618236,-1.3026762365351758
-0.2060094090024657,1.388183089090556,-0.887120347444627,1,sub-A001,250,1,34.0,,1,0,1.0,2,2,0.321079912,1,2nd,4th,1st,-0.28982143037750996,1.2556651273199475,-1.3026762365351758
-2.3502845369904226,0.3093678857270999,-0.6769482680682918,1,sub-A001,251,1,34.0,,1,0,0.75,2,1,0.100988762,0,1st,3rd,1st,-1.225899965916828,0.3677994436618236,-1.3026762365351758
0.5764806126709094,-1.3813750065680142,-0.6649521631689469,1,sub-A001,252,1,34.0,,1,0,0.3,1,1,0.750228783,1,4th,1st,1st,1.2890500085970444,-1.2900504464254512,-1.3026762365351758
-1.4174336384661048,-0.6901364725844896,-0.13383385705874706,1,sub-A001,253,1,34.0,,1,0,0.3,1,1,0.385821266,1,1st,2nd,2nd,-1.225899965916828,-0.31498483246452785,-0.26498787734920015
-1.8245211843573494,0.2570661300843771,-0.001856244455607953,1,sub-A001,254,1,34.0,,1,0,0.75,1,1,0.307490832,1,1st,3rd,2nd,-1.225899965916828,0.3677994436618236,-0.26498787734920015
0.41985881609846964,0.8576931967455165,0.3328166103963679,1,sub-A001,255,1,34.0,,1,0,0.3,2,2,0.653988717,1,3rd,4th,3rd,0.24418424435324815,1.2556651273199475,0.3870619403794168
-0.0947654083486313,-0.7845947783499001,0.3210676686968849,1,sub-A001,256,1,34.0,,1,0,0.3,2,1,1.033797518,0,2nd,1st,3rd,-0.28982143037750996,-1.2900504464254512,0.3870619403794168
-1.3175913620798585,-0.34753338179520166,0.14627045092316407,1,sub-A001,258,1,34.0,,1,0,0.5,2,2,0.951529857,1,1st,2nd,3rd,-1.225899965916828,-0.31498483246452785,0.3870619403794168
-0.8837207600668259,-0.13213550303133936,0.5328039923866761,1,sub-A001,259,1,34.0,,1,0,0.1,1,1,0.336424523,1,1st,2nd,3rd,-1.225899965916828,-0.31498483246452785,0.3870619403794168
1.7735269473599988,-0.8306468450323689,0.5229659801656459,1,sub-A001,260,1,34.0,,1,0,0.3,1,1,0.506139868,1,4th,1st,3rd,1.2890500085970444,-1.2900504464254512,0.3870619403794168
0.8738651472278391,0.3163367807678282,0.2778361394702534,1,sub-A001,261,1,34.0,,1,0,0.1,2,2,0.667181977,1,4th,3rd,3rd,1.2890500085970444,0.3677994436618236,0.3870619403794168
-0.8111099650644404,-0.0705022487151138,-0.00278472119433068,1,sub-A001,262,1,34.0,,1,0,0.75,2,2,0.455747551,1,1st,2nd,2nd,-1.225899965916828,-0.31498483246452785,-0.26498787734920015
-0.040607427673103366,-1.4480712729063112,-0.24910550179333887,1,sub-A001,263,1,34.0,,1,0,0.1,1,1,1.378579588,1,2nd,1st,2nd,-0.28982143037750996,-1.2900504464254512,-0.26498787734920015
1.3493344680930213,2.2658211147007847,-0.1847198237111874,1,sub-A001,265,1,34.0,,1,0,0.5,2,2,0.604617857,1,4th,4th,2nd,1.2890500085970444,1.2556651273199475,-0.26498787734920015
-0.42591334745702536,0.5313087048897522,-0.1356823356564798,1,sub-A001,266,1,34.0,,1,0,0.5,2,2,0.483615606,1,2nd,3rd,2nd,-0.28982143037750996,0.3677994436618236,-0.26498787734920015
0.8522608511477138,0.6606305617330894,0.011464834800606154,1,sub-A001,267,1,34.0,,1,0,0.75,1,1,0.596473869,1,4th,3rd,2nd,1.2890500085970444,0.3677994436618236,-0.26498787734920015
-0.02797003474976824,-0.8117588317811986,0.28872823494186384,1,sub-A001,268,1,34.0,,1,0,0.1,2,2,0.850366807,1,2nd,1st,3rd,-0.28982143037750996,-1.2900504464254512,0.3870619403794168
1.3580920123547364,0.8221363077567633,0.20483438237680787,1,sub-A001,269,1,34.0,,1,0,1.0,2,2,0.516730621,1,4th,4th,3rd,1.2890500085970444,1.2556651273199475,0.3870619403794168
-0.6446125642502144,0.2161575206161492,-0.15567530874564386,1,sub-A001,270,1,34.0,,1,0,0.5,1,1,0.640747709,1,1st,3rd,2nd,-1.225899965916828,0.3677994436618236,-0.26498787734920015
0.4079684347438609,1.543046206798446,0.2525463590639151,1,sub-A001,272,1,34.0,,1,0,0.75,1,1,0.460875362,1,3rd,4th,3rd,0.24418424435324815,1.2556651273199475,0.3870619403794168
0.37893406903561083,0.5449871374244512,0.6171435302663472,1,sub-A001,273,1,34.0,,1,0,0.5,1,1,0.484885176,1,3rd,3rd,3rd,0.24418424435324815,0.3677994436618236,0.3870619403794168
0.24056729494865606,0.7926136804500131,0.2262109924649506,1,sub-A001,274,1,34.0,,1,0,0.75,2,2,0.408662808,1,3rd,4th,3rd,0.24418424435324815,1.2556651273199475,0.3870619403794168
-1.644300966788596,-0.10048942171505909,0.427731906621653,1,sub-A001,275,1,34.0,,1,0,0.5,2,2,0.552996132,1,1st,2nd,3rd,-1.225899965916828,-0.31498483246452785,0.3870619403794168
-0.40246511296850274,-0.7843255027002144,0.7677673082249277,1,sub-A001,276,1,34.0,,1,0,0.5,1,1,0.528559261,1,2nd,1st,4th,-0.28982143037750996,-1.2900504464254512,1.1992118340268907
0.03167180350793842,0.9582795891087046,0.764213288130669,1,sub-A001,277,1,34.0,,1,0,0.1,2,2,0.921205218,1,3rd,4th,4th,0.24418424435324815,1.2556651273199475,1.1992118340268907
-0.1832889848973782,0.1383638411796564,0.632304321436893,1,sub-A001,278,1,34.0,,1,0,0.3,1,1,0.700177844,1,2nd,3rd,4th,-0.28982143037750996,0.3677994436618236,1.1992118340268907
1.2134467075825888,0.7858206416533667,0.6580204078465666,1,sub-A001,279,1,34.0,,1,0,1.0,1,1,0.500284229,1,4th,4th,4th,1.2890500085970444,1.2556651273199475,1.1992118340268907
-0.1415356143451999,0.44293114240967585,1.1663165326094873,1,sub-A001,280,1,34.0,,1,0,0.75,2,2,0.488049952,1,2nd,3rd,4th,-0.28982143037750996,0.3677994436618236,1.1992118340268907
-1.1430521857960239,0.2959479997188169,1.411090042597793,1,sub-A001,281,1,34.0,,1,0,0.75,2,2,0.369697509,1,1st,3rd,4th,-1.225899965916828,0.3677994436618236,1.1992118340268907
0.2906765098642817,-1.1209352925588174,1.2951030482544372,1,sub-A001,282,1,34.0,,1,0,0.3,2,2,1.976623156,1,3rd,1st,4th,0.24418424435324815,-1.2900504464254512,1.1992118340268907
-1.132686805677779,-1.559998726619397,1.379033290299077,1,sub-A001,283,1,34.0,,1,0,0.1,1,1,1.71144466,1,1st,1st,4th,-1.225899965916828,-1.2900504464254512,1.1992118340268907
-1.224861230118154,0.38363112603135396,1.0125171529492538,1,sub-A001,284,1,34.0,,1,0,0.75,1,1,0.528637354,1,1st,3rd,4th,-1.225899965916828,0.3677994436618236,1.1992118340268907
-0.43091600095848787,0.637456162358104,1.187228643675476,1,sub-A001,285,1,34.0,,1,0,0.1,1,1,1.106963102,1,2nd,3rd,4th,-0.28982143037750996,0.3677994436618236,1.1992118340268907
-0.7859141460814881,-0.0036817758787121638,0.5405435652314271,1,sub-A001,286,1,34.0,,1,0,0.1,2,2,1.39296477,1,1st,2nd,3rd,-1.225899965916828,-0.31498483246452785,0.3870619403794168
1.4778205479014774,0.061112666766700456,0.6286086504797898,1,sub-A001,287,1,34.0,,1,0,1.0,2,2,0.508480427,1,4th,2nd,3rd,1.2890500085970444,-0.31498483246452785,0.3870619403794168
-1.7416458506699948,0.6254748912658539,1.159821247027927,1,sub-A001,289,1,34.0,,1,0,0.5,1,1,0.371341926,1,1st,3rd,4th,-1.225899965916828,0.3677994436618236,1.1992118340268907
0.18709501642307882,-0.04302494712498078,1.9107646682868038,1,sub-A001,292,1,34.0,,1,0,0.75,2,2,0.490575257,1,3rd,2nd,4th,0.24418424435324815,-0.31498483246452785,1.1992118340268907
-0.7071778761964931,0.736435247574195,1.8222996166637768,1,sub-A001,293,1,34.0,,1,0,0.5,2,2,0.409670877,1,1st,4th,4th,-1.225899965916828,1.2556651273199475,1.1992118340268907
0.6792054919647192,0.1990871306725486,1.816618416495349,1,sub-A001,294,1,34.0,,1,0,0.5,2,2,0.472629479,1,4th,3rd,4th,1.2890500085970444,0.3677994436618236,1.1992118340268907
-1.3622162227012515,-1.880265654021504,1.5847809267564383,1,sub-A001,295,1,34.0,,1,0,0.1,2,2,1.800418058,1,1st,1st,4th,-1.225899965916828,-1.2900504464254512,1.1992118340268907
0.26808014932585605,0.14731392374498306,1.8735894999352436,1,sub-A001,296,1,34.0,,1,0,0.5,2,2,0.468896632,1,3rd,3rd,4th,0.24418424435324815,0.3677994436618236,1.1992118340268907
-0.018005252414193734,-0.6807658759720168,1.56041537571867,1,sub-A001,297,1,34.0,,1,0,1.0,2,2,0.484565218,1,3rd,2nd,4th,0.24418424435324815,-0.31498483246452785,1.1992118340268907
-0.6610993032074177,-0.8649172952448195,1.4170308894824795,1,sub-A001,298,1,34.0,,1,0,0.3,1,1,0.604919073,1,1st,1st,4th,-1.225899965916828,-1.2900504464254512,1.1992118340268907
-0.542822537181155,-0.5316674401638158,1.8737141617174145,1,sub-A001,299,1,34.0,,1,0,0.5,1,1,0.584978575,1,2nd,2nd,4th,-0.28982143037750996,-0.31498483246452785,1.1992118340268907
-0.9934753065677042,-1.0258616377813714,1.966204026690943,1,sub-A001,303,1,34.0,,1,0,0.1,1,1,0.973727467,1,1st,1st,4th,-1.225899965916828,-1.2900504464254512,1.1992118340268907
1.2453881373164726,1.7981169027849444,2.036263434533347,1,sub-A001,304,1,34.0,,1,0,0.75,1,1,0.45385279,1,4th,4th,4th,1.2890500085970444,1.2556651273199475,1.1992118340268907
-0.8501970707893587,0.00542253572158469,2.175999140084599,1,sub-A001,305,1,34.0,,1,0,0.75,2,1,0.329672377,0,1st,2nd,4th,-1.225899965916828,-0.31498483246452785,1.1992118340268907
-0.01919444043320921,0.031587741568982364,2.383651932257642,1,sub-A001,306,1,34.0,,1,0,0.3,1,1,0.850313257,1,3rd,2nd,4th,0.24418424435324815,-0.31498483246452785,1.1992118340268907
2.095251665101817,2.3864443052847077,2.387660297274102,1,sub-A001,307,1,34.0,,1,0,1.0,1,1,0.528056342,1,4th,4th,4th,1.2890500085970444,1.2556651273199475,1.1992118340268907
-0.03446121123732212,1.0541861913454766,2.4628052657702058,1,sub-A001,308,1,34.0,,1,0,1.0,1,1,0.546442565,1,2nd,4th,4th,-0.28982143037750996,1.2556651273199475,1.1992118340268907
-0.34753842925377587,0.18314578242207027,2.595367426085115,1,sub-A001,309,1,34.0,,1,0,0.3,2,2,0.590769062,1,2nd,3rd,4th,-0.28982143037750996,0.3677994436618236,1.1992118340268907
1.3613971398891642,-0.5551399908919012,2.2331812484069307,1,sub-A001,310,1,34.0,,1,0,0.3,2,2,0.94572286,1,4th,2nd,4th,1.2890500085970444,-0.31498483246452785,1.1992118340268907
0.10858940328203168,0.11711968711405947,2.1829553090873106,1,sub-A001,312,1,34.0,,1,0,0.1,2,1,0.970527884,0,3rd,3rd,4th,0.24418424435324815,0.3677994436618236,1.1992118340268907
-0.26990446941363017,0.8039727637701592,1.8380477547799863,1,sub-A001,313,1,34.0,,1,0,0.3,2,2,0.522113685,1,2nd,4th,4th,-0.28982143037750996,1.2556651273199475,1.1992118340268907
-1.7406419706279173,0.6480960733902896,1.0365963492369175,1,sub-A001,314,1,34.0,,1,0,0.1,1,1,1.686966288,1,1st,3rd,4th,-1.225899965916828,0.3677994436618236,1.1992118340268907
-0.31252347626566906,1.545769545520684,0.7603670281407501,1,sub-A001,315,1,34.0,,1,0,0.5,1,1,0.550329367,1,2nd,4th,4th,-0.28982143037750996,1.2556651273199475,1.1992118340268907
0.9890641052659723,0.5511264938257264,0.7379142745814227,1,sub-A001,316,1,34.0,,1,0,0.75,1,1,0.491017041,1,4th,3rd,4th,1.2890500085970444,0.3677994436618236,1.1992118340268907
-0.2884541261778332,-0.7157798079623555,0.9026700574941137,1,sub-A001,317,1,34.0,,1,0,0.1,1,1,1.004168576,1,2nd,2nd,4th,-0.28982143037750996,-0.31498483246452785,1.1992118340268907
-0.837717402683831,-0.009333776639683246,1.3187770973868047,1,sub-A001,319,1,34.0,,1,0,0.1,1,1,1.50362081,1,1st,2nd,4th,-1.225899965916828,-0.31498483246452785,1.1992118340268907
-0.802350515689295,-0.41493657274708,0.6539860478245992,1,sub-A001,320,1,34.0,,1,0,0.1,2,2,1.785903018,1,1st,2nd,4th,-1.225899965916828,-0.31498483246452785,1.1992118340268907
-0.1568433005590778,0.0578746342601418,0.9172840416334604,1,sub-A001,321,1,34.0,,1,0,0.5,2,1,0.084931942,0,2nd,2nd,4th,-0.28982143037750996,-0.31498483246452785,1.1992118340268907
0.24932033050001776,1.4660061680144332,1.0219073830890308,1,sub-A001,322,1,34.0,,1,0,0.75,2,2,0.584505554,1,3rd,4th,4th,0.24418424435324815,1.2556651273199475,1.1992118340268907
-1.5871013555992803,-0.17988197953707472,-0.5555540074173093,2,sub-A002,1,1,31.0,,2,0,0.3,1,2,1.509317478,0,1st,2nd,2nd,-1.250181996230561,-0.3734395307073103,-0.4116309678219528
-0.4274495595102717,-0.7771046848226004,-0.8037969026943073,2,sub-A002,2,1,31.0,,2,0,0.5,2,2,1.757813978,1,2nd,1st,1st,-0.34202218924982464,-1.1872077416271885,-1.2001010343225638
0.36801781604528305,-0.8110347083404378,-0.623325895241449,2,sub-A002,3,1,31.0,,2,0,0.75,2,2,0.819121368,1,3rd,1st,2nd,0.3168129472431428,-1.1872077416271885,-0.4116309678219528
0.718622098504952,-0.5487904901612362,-0.24882041429543894,2,sub-A002,4,1,31.0,,2,0,0.3,2,2,0.950353081,1,4th,2nd,2nd,1.2925170190075241,-0.3734395307073103,-0.4116309678219528
-0.9803052373312022,-1.3589237941002745,0.023507748819278418,2,sub-A002,5,1,31.0,,2,0,0.5,1,1,0.703369341,1,1st,1st,3rd,-1.250181996230561,-1.1872077416271885,0.27159351467769416
0.08883702617602811,-0.13567073097809285,0.015540120561564152,2,sub-A002,6,1,31.0,,2,0,0.5,2,2,0.555613737,1,3rd,2nd,3rd,0.3168129472431428,-0.3734395307073103,0.27159351467769416
2.0421565552091336,-0.15122799737714582,0.08908340960016393,2,sub-A002,7,1,31.0,,2,0,0.75,2,2,0.585036697,1,4th,2nd,3rd,1.2925170190075241,-0.3734395307073103,0.27159351467769416
-0.0961087988267108,-0.7200057728685473,0.1994367239237803,2,sub-A002,8,1,31.0,,2,0,0.3,1,1,1.029456152,1,2nd,1st,3rd,-0.34202218924982464,-1.1872077416271885,0.27159351467769416
0.9074731405914304,-0.2715349867596045,-0.015649149241939466,2,sub-A002,9,1,31.0,,2,0,0.5,1,1,0.766912404,1,4th,2nd,3rd,1.2925170190075241,-0.3734395307073103,0.27159351467769416
-0.4760648038034632,0.5989794187965273,-0.24792983820357806,2,sub-A002,10,1,31.0,,2,0,0.1,1,1,1.452739976,1,2nd,3rd,2nd,-0.34202218924982464,0.23229104500040312,-0.4116309678219528
1.0453296803982037,-0.3484232234954764,-0.5815064536148428,2,sub-A002,11,1,31.0,,2,0,0.1,1,2,1.175112634,0,4th,2nd,2nd,1.2925170190075241,-0.3734395307073103,-0.4116309678219528
0.5667981263822002,-0.7917632836080765,-0.41544307489878585,2,sub-A002,12,1,31.0,,2,0,0.5,2,2,0.68489805,1,3rd,1st,2nd,0.3168129472431428,-1.1872077416271885,-0.4116309678219528
-0.2179670155192055,-1.0654969128532121,-0.43384819308197964,2,sub-A002,13,1,31.0,,2,0,0.1,1,1,1.413343339,1,2nd,1st,2nd,-0.34202218924982464,-1.1872077416271885,-0.4116309678219528
-1.829069910003732,-0.6693733006023082,-0.46448439586364515,2,sub-A002,14,1,31.0,,2,0,0.3,1,1,0.654335834,1,1st,1st,2nd,-1.250181996230561,-1.1872077416271885,-0.4116309678219528
1.8365135536180976,1.3801298046015718,-0.5828110055667101,2,sub-A002,15,1,31.0,,2,0,1.0,1,1,0.777598559,1,4th,4th,2nd,1.2925170190075241,1.344619347082414,-0.4116309678219528
-1.0276488278074287,-1.966430903675578,-0.6401133598621475,2,sub-A002,16,1,31.0,,2,0,0.1,2,2,1.340169483,1,1st,1st,2nd,-1.250181996230561,-1.1872077416271885,-0.4116309678219528
1.5079668342519503,-1.5600277689136517,-0.6207760769355292,2,sub-A002,17,1,31.0,,2,0,0.3,2,2,1.541062745,1,4th,1st,2nd,1.2925170190075241,-1.1872077416271885,-0.4116309678219528
0.3422602344498265,1.8660846922507468,-0.5130675825302388,2,sub-A002,18,1,31.0,,2,0,0.5,1,1,0.503051349,1,3rd,4th,2nd,0.3168129472431428,1.344619347082414,-0.4116309678219528
-0.22209805553260126,1.5469819240457827,-0.6048247181764314,2,sub-A002,19,1,31.0,,2,0,0.1,1,1,1.375042396,1,2nd,4th,2nd,-0.34202218924982464,1.344619347082414,-0.4116309678219528
-1.5242377088035224,1.1272062759398316,-0.4922176871338993,2,sub-A002,20,1,31.0,,2,0,0.75,2,2,0.533431052,1,1st,4th,2nd,-1.250181996230561,1.344619347082414,-0.4116309678219528
0.6734856796456937,0.7762033830467145,-0.47827724907582964,2,sub-A002,21,1,31.0,,2,0,0.75,1,1,0.545407292,1,4th,4th,2nd,1.2925170190075241,1.344619347082414,-0.4116309678219528
0.5401365416418438,-0.042327168355911916,-0.7044128106351009,2,sub-A002,22,1,31.0,,2,0,0.75,1,1,0.616856423,1,3rd,3rd,2nd,0.3168129472431428,0.23229104500040312,-0.4116309678219528
0.577771929469566,-1.5675312774933476,-0.7583677596652875,2,sub-A002,23,1,31.0,,2,0,0.75,1,1,0.612494408,1,3rd,1st,1st,0.3168129472431428,-1.1872077416271885,-1.2001010343225638
0.7469021512940299,-1.231917629274064,-0.9694461573408475,2,sub-A002,24,1,31.0,,2,0,0.1,2,2,1.336326002,1,4th,1st,1st,1.2925170190075241,-1.1872077416271885,-1.2001010343225638
-0.14589614025017955,-1.6145894783661277,-1.0925977327528644,2,sub-A002,25,1,31.0,,2,0,1.0,2,2,0.591386273,1,2nd,1st,1st,-0.34202218924982464,-1.1872077416271885,-1.2001010343225638
0.0997087462371152,-1.918267498051765,-1.0670845237811042,2,sub-A002,26,1,31.0,,2,0,0.3,1,1,0.750954692,1,3rd,1st,1st,0.3168129472431428,-1.1872077416271885,-1.2001010343225638
1.6562146830016915,1.4554843109842823,-1.1712716082019845,2,sub-A002,27,1,31.0,,2,0,0.3,2,2,0.684758376,1,4th,4th,1st,1.2925170190075241,1.344619347082414,-1.2001010343225638
1.2276881260230095,-0.34961549091951566,-1.1039307618450669,2,sub-A002,28,1,31.0,,2,0,0.75,1,1,0.490446354,1,4th,2nd,1st,1.2925170190075241,-0.3734395307073103,-1.2001010343225638
-0.23441322409546625,0.7147706767536418,-1.2253792525848621,2,sub-A002,29,1,31.0,,2,0,0.75,2,2,0.500251628,1,2nd,4th,1st,-0.34202218924982464,1.344619347082414,-1.2001010343225638
-1.092561912971313,-0.1559473616896122,-1.1019403246033892,2,sub-A002,30,1,31.0,,2,0,0.3,2,2,0.767307328,1,1st,2nd,1st,-1.250181996230561,-0.3734395307073103,-1.2001010343225638
-1.7321234428473669,0.5053543652320955,-1.1216699787889437,2,sub-A002,31,1,31.0,,2,0,0.5,2,2,0.585362454,1,1st,3rd,1st,-1.250181996230561,0.23229104500040312,-1.2001010343225638
-1.4436999478800683,-0.8040837618926047,-1.1894022950301952,2,sub-A002,32,1,31.0,,2,0,0.5,1,1,0.655041789,1,1st,1st,1st,-1.250181996230561,-1.1872077416271885,-1.2001010343225638
0.5162561193721231,-1.2927097818045974,-1.2153912166052205,2,sub-A002,33,1,31.0,,2,0,1.0,2,2,0.487809511,1,3rd,1st,1st,0.3168129472431428,-1.1872077416271885,-1.2001010343225638
-0.7721835576640734,0.29707424831059775,-1.187014722475194,2,sub-A002,34,1,31.0,,2,0,0.1,2,1,1.523169719,0,1st,3rd,1st,-1.250181996230561,0.23229104500040312,-1.2001010343225638
0.4139231280134456,-1.6872325507027175,-1.1654378482012921,2,sub-A002,35,1,31.0,,2,0,1.0,1,1,0.707273958,1,3rd,1st,1st,0.3168129472431428,-1.1872077416271885,-1.2001010343225638
-0.3681973728689742,-0.5257303803206506,-0.9670301308570992,2,sub-A002,36,1,31.0,,2,0,0.75,2,2,0.544330511,1,2nd,2nd,1st,-0.34202218924982464,-0.3734395307073103,-1.2001010343225638
-0.06710164829496554,-0.08067164343758004,-0.9776656405945982,2,sub-A002,37,1,31.0,,2,0,0.3,1,1,0.826042134,1,2nd,2nd,1st,-0.34202218924982464,-0.3734395307073103,-1.2001010343225638
0.2702493188984172,0.06179042520310432,-0.8971298131800527,2,sub-A002,38,1,31.0,,2,0,0.1,1,1,1.785184671,1,3rd,3rd,1st,0.3168129472431428,0.23229104500040312,-1.2001010343225638
0.1690978270646125,-0.8852833996100364,-0.8560890388026308,2,sub-A002,39,1,31.0,,2,0,0.1,1,1,2.109653749,1,3rd,1st,1st,0.3168129472431428,-1.1872077416271885,-1.2001010343225638
1.4748529211580086,-0.534350512788083,-0.819205623568825,2,sub-A002,40,1,31.0,,2,0,0.5,2,2,0.560708927,1,4th,2nd,1st,1.2925170190075241,-0.3734395307073103,-1.2001010343225638
1.3228838028395153,0.7262043816599851,-0.830533787972309,2,sub-A002,41,1,31.0,,2,0,0.5,1,1,1.129525454,1,4th,4th,1st,1.2925170190075241,1.344619347082414,-1.2001010343225638
1.21776526343385,-0.11232519078872212,-0.9347290317762654,2,sub-A002,42,1,31.0,,2,0,1.0,1,1,0.65553444,1,4th,2nd,1st,1.2925170190075241,-0.3734395307073103,-1.2001010343225638
-0.7015503383582664,1.0429011517349605,-1.1108136931621488,2,sub-A002,43,1,31.0,,2,0,0.3,1,1,1.738964719,1,2nd,4th,1st,-0.34202218924982464,1.344619347082414,-1.2001010343225638
0.8429465327917293,-1.249444920889306,-1.187020601854104,2,sub-A002,44,1,31.0,,2,0,0.3,2,2,1.151312768,1,4th,1st,1st,1.2925170190075241,-1.1872077416271885,-1.2001010343225638
-0.8885700478852904,-0.4042126963923295,-0.899786088491284,2,sub-A002,45,1,31.0,,2,0,0.75,1,1,0.64338595,1,1st,2nd,1st,-1.250181996230561,-0.3734395307073103,-1.2001010343225638
2.563328908242014,-0.04524882183379135,-0.9395859178647713,2,sub-A002,47,1,31.0,,2,0,0.75,1,1,0.628970552,1,4th,3rd,1st,1.2925170190075241,0.23229104500040312,-1.2001010343225638
1.101721284794788,0.3415794722874752,-0.8041417483829364,2,sub-A002,48,1,31.0,,2,0,1.0,1,1,0.590450058,1,4th,3rd,1st,1.2925170190075241,0.23229104500040312,-1.2001010343225638
-0.5099119611141065,1.1442465478024646,-0.8681467360424332,2,sub-A002,49,1,31.0,,2,0,0.75,1,1,0.504621228,1,2nd,4th,1st,-0.34202218924982464,1.344619347082414,-1.2001010343225638
0.1323706346412221,0.16112675076741137,-0.8119373516388406,2,sub-A002,50,1,31.0,,2,0,0.1,1,1,2.089525222,1,3rd,3rd,1st,0.3168129472431428,0.23229104500040312,-1.2001010343225638
0.20826152240785117,-0.3719700177248907,-0.7175534045937524,2,sub-A002,51,1,31.0,,2,0,0.3,2,2,0.796277352,1,3rd,2nd,2nd,0.3168129472431428,-0.3734395307073103,-0.4116309678219528
1.6089730859539377,1.1044871774051446,-0.6820822999145632,2,sub-A002,52,1,31.0,,2,0,1.0,2,2,0.592480012,1,4th,4th,2nd,1.2925170190075241,1.344619347082414,-0.4116309678219528
0.45517557134875947,-0.03707533579139175,-0.9090021378334974,2,sub-A002,53,1,31.0,,2,0,0.5,1,1,0.55014772,1,3rd,3rd,1st,0.3168129472431428,0.23229104500040312,-1.2001010343225638
0.7768853731847867,-0.23439880501913538,-0.6923273172750302,2,sub-A002,54,1,31.0,,2,0,0.3,1,1,0.660870155,1,4th,2nd,2nd,1.2925170190075241,-0.3734395307073103,-0.4116309678219528
0.7279504345906925,-2.1547131643811905,-0.5579911448923343,2,sub-A002,56,1,31.0,,2,0,0.5,2,2,0.611769265,1,4th,1st,2nd,1.2925170190075241,-1.1872077416271885,-0.4116309678219528
0.6858866905767905,-0.1599140556564201,-0.5083203600363108,2,sub-A002,57,1,31.0,,2,0,0.5,1,1,0.509276424,1,4th,2nd,2nd,1.2925170190075241,-0.3734395307073103,-0.4116309678219528
-0.7615852089152608,0.23088864132707343,-0.6566385528785493,2,sub-A002,58,1,31.0,,2,0,0.1,2,2,1.874968989,1,1st,3rd,2nd,-1.250181996230561,0.23229104500040312,-0.4116309678219528
-0.17652836799583163,1.7052736281329595,-0.7512348026003575,2,sub-A002,59,1,31.0,,2,0,0.75,2,2,0.705448382,1,2nd,4th,1st,-0.34202218924982464,1.344619347082414,-1.2001010343225638
-0.1154348335044789,-0.46454761394542116,-0.6572744633194407,2,sub-A002,60,1,31.0,,2,0,0.5,2,2,0.670241681,1,2nd,2nd,2nd,-0.34202218924982464,-0.3734395307073103,-0.4116309678219528
-1.340488708017222,0.1577200271183632,-0.9276446898375459,2,sub-A002,61,1,31.0,,2,0,0.1,1,1,0.901220508,1,1st,3rd,1st,-1.250181996230561,0.23229104500040312,-1.2001010343225638
-0.26064697134589976,0.0629835332723517,-0.7651408076567329,2,sub-A002,62,1,31.0,,2,0,0.1,2,1,1.200657306,0,2nd,3rd,1st,-0.34202218924982464,0.23229104500040312,-1.2001010343225638
0.6898882874726678,-1.4618963103905926,-0.4137415225705582,2,sub-A002,63,1,31.0,,2,0,0.75,2,2,0.623692849,1,4th,1st,2nd,1.2925170190075241,-1.1872077416271885,-0.4116309678219528
-0.21935891287972528,-0.1671861621101434,-0.196044765997163,2,sub-A002,64,1,31.0,,2,0,0.75,1,1,0.55924213,1,2nd,2nd,2nd,-0.34202218924982464,-0.3734395307073103,-0.4116309678219528
-0.8214220501615769,-0.04868491440692002,-0.362167342569463,2,sub-A002,65,1,31.0,,2,0,0.5,2,2,0.734016789,1,1st,3rd,2nd,-1.250181996230561,0.23229104500040312,-0.4116309678219528
1.241677988088873,1.944680798100344,-0.3082969169555063,2,sub-A002,66,1,31.0,,2,0,0.75,2,2,0.533471214,1,4th,4th,2nd,1.2925170190075241,1.344619347082414,-0.4116309678219528
-0.7356476648461522,0.05707343973771583,-0.41043901693540213,2,sub-A002,67,1,31.0,,2,0,0.5,1,1,0.451858031,1,1st,3rd,2nd,-1.250181996230561,0.23229104500040312,-0.4116309678219528
1.2417361965323086,0.6090748523036374,-0.39800585221755835,2,sub-A002,68,1,31.0,,2,0,1.0,2,2,0.509807452,1,4th,3rd,2nd,1.2925170190075241,0.23229104500040312,-0.4116309678219528
0.08336929627128578,-0.83839097576091,-0.1765109817292777,2,sub-A002,69,1,31.0,,2,0,0.3,2,2,0.636647251,1,3rd,1st,2nd,0.3168129472431428,-1.1872077416271885,-0.4116309678219528
0.16878831896665575,-0.08022699578067531,-0.0531769294872181,2,sub-A002,70,1,31.0,,2,0,0.1,2,1,1.793845334,0,3rd,2nd,2nd,0.3168129472431428,-0.3734395307073103,-0.4116309678219528
-0.9262146519573071,0.7134386297061629,-0.03851646730503361,2,sub-A002,71,1,31.0,,2,0,0.1,2,1,2.091280737,0,1st,4th,2nd,-1.250181996230561,1.344619347082414,-0.4116309678219528
-1.6620648210220799,0.31712356498062055,-0.04367288250132165,2,sub-A002,74,1,31.0,,2,0,0.3,2,2,0.570094981,1,1st,3rd,2nd,-1.250181996230561,0.23229104500040312,-0.4116309678219528
0.9308163879478655,1.8266535669781057,0.08344323784403893,2,sub-A002,75,1,31.0,,2,0,0.75,1,1,0.40790722,1,4th,4th,3rd,1.2925170190075241,1.344619347082414,0.27159351467769416
-0.16027218905477272,-0.3018315896562519,-0.016662738849706427,2,sub-A002,76,1,31.0,,2,0,0.1,2,2,1.71726933,1,2nd,2nd,3rd,-0.34202218924982464,-0.3734395307073103,0.27159351467769416
0.1587363474700589,-0.49132103253107284,0.4751173811215217,2,sub-A002,77,1,31.0,,2,0,1.0,1,1,0.462147031,1,3rd,2nd,3rd,0.3168129472431428,-0.3734395307073103,0.27159351467769416
0.8672248963945324,2.1383543646949974,0.4227189379427942,2,sub-A002,78,1,31.0,,2,0,0.75,2,2,0.435526916,1,4th,4th,3rd,1.2925170190075241,1.344619347082414,0.27159351467769416
0.8840762671311849,0.920026903431095,0.5737150818368371,2,sub-A002,79,1,31.0,,2,0,0.75,2,2,0.400186789,1,4th,4th,4th,1.2925170190075241,1.344619347082414,1.356578227663022
1.1032184841288337,-0.6676256752303615,0.40247937412602636,2,sub-A002,80,1,31.0,,2,0,0.1,1,1,1.970766417,1,4th,1st,3rd,1.2925170190075241,-1.1872077416271885,0.27159351467769416
-0.6744139877954575,-1.4522001386421814,0.45112352752922236,2,sub-A002,81,1,31.0,,2,0,0.3,1,1,1.590003816,1,2nd,1st,3rd,-0.34202218924982464,-1.1872077416271885,0.27159351467769416
2.015469611278625,0.07581190435114606,0.4052611648450793,2,sub-A002,82,1,31.0,,2,0,1.0,2,2,0.441568586,1,4th,3rd,3rd,1.2925170190075241,0.23229104500040312,0.27159351467769416
0.3497890658473973,1.1843547680750974,0.35685543668476705,2,sub-A002,83,1,31.0,,2,0,0.5,2,2,0.556923457,1,3rd,4th,3rd,0.3168129472431428,1.344619347082414,0.27159351467769416
-0.13300163894321593,-0.0048099239311966075,0.568266134561137,2,sub-A002,84,1,31.0,,2,0,0.75,1,1,0.405201209,1,2nd,3rd,3rd,-0.34202218924982464,0.23229104500040312,0.27159351467769416
-0.6941143635149981,-1.299520201885641,0.608470214969677,2,sub-A002,85,1,31.0,,2,0,0.5,1,1,0.459557043,1,2nd,1st,4th,-0.34202218924982464,-1.1872077416271885,1.356578227663022
-1.7264522089654635,-1.5084594427800473,0.4377887449620534,2,sub-A002,86,1,31.0,,2,0,0.3,2,2,0.716997569,1,1st,1st,3rd,-1.250181996230561,-1.1872077416271885,0.27159351467769416
-0.3144595099183911,-0.14766124707538933,0.5171823799877714,2,sub-A002,88,1,31.0,,2,0,0.5,2,2,0.450124382,1,2nd,2nd,3rd,-0.34202218924982464,-0.3734395307073103,0.27159351467769416
-0.16753660229177147,-0.05692651506876484,0.41932023952423625,2,sub-A002,89,1,31.0,,2,0,0.1,1,1,0.68829172,1,2nd,3rd,3rd,-0.34202218924982464,0.23229104500040312,0.27159351467769416
-0.06921168446033689,0.18011596017175682,0.25093098798785507,2,sub-A002,90,1,31.0,,2,0,0.3,1,1,0.633652522,1,2nd,3rd,3rd,-0.34202218924982464,0.23229104500040312,0.27159351467769416
-1.2114553702814725,0.5739444321437377,0.21450235329001638,2,sub-A002,91,1,31.0,,2,0,0.75,1,1,0.595066771,1,1st,3rd,3rd,-1.250181996230561,0.23229104500040312,0.27159351467769416
0.10367474405019768,-0.24850288203039508,0.09461100603198878,2,sub-A002,92,1,31.0,,2,0,0.75,2,2,0.496110949,1,3rd,2nd,3rd,0.3168129472431428,-0.3734395307073103,0.27159351467769416
-0.6788186594013743,-0.6628949845651702,0.043731456466919144,2,sub-A002,93,1,31.0,,2,0,1.0,2,2,0.450037985,1,2nd,1st,3rd,-0.34202218924982464,-1.1872077416271885,0.27159351467769416
-0.01984306808709331,1.9679306835966683,0.30079550861045634,2,sub-A002,94,1,31.0,,2,0,0.5,1,1,0.416899887,1,2nd,4th,3rd,-0.34202218924982464,1.344619347082414,0.27159351467769416
-1.7484030579025096,-2.730071045524189,0.06213827031683102,2,sub-A002,95,1,31.0,,2,0,0.5,2,2,0.433423056,1,1st,1st,3rd,-1.250181996230561,-1.1872077416271885,0.27159351467769416
1.4791326970524383,-0.4886110070128271,0.2876139086943344,2,sub-A002,96,1,31.0,,2,0,0.3,1,1,0.552077716,1,4th,2nd,3rd,1.2925170190075241,-0.3734395307073103,0.27159351467769416
0.7164968189396382,0.36898371908605065,0.07972231256250431,2,sub-A002,97,1,31.0,,2,0,0.5,1,1,0.495348321,1,4th,3rd,3rd,1.2925170190075241,0.23229104500040312,0.27159351467769416
0.4647604696644344,-0.4873164849365543,0.10522347926406021,2,sub-A002,98,1,31.0,,2,0,0.1,1,1,1.173806931,1,3rd,2nd,3rd,0.3168129472431428,-0.3734395307073103,0.27159351467769416
0.6125411546625277,0.9711616343800991,0.26391698658542523,2,sub-A002,99,1,31.0,,2,0,0.5,1,1,0.528638414,1,3rd,4th,3rd,0.3168129472431428,1.344619347082414,0.27159351467769416
0.16698321041822034,-1.2215274110044694,0.24082267253236464,2,sub-A002,100,1,31.0,,2,0,0.3,2,2,0.533593038,1,3rd,1st,3rd,0.3168129472431428,-1.1872077416271885,0.27159351467769416
1.4839456555681168,-0.06525982654560487,0.4407359272113928,2,sub-A002,101,1,31.0,,2,0,0.3,2,2,0.553498104,1,4th,3rd,3rd,1.2925170190075241,0.23229104500040312,0.27159351467769416
-1.142846342641981,0.01125670191972001,0.5979938990886591,2,sub-A002,102,1,31.0,,2,0,0.75,2,2,0.496089975,1,1st,3rd,4th,-1.250181996230561,0.23229104500040312,1.356578227663022
-0.5227160327828954,0.6852618120752324,0.5164510522110389,2,sub-A002,103,1,31.0,,2,0,0.1,1,1,1.474504362,1,2nd,4th,3rd,-0.34202218924982464,1.344619347082414,0.27159351467769416
-0.7484766589257216,-0.1748505927638394,0.7794388006634634,2,sub-A002,104,1,31.0,,2,0,0.1,2,1,1.72920067,0,1st,2nd,4th,-1.250181996230561,-0.3734395307073103,1.356578227663022
1.3858412802031428,-0.19683961776435388,0.4339760450791028,2,sub-A002,105,1,31.0,,2,0,0.5,2,2,0.516962494,1,4th,2nd,3rd,1.2925170190075241,-0.3734395307073103,0.27159351467769416
1.3934429355506701,-1.0887346179370525,0.5566744202173133,2,sub-A002,106,1,31.0,,2,0,0.1,2,2,1.568860874,1,4th,1st,3rd,1.2925170190075241,-1.1872077416271885,0.27159351467769416
-2.229171729042227,-2.448096155452505,0.7568881771827242,2,sub-A002,107,1,31.0,,2,0,0.1,2,1,1.469107959,0,1st,1st,4th,-1.250181996230561,-1.1872077416271885,1.356578227663022
0.39066865091319875,1.6509807898836995,0.9568794541110212,2,sub-A002,110,1,31.0,,2,0,0.3,1,1,0.6559963,1,3rd,4th,4th,0.3168129472431428,1.344619347082414,1.356578227663022
0.7936267615626404,0.2887644167698637,0.811873320206073,2,sub-A002,111,1,31.0,,2,0,0.75,2,2,0.457558326,1,4th,3rd,4th,1.2925170190075241,0.23229104500040312,1.356578227663022
-0.9649178950114479,1.3498950562004792,0.467563977700548,2,sub-A002,112,1,31.0,,2,0,0.5,2,2,0.54179541,1,1st,4th,3rd,-1.250181996230561,1.344619347082414,0.27159351467769416
0.2634904217663719,-0.8326934760335941,-0.10965024931300552,2,sub-A002,113,1,31.0,,2,0,0.3,1,1,0.406477907,1,3rd,1st,2nd,0.3168129472431428,-1.1872077416271885,-0.4116309678219528
0.31409665973398565,-0.35845490211227926,-0.13543788375114496,2,sub-A002,114,1,31.0,,2,0,0.1,2,1,1.228490752,0,3rd,2nd,2nd,0.3168129472431428,-0.3734395307073103,-0.4116309678219528
0.45209620973036185,-0.5951360608879119,0.14107240674984442,2,sub-A002,115,1,31.0,,2,0,1.0,2,2,0.494770884,1,3rd,2nd,3rd,0.3168129472431428,-0.3734395307073103,0.27159351467769416
0.5170079316945917,-0.544965679666647,0.015117135378525192,2,sub-A002,116,1,31.0,,2,0,0.1,2,1,1.601147369,0,3rd,2nd,3rd,0.3168129472431428,-0.3734395307073103,0.27159351467769416
-1.5521723045454798,-0.1530068205236525,0.3461997360771591,2,sub-A002,117,1,31.0,,2,0,1.0,1,1,0.546280141,1,1st,2nd,3rd,-1.250181996230561,-0.3734395307073103,0.27159351467769416
-0.790113999821512,-0.40166607799369314,0.17257579789688038,2,sub-A002,118,1,31.0,,2,0,0.1,1,2,1.586852902,0,1st,2nd,3rd,-1.250181996230561,-0.3734395307073103,0.27159351467769416
-0.3037875670209284,-1.100971782915633,-0.0786635024757634,2,sub-A002,119,1,31.0,,2,0,0.5,1,1,0.533531456,1,2nd,1st,2nd,-0.34202218924982464,-1.1872077416271885,-0.4116309678219528
0.22831895718606326,0.6868430478256876,-0.10609329195512722,2,sub-A002,120,1,31.0,,2,0,0.75,1,1,0.573935984,1,3rd,4th,2nd,0.3168129472431428,1.344619347082414,-0.4116309678219528
-0.3588538336788984,0.07231850481531797,-0.11647137153449248,2,sub-A002,123,1,31.0,,2,0,0.75,1,1,0.466815614,1,2nd,3rd,2nd,-0.34202218924982464,0.23229104500040312,-0.4116309678219528
0.012800616500509426,0.2529611942663548,-0.07576099924890844,2,sub-A002,124,1,31.0,,2,0,0.1,2,2,0.762649009,1,2nd,3rd,2nd,-0.34202218924982464,0.23229104500040312,-0.4116309678219528
0.3931667198474259,-0.1496060887074708,0.017013307352749786,2,sub-A002,125,1,31.0,,2,0,0.5,2,2,0.539910931,1,3rd,2nd,3rd,0.3168129472431428,-0.3734395307073103,0.27159351467769416
-1.3387713237698629,-0.9244273405813238,0.17965379179416407,2,sub-A002,126,1,31.0,,2,0,0.3,2,2,1.109366475,1,1st,1st,3rd,-1.250181996230561,-1.1872077416271885,0.27159351467769416
0.060438670889747165,1.3118797876196582,-0.060443369318625775,2,sub-A002,127,1,31.0,,2,0,0.75,2,2,0.450802393,1,3rd,4th,2nd,0.3168129472431428,1.344619347082414,-0.4116309678219528
0.03886226251522376,0.6076713682995346,-0.205087447090134,2,sub-A002,128,1,31.0,,2,0,0.3,2,2,0.625471123,1,3rd,3rd,2nd,0.3168129472431428,0.23229104500040312,-0.4116309678219528
-0.15213284125708282,-0.11637143527986796,-0.2793903131922848,2,sub-A002,129,1,31.0,,2,0,0.1,1,1,2.14125046,1,2nd,2nd,2nd,-0.34202218924982464,-0.3734395307073103,-0.4116309678219528
0.0036964696986167716,-0.5021811983011235,-0.18650817612422663,2,sub-A002,130,1,31.0,,2,0,0.5,2,2,0.543170282,1,2nd,2nd,2nd,-0.34202218924982464,-0.3734395307073103,-0.4116309678219528
1.940763973437261,0.9605997679849455,-0.45516539750644686,2,sub-A002,131,1,31.0,,2,0,0.5,2,2,0.545531348,1,4th,4th,2nd,1.2925170190075241,1.344619347082414,-0.4116309678219528
0.23333326876298446,0.7811278826760376,-0.2439740512002693,2,sub-A002,132,1,31.0,,2,0,0.75,1,1,0.492211687,1,3rd,4th,2nd,0.3168129472431428,1.344619347082414,-0.4116309678219528
2.5764287366141283,-0.2842715128778921,-0.41378303604282013,2,sub-A002,133,1,31.0,,2,0,0.1,1,1,1.225064061,1,4th,2nd,2nd,1.2925170190075241,-0.3734395307073103,-0.4116309678219528
1.543787924277217,0.7905531430915722,-0.33484281223834,2,sub-A002,134,1,31.0,,2,0,0.3,2,2,0.601849754,1,4th,4th,2nd,1.2925170190075241,1.344619347082414,-0.4116309678219528
1.6970491930092682,-0.8623032807382198,-0.09494839588825746,2,sub-A002,135,1,31.0,,2,0,0.5,1,1,0.477800751,1,4th,1st,2nd,1.2925170190075241,-1.1872077416271885,-0.4116309678219528
-0.9052936200876707,0.778558620514986,0.48148439145165245,2,sub-A002,136,1,31.0,,2,0,0.3,1,1,0.873836427,1,1st,4th,3rd,-1.250181996230561,1.344619347082414,0.27159351467769416
0.5913044905929323,-0.2422235663887,0.28750188357428746,2,sub-A002,137,1,31.0,,2,0,1.0,2,2,0.455146834,1,3rd,2nd,3rd,0.3168129472431428,-0.3734395307073103,0.27159351467769416
0.4796410054181649,0.28299086548031316,0.45617557217349186,2,sub-A002,139,1,31.0,,2,0,0.5,1,1,0.47091033,1,3rd,3rd,3rd,0.3168129472431428,0.23229104500040312,0.27159351467769416
0.025720313429094786,0.0657903224198755,0.16545287633809982,2,sub-A002,140,1,31.0,,2,0,0.1,2,2,0.725756405,1,3rd,3rd,3rd,0.3168129472431428,0.23229104500040312,0.27159351467769416
-0.4785328489330852,0.06035159832812234,0.34508364763369714,2,sub-A002,141,1,31.0,,2,0,0.3,1,1,0.566882684,1,2nd,3rd,3rd,-0.34202218924982464,0.23229104500040312,0.27159351467769416
0.449236756212404,1.9444653067499653,0.4809895286840754,2,sub-A002,142,1,31.0,,2,0,0.75,2,2,0.511113602,1,3rd,4th,3rd,0.3168129472431428,1.344619347082414,0.27159351467769416
1.195534465200485,-1.7809251912475812,0.7095856115128252,2,sub-A002,143,1,31.0,,2,0,0.75,2,2,0.600929603,1,4th,1st,4th,1.2925170190075241,-1.1872077416271885,1.356578227663022
-0.9806576422202775,1.6672929199075317,0.7901981774851392,2,sub-A002,145,1,31.0,,2,0,0.75,2,2,0.426772543,1,1st,4th,4th,-1.250181996230561,1.344619347082414,1.356578227663022
-0.7881882190103398,0.1576024441056318,0.8478125504143408,2,sub-A002,146,1,31.0,,2,0,0.3,2,2,0.883551113,1,1st,3rd,4th,-1.250181996230561,0.23229104500040312,1.356578227663022
0.3390128767465912,-1.0268453630444074,0.8070877654923709,2,sub-A002,147,1,31.0,,2,0,0.1,2,1,1.157696259,0,3rd,1st,4th,0.3168129472431428,-1.1872077416271885,1.356578227663022
0.4719822934271897,-1.2607936669714215,0.9550066488818113,2,sub-A002,148,1,31.0,,2,0,0.1,2,1,1.06858532,0,3rd,1st,4th,0.3168129472431428,-1.1872077416271885,1.356578227663022
-1.294201556106193,1.2429303180524305,0.7876653529359089,2,sub-A002,149,1,31.0,,2,0,0.1,1,1,1.978688995,1,1st,4th,4th,-1.250181996230561,1.344619347082414,1.356578227663022
-0.7876264686996016,0.32353310908530497,0.8154703808051698,2,sub-A002,151,1,31.0,,2,0,0.5,2,2,0.383456287,1,1st,3rd,4th,-1.250181996230561,0.23229104500040312,1.356578227663022
-0.915307582266446,0.1386290459856268,0.6384342874100356,2,sub-A002,152,1,31.0,,2,0,0.5,1,1,0.383584805,1,1st,3rd,4th,-1.250181996230561,0.23229104500040312,1.356578227663022
-0.739987492357792,0.0803998776061866,0.7603419758689073,2,sub-A002,153,1,31.0,,2,0,0.5,2,2,0.358637205,1,1st,3rd,4th,-1.250181996230561,0.23229104500040312,1.356578227663022
0.7639077368120017,1.0862071863793827,0.6889489238383887,2,sub-A002,154,1,31.0,,2,0,0.5,1,1,0.495741907,1,4th,4th,4th,1.2925170190075241,1.344619347082414,1.356578227663022
0.043556853437935,-0.6333658102562534,0.6891522031612424,2,sub-A002,155,1,31.0,,2,0,0.5,1,1,0.542778035,1,3rd,1st,4th,0.3168129472431428,-1.1872077416271885,1.356578227663022
0.14465626306288223,1.8698200902901116,0.7037311037646912,2,sub-A002,156,1,31.0,,2,0,0.5,1,1,0.47276982,1,3rd,4th,4th,0.3168129472431428,1.344619347082414,1.356578227663022
1.6027592375794961,-0.5666295001740863,0.5787357403370263,2,sub-A002,157,1,31.0,,2,0,1.0,1,1,0.48901838,1,4th,2nd,4th,1.2925170190075241,-0.3734395307073103,1.356578227663022
-0.3050290652279172,1.1268013353544606,0.5066516676040907,2,sub-A002,158,1,31.0,,2,0,0.75,1,1,0.568344573,1,2nd,4th,3rd,-0.34202218924982464,1.344619347082414,0.27159351467769416
-0.17474641694364687,-0.19440278405268757,0.3681696019382129,2,sub-A002,159,1,31.0,,2,0,0.3,2,2,0.656407289,1,2nd,2nd,3rd,-0.34202218924982464,-0.3734395307073103,0.27159351467769416
1.7867585616196746,-1.1640133812922058,0.39813711183337563,2,sub-A002,160,1,31.0,,2,0,0.5,2,2,0.556733804,1,4th,1st,3rd,1.2925170190075241,-1.1872077416271885,0.27159351467769416
0.8023973220042819,-0.7603051594387262,0.3403465196762345,2,sub-A002,161,1,31.0,,2,0,0.1,2,1,1.28394925,0,4th,1st,3rd,1.2925170190075241,-1.1872077416271885,0.27159351467769416
-0.574712014543799,-0.3741523863434443,0.13772883034081546,2,sub-A002,162,1,31.0,,2,0,0.1,1,1,0.817037865,1,2nd,2nd,3rd,-0.34202218924982464,-0.3734395307073103,0.27159351467769416
-1.0417115314810672,-1.12305403010391,0.05004938579445277,2,sub-A002,163,1,31.0,,2,0,0.3,2,2,0.638326906,1,1st,1st,3rd,-1.250181996230561,-1.1872077416271885,0.27159351467769416
2.4607339501136725,1.3239445130141596,-0.09164875203346501,2,sub-A002,164,1,31.0,,2,0,1.0,2,2,0.550227151,1,4th,4th,2nd,1.2925170190075241,1.344619347082414,-0.4116309678219528
-0.39797587876319646,-0.18220663182862382,-0.39783124205930875,2,sub-A002,165,1,31.0,,2,0,0.5,2,2,0.712088908,1,2nd,2nd,2nd,-0.34202218924982464,-0.3734395307073103,-0.4116309678219528
0.24886626359479672,0.5133432133918636,-0.03691212304370502,2,sub-A002,168,1,31.0,,2,0,0.75,1,1,0.445942202,1,3rd,3rd,2nd,0.3168129472431428,0.23229104500040312,-0.4116309678219528
-1.4623694503040345,0.43612208115356527,0.06472689039729267,2,sub-A002,169,1,31.0,,2,0,0.3,2,2,0.509308001,1,1st,3rd,3rd,-1.250181996230561,0.23229104500040312,0.27159351467769416
-0.10114834909776675,0.3225080942855507,0.14914611933329106,2,sub-A002,170,1,31.0,,2,0,0.3,1,1,0.618883253,1,2nd,3rd,3rd,-0.34202218924982464,0.23229104500040312,0.27159351467769416
0.583611992008917,1.4123165714196342,0.3929475715484935,2,sub-A002,171,1,31.0,,2,0,0.75,1,1,0.483811183,1,3rd,4th,3rd,0.3168129472431428,1.344619347082414,0.27159351467769416
-0.545261512943921,1.0315658202040385,0.42747433523528233,2,sub-A002,172,1,31.0,,2,0,0.75,2,2,0.394260696,1,2nd,4th,3rd,-0.34202218924982464,1.344619347082414,0.27159351467769416
0.1469519373771486,-0.8354967237396026,0.3469441235385942,2,sub-A002,173,1,31.0,,2,0,1.0,2,2,0.415110457,1,3rd,1st,3rd,0.3168129472431428,-1.1872077416271885,0.27159351467769416
-1.665110723450536,-0.07285364300181656,0.3219173692856018,2,sub-A002,174,1,31.0,,2,0,0.75,2,2,0.361901018,1,1st,3rd,3rd,-1.250181996230561,0.23229104500040312,0.27159351467769416
1.188315733041036,0.030643518621450618,0.009107142208315308,2,sub-A002,175,1,31.0,,2,0,0.3,1,1,0.521821623,1,4th,3rd,3rd,1.2925170190075241,0.23229104500040312,0.27159351467769416
-1.6923802063890914,-0.3665189164739033,0.1263506730529785,2,sub-A002,176,1,31.0,,2,0,0.1,1,1,0.756244099,1,1st,2nd,3rd,-1.250181996230561,-0.3734395307073103,0.27159351467769416
-0.5735181835050235,0.6849817877905785,0.07901770751398957,2,sub-A002,177,1,31.0,,2,0,0.75,2,2,0.40908039,1,2nd,4th,3rd,-0.34202218924982464,1.344619347082414,0.27159351467769416
-1.5026874380001858,0.7302130788223389,0.04807751237355626,2,sub-A002,178,1,31.0,,2,0,0.1,1,1,1.983972946,1,1st,4th,3rd,-1.250181996230561,1.344619347082414,0.27159351467769416
-0.4174728448078232,1.19277953549046,-0.15548058410178936,2,sub-A002,179,1,31.0,,2,0,0.3,1,1,0.538623523,1,2nd,4th,2nd,-0.34202218924982464,1.344619347082414,-0.4116309678219528
0.5775764301918593,-0.011026727764328295,-0.48642305708597067,2,sub-A002,182,1,31.0,,2,0,0.1,2,1,0.9248807,0,3rd,3rd,2nd,0.3168129472431428,0.23229104500040312,-0.4116309678219528
-0.3463830853876889,-0.020371465100563414,-0.4229333736727969,2,sub-A002,183,1,31.0,,2,0,0.3,2,2,0.594262749,1,2nd,3rd,2nd,-0.34202218924982464,0.23229104500040312,-0.4116309678219528
-1.3302697280389313,0.3090964048626432,-0.5658903801044008,2,sub-A002,184,1,31.0,,2,0,0.75,1,1,0.38680087,1,1st,3rd,2nd,-1.250181996230561,0.23229104500040312,-0.4116309678219528
-0.8344431686690177,-0.5901767862703778,-0.6835175658163374,2,sub-A002,185,1,31.0,,2,0,0.5,2,2,0.407793428,1,1st,2nd,2nd,-1.250181996230561,-0.3734395307073103,-0.4116309678219528
0.2523653329376089,-1.0027283855522577,-0.6484225534904401,2,sub-A002,186,1,31.0,,2,0,1.0,1,1,0.404237773,1,3rd,1st,2nd,0.3168129472431428,-1.1872077416271885,-0.4116309678219528
0.12744918850076828,-0.36081184770006924,-0.7628954222091936,2,sub-A002,187,1,31.0,,2,0,0.75,1,1,0.373627809,1,3rd,2nd,1st,0.3168129472431428,-0.3734395307073103,-1.2001010343225638
1.3111624149126468,1.344072063346745,-0.4480462283679614,2,sub-A002,188,1,31.0,,2,0,0.5,1,1,0.489735748,1,4th,4th,2nd,1.2925170190075241,1.344619347082414,-0.4116309678219528
-0.16834391207329974,2.939232690295596,-0.5580653201702155,2,sub-A002,189,1,31.0,,2,0,0.3,1,1,0.578214891,1,2nd,4th,2nd,-0.34202218924982464,1.344619347082414,-0.4116309678219528
0.6543766427512844,0.07895854668164856,-0.49892053540023684,2,sub-A002,190,1,31.0,,2,0,0.75,2,2,0.391893829,1,3rd,3rd,2nd,0.3168129472431428,0.23229104500040312,-0.4116309678219528
-0.5747268923702615,0.6218213230758769,-0.3453761247549454,2,sub-A002,191,1,31.0,,2,0,1.0,2,2,0.345035305,1,2nd,3rd,2nd,-0.34202218924982464,0.23229104500040312,-0.4116309678219528
1.3550250018312084,-0.6934027146115403,-0.38155873228868536,2,sub-A002,192,1,31.0,,2,0,0.1,1,1,1.310470299,1,4th,1st,2nd,1.2925170190075241,-1.1872077416271885,-0.4116309678219528
0.05399034412414327,1.0032177345264996,-0.6599986256313983,2,sub-A002,193,1,31.0,,2,0,0.5,1,1,0.389565339,1,3rd,4th,2nd,0.3168129472431428,1.344619347082414,-0.4116309678219528
-0.6437346462781538,-1.706199592561215,-1.2273828708123333,2,sub-A002,194,1,31.0,,2,0,0.3,1,1,1.033899383,1,2nd,1st,1st,-0.34202218924982464,-1.1872077416271885,-1.2001010343225638
1.3098620752468793,1.5785086234008354,-1.11842455876295,2,sub-A002,196,1,31.0,,2,0,0.75,2,2,0.369582626,1,4th,4th,1st,1.2925170190075241,1.344619347082414,-1.2001010343225638
0.2521174907268358,0.8984431767373166,-1.2029291445293113,2,sub-A002,197,1,31.0,,2,0,0.5,1,1,0.486463645,1,3rd,4th,1st,0.3168129472431428,1.344619347082414,-1.2001010343225638
-0.6750899548627686,0.31477274537120936,-0.6776634731982999,2,sub-A002,198,1,31.0,,2,0,0.1,2,1,1.374630068,0,2nd,3rd,2nd,-0.34202218924982464,0.23229104500040312,-0.4116309678219528
-1.0553561329055774,0.5915137739054555,-0.978399727124466,2,sub-A002,199,1,31.0,,2,0,0.3,1,1,0.4719291,1,1st,3rd,1st,-1.250181996230561,0.23229104500040312,-1.2001010343225638
0.6601618005385574,-0.7976125645106333,-1.3080745952867374,2,sub-A002,200,1,31.0,,2,0,0.3,2,2,0.435787075,1,4th,1st,1st,1.2925170190075241,-1.1872077416271885,-1.2001010343225638
0.35312764845189387,0.8548396610056197,-1.3506140594721374,2,sub-A002,201,1,31.0,,2,0,0.1,2,2,0.563042671,1,3rd,4th,1st,0.3168129472431428,1.344619347082414,-1.2001010343225638
0.12083059321197083,0.06482204222863618,-1.6991644191421165,2,sub-A002,202,1,31.0,,2,0,0.75,1,1,0.444055045,1,3rd,3rd,1st,0.3168129472431428,0.23229104500040312,-1.2001010343225638
-2.540270681769505,2.3799635242978145,-1.807922091243129,2,sub-A002,203,1,31.0,,2,0,0.5,2,2,0.386096254,1,1st,4th,1st,-1.250181996230561,1.344619347082414,-1.2001010343225638
-0.6572669397624051,-0.7741160480190934,-1.5658811285003906,2,sub-A002,204,1,31.0,,2,0,0.3,2,2,0.75476793,1,2nd,1st,1st,-0.34202218924982464,-1.1872077416271885,-1.2001010343225638
-0.7098935962931165,0.7595937003913354,-1.7915824559584332,2,sub-A002,205,1,31.0,,2,0,0.3,1,1,0.733488885,1,1st,4th,1st,-1.250181996230561,1.344619347082414,-1.2001010343225638
-0.17991889763437502,-1.222831139934378,-1.5134730372628378,2,sub-A002,206,1,31.0,,2,0,0.75,2,2,0.51691073,1,2nd,1st,1st,-0.34202218924982464,-1.1872077416271885,-1.2001010343225638
-1.3337901355516106,0.09620930179554667,-1.5220856590318204,2,sub-A002,207,1,31.0,,2,0,0.1,1,1,1.378439635,1,1st,3rd,1st,-1.250181996230561,0.23229104500040312,-1.2001010343225638
1.9278990611229236,0.6290377434918359,-1.509830033501539,2,sub-A002,208,1,31.0,,2,0,0.5,2,2,0.453057976,1,4th,3rd,1st,1.2925170190075241,0.23229104500040312,-1.2001010343225638
0.7132920583197302,1.9067994648701594,-1.455189680989919,2,sub-A002,209,1,31.0,,2,0,0.75,2,2,0.483551024,1,4th,4th,1st,1.2925170190075241,1.344619347082414,-1.2001010343225638
0.12101952206233733,0.10963129359377127,-1.460213390945785,2,sub-A002,210,1,31.0,,2,0,0.1,1,1,0.684625396,1,3rd,3rd,1st,0.3168129472431428,0.23229104500040312,-1.2001010343225638
2.3357388965258936,0.6558754669643938,-1.5479090696848727,2,sub-A002,211,1,31.0,,2,0,1.0,1,1,0.516684039,1,4th,4th,1st,1.2925170190075241,1.344619347082414,-1.2001010343225638
1.2790614822125934,-1.080867815364046,-1.70408134073862,2,sub-A002,212,1,31.0,,2,0,0.5,1,1,0.450076634,1,4th,1st,1st,1.2925170190075241,-1.1872077416271885,-1.2001010343225638
-0.6152165160480366,-0.4091949143639222,-1.7894630944060592,2,sub-A002,213,1,31.0,,2,0,0.3,2,2,0.512890091,1,2nd,2nd,1st,-0.34202218924982464,-0.3734395307073103,-1.2001010343225638
0.03473633897784448,0.28788656853973954,-1.5746077083492738,2,sub-A002,214,1,31.0,,2,0,0.75,1,1,0.474110671,1,3rd,3rd,1st,0.3168129472431428,0.23229104500040312,-1.2001010343225638
1.873915053163682,0.13664063389126832,-1.801082326302554,2,sub-A002,218,1,31.0,,2,0,0.75,2,2,0.317862297,1,4th,3rd,1st,1.2925170190075241,0.23229104500040312,-1.2001010343225638
-0.7723536078095564,1.6767801197774448,-1.9712605862971764,2,sub-A002,219,1,31.0,,2,0,1.0,1,1,0.310410503,1,1st,4th,1st,-1.250181996230561,1.344619347082414,-1.2001010343225638
-0.585078076927393,1.663257608275609,-1.8175556463026121,2,sub-A002,220,1,31.0,,2,0,0.5,1,1,0.40569743,1,2nd,4th,1st,-0.34202218924982464,1.344619347082414,-1.2001010343225638
-0.5942813038383827,0.5962863134988543,-1.5551997450551547,2,sub-A002,221,1,31.0,,2,0,0.5,2,2,0.316634239,1,2nd,3rd,1st,-0.34202218924982464,0.23229104500040312,-1.2001010343225638
2.03819284524861,-0.7431314217347487,-1.2542941133166412,2,sub-A002,222,1,31.0,,2,0,0.3,2,2,0.433413068,1,4th,1st,1st,1.2925170190075241,-1.1872077416271885,-1.2001010343225638
1.4283656605417208,2.0436837631244495,-1.2048155684125479,2,sub-A002,223,1,31.0,,2,0,0.75,2,2,0.403977614,1,4th,4th,1st,1.2925170190075241,1.344619347082414,-1.2001010343225638
-0.32191894689037137,0.4747491203415803,-0.9480165236721626,2,sub-A002,224,1,31.0,,2,0,0.1,2,2,0.983638711,1,2nd,3rd,1st,-0.34202218924982464,0.23229104500040312,-1.2001010343225638
-1.5317816393818582,-1.5830668581525165,-1.4843920613127053,2,sub-A002,225,1,31.0,,2,0,0.3,2,1,1.43588391,0,1st,1st,1st,-1.250181996230561,-1.1872077416271885,-1.2001010343225638
-2.623883830251808,0.7923308215297102,-1.5326029573792848,2,sub-A002,226,1,31.0,,2,0,0.5,1,1,0.400914609,1,1st,4th,1st,-1.250181996230561,1.344619347082414,-1.2001010343225638
-0.8674134430791755,-0.9831642016546425,-1.3142215354335687,2,sub-A002,227,1,31.0,,2,0,0.75,1,1,0.479771355,1,1st,1st,1st,-1.250181996230561,-1.1872077416271885,-1.2001010343225638
-0.23205940783395707,-0.3733699245153423,-1.1559411059575282,2,sub-A002,228,1,31.0,,2,0,0.1,1,2,0.667911852,0,2nd,2nd,1st,-0.34202218924982464,-0.3734395307073103,-1.2001010343225638
0.9462863119162392,1.6469014427517246,-1.1691004011714892,2,sub-A002,229,1,31.0,,2,0,0.75,2,2,0.434428715,1,4th,4th,1st,1.2925170190075241,1.344619347082414,-1.2001010343225638
0.6795015301106317,-0.6733927830638223,-1.4376420127321032,2,sub-A002,230,1,31.0,,2,0,0.1,1,1,0.905205002,1,4th,1st,1st,1.2925170190075241,-1.1872077416271885,-1.2001010343225638
1.8359702584115387,2.6264597301030213,-1.3910520364134604,2,sub-A002,231,1,31.0,,2,0,0.5,1,1,0.395420925,1,4th,4th,1st,1.2925170190075241,1.344619347082414,-1.2001010343225638
0.9735161479911127,-0.20565916647831656,-1.3058879929817995,2,sub-A002,232,1,31.0,,2,0,0.1,2,2,0.788814849,1,4th,2nd,1st,1.2925170190075241,-0.3734395307073103,-1.2001010343225638
0.15936590516940696,-0.9872761640320867,-1.2309696588992505,2,sub-A002,233,1,31.0,,2,0,0.1,2,1,1.106066963,0,3rd,1st,1st,0.3168129472431428,-1.1872077416271885,-1.2001010343225638
-0.7128332643900127,-0.5594428600617777,-1.1788335329575401,2,sub-A002,234,1,31.0,,2,0,0.75,1,1,0.451256051,1,1st,2nd,1st,-1.250181996230561,-0.3734395307073103,-1.2001010343225638
2.191859891773327,-1.1600203299680607,-1.1476529854968727,2,sub-A002,235,1,31.0,,2,0,0.3,1,1,0.488527514,1,4th,1st,1st,1.2925170190075241,-1.1872077416271885,-1.2001010343225638
-0.6729089551547379,0.6756845021934326,-0.9957041542245483,2,sub-A002,236,1,31.0,,2,0,0.5,2,2,0.393883175,1,2nd,4th,1st,-0.34202218924982464,1.344619347082414,-1.2001010343225638
-1.2433741301323677,0.4302470443127161,-0.821351230597248,2,sub-A002,237,1,31.0,,2,0,0.3,2,1,0.757712681,0,1st,3rd,1st,-1.250181996230561,0.23229104500040312,-1.2001010343225638
-0.2048991061780324,-0.5849807135236532,-0.7572609328620178,2,sub-A002,239,1,31.0,,2,0,0.5,1,1,0.311476575,1,2nd,2nd,1st,-0.34202218924982464,-0.3734395307073103,-1.2001010343225638
-0.6002992682924876,-1.9105366731948143,-0.5704667550133625,2,sub-A002,240,1,31.0,,2,0,0.3,2,2,0.359402509,1,2nd,1st,2nd,-0.34202218924982464,-1.1872077416271885,-0.4116309678219528
-0.8549616464070223,1.6748467073429814,-0.5450764420676157,2,sub-A002,241,1,31.0,,2,0,1.0,2,2,0.410512826,1,1st,4th,2nd,-1.250181996230561,1.344619347082414,-0.4116309678219528
1.1903044031341283,0.5811011846359865,-0.5120619072086655,2,sub-A002,242,1,31.0,,2,0,0.1,1,1,0.977604181,1,4th,3rd,2nd,1.2925170190075241,0.23229104500040312,-0.4116309678219528
0.3856566842558945,-0.7561000643038602,-0.495641304785817,2,sub-A002,243,1,31.0,,2,0,1.0,2,2,0.461044367,1,3rd,1st,2nd,0.3168129472431428,-1.1872077416271885,-0.4116309678219528
-0.507804635929022,-0.4849235972945992,-0.5949295310071965,2,sub-A002,244,1,31.0,,2,0,0.75,1,1,0.368112259,1,2nd,2nd,2nd,-0.34202218924982464,-0.3734395307073103,-0.4116309678219528
1.3028775173310818,-1.0833956846916306,-0.500274901674376,2,sub-A002,245,1,31.0,,2,0,0.3,1,2,0.770678239,0,4th,1st,2nd,1.2925170190075241,-1.1872077416271885,-0.4116309678219528
-0.9646208526620945,1.9886605651639249,-0.7270109370664161,2,sub-A002,246,1,31.0,,2,0,0.75,1,1,0.421425672,1,1st,4th,2nd,-1.250181996230561,1.344619347082414,-0.4116309678219528
-2.2952165429771187,0.12736876439711797,-1.0129472174525247,2,sub-A002,247,1,31.0,,2,0,0.1,2,2,0.650297345,1,1st,3rd,1st,-1.250181996230561,0.23229104500040312,-1.2001010343225638
-0.9196588995415801,-0.5665547375266452,-0.6816270797192396,2,sub-A002,248,1,31.0,,2,0,0.3,1,1,0.383409432,1,1st,2nd,2nd,-1.250181996230561,-0.3734395307073103,-0.4116309678219528
0.28552053986058884,-1.8096962846751907,-0.3868898406486652,2,sub-A002,249,1,31.0,,2,0,0.75,2,2,0.00410515,1,3rd,1st,2nd,0.3168129472431428,-1.1872077416271885,-0.4116309678219528
-1.36085441332925,-0.004106786815820927,0.2786351652728547,2,sub-A002,250,1,31.0,,2,0,0.1,1,1,1.573984624,1,1st,3rd,3rd,-1.250181996230561,0.23229104500040312,0.27159351467769416
-2.2463105630546516,-0.4781410928945903,0.4450118071215828,2,sub-A002,251,1,31.0,,2,0,0.3,1,1,0.534912575,1,1st,2nd,3rd,-1.250181996230561,-0.3734395307073103,0.27159351467769416
0.0178168445746804,-0.5700704756438492,0.3528292600212492,2,sub-A002,253,1,31.0,,2,0,0.1,2,2,0.656608544,1,2nd,2nd,3rd,-0.34202218924982464,-0.3734395307073103,0.27159351467769416
0.5822065312394394,1.0177035449495648,0.15400100110718923,2,sub-A002,254,1,31.0,,2,0,0.3,1,1,0.419297544,1,3rd,4th,3rd,0.3168129472431428,1.344619347082414,0.27159351467769416
-0.38382784852752966,1.3546199786086568,0.25526554227067255,2,sub-A002,255,1,31.0,,2,0,1.0,2,2,0.450322513,1,2nd,4th,3rd,-0.34202218924982464,1.344619347082414,0.27159351467769416
-0.5261150073382461,-0.5507704421453086,0.19073070209401372,2,sub-A002,256,1,31.0,,2,0,0.5,1,1,0.483406888,1,2nd,2nd,3rd,-0.34202218924982464,-0.3734395307073103,0.27159351467769416
1.0812691376128802,-0.709998475198539,0.07287490566898792,2,sub-A002,257,1,31.0,,2,0,0.3,1,1,0.469474323,1,4th,1st,3rd,1.2925170190075241,-1.1872077416271885,0.27159351467769416
-1.5572731269341606,1.335965989895611,0.40305135681594717,2,sub-A002,258,1,31.0,,2,0,0.3,2,2,0.400094416,1,1st,4th,3rd,-1.250181996230561,1.344619347082414,0.27159351467769416
-0.8836747298662486,-1.5241892180716943,0.3643705430438954,2,sub-A002,259,1,31.0,,2,0,0.1,1,1,0.387813393,1,1st,1st,3rd,-1.250181996230561,-1.1872077416271885,0.27159351467769416
1.1795610703109445,-0.43338183309023803,0.33588516959927195,2,sub-A002,260,1,31.0,,2,0,1.0,1,1,0.550419187,1,4th,2nd,3rd,1.2925170190075241,-0.3734395307073103,0.27159351467769416
0.5668805280791092,-0.7485116941554328,0.39814384145404824,2,sub-A002,261,1,31.0,,2,0,0.5,1,1,0.45009136,1,3rd,1st,3rd,0.3168129472431428,-1.1872077416271885,0.27159351467769416
-1.1084309135100456,-0.2936679230653261,0.5261916015188189,2,sub-A002,262,1,31.0,,2,0,0.3,1,1,0.607323357,1,1st,2nd,3rd,-1.250181996230561,-0.3734395307073103,0.27159351467769416
-1.5385474132736126,-0.5632252090303211,0.5881611238002004,2,sub-A002,263,1,31.0,,2,0,0.1,1,1,0.761232191,1,1st,2nd,4th,-1.250181996230561,-0.3734395307073103,1.356578227663022
-0.24194180264273143,-0.6106686132121489,0.6099809577732912,2,sub-A002,264,1,31.0,,2,0,0.5,1,1,0.750182348,1,2nd,2nd,4th,-0.34202218924982464,-0.3734395307073103,1.356578227663022
-1.0050496825673843,0.14421414966000717,0.6598646587040097,2,sub-A002,265,1,31.0,,2,0,0.75,2,2,0.427676183,1,1st,3rd,4th,-1.250181996230561,0.23229104500040312,1.356578227663022
-0.10673526057410168,-0.7111110579527284,0.620022502876361,2,sub-A002,266,1,31.0,,2,0,0.5,2,2,0.454921036,1,2nd,1st,4th,-0.34202218924982464,-1.1872077416271885,1.356578227663022
-1.2815679965730817,0.039189839756697285,0.7943347660022853,2,sub-A002,268,1,31.0,,2,0,0.3,2,2,0.317822581,1,1st,3rd,4th,-1.250181996230561,0.23229104500040312,1.356578227663022
0.6192678798687352,1.1678466425152896,1.228794985006311,2,sub-A002,269,1,31.0,,2,0,1.0,2,2,0.545326969,1,3rd,4th,4th,0.3168129472431428,1.344619347082414,1.356578227663022
1.009944753621865,0.20177473680794691,1.4932016001037642,2,sub-A002,270,1,31.0,,2,0,0.5,2,2,0.450064585,1,4th,3rd,4th,1.2925170190075241,0.23229104500040312,1.356578227663022
-0.0139450253008842,-0.922401748940452,1.7442923413856575,2,sub-A002,271,1,31.0,,2,0,0.5,2,2,0.772655072,1,2nd,1st,4th,-0.34202218924982464,-1.1872077416271885,1.356578227663022
0.49458958318051516,-0.034262125545363044,1.875625631630017,2,sub-A002,272,1,31.0,,2,0,0.75,2,2,0.75657878,1,3rd,3rd,4th,0.3168129472431428,0.23229104500040312,1.356578227663022
0.35222636655488043,-0.3714310747161278,1.63728226498538,2,sub-A002,273,1,31.0,,2,0,0.75,1,1,0.457897916,1,3rd,2nd,4th,0.3168129472431428,-0.3734395307073103,1.356578227663022
1.164972571565586,-1.5165931792715013,1.4887709912313403,2,sub-A002,274,1,31.0,,2,0,0.5,1,1,0.496455448,1,4th,1st,4th,1.2925170190075241,-1.1872077416271885,1.356578227663022
-0.9517582156167133,-0.6087078529793176,1.216514933021497,2,sub-A002,275,1,31.0,,2,0,0.75,1,1,0.386015931,1,1st,2nd,4th,-1.250181996230561,-0.3734395307073103,1.356578227663022
0.42910539945527604,-1.2015773217696268,1.3448921980103925,2,sub-A002,276,1,31.0,,2,0,0.3,1,1,0.53360107,1,3rd,1st,4th,0.3168129472431428,-1.1872077416271885,1.356578227663022
-0.03997841685663914,1.1669738381564139,1.3762185786256649,2,sub-A002,277,1,31.0,,2,0,0.75,2,2,0.409401684,1,2nd,4th,4th,-0.34202218924982464,1.344619347082414,1.356578227663022
0.7935993168147194,-0.4377762612006536,1.1835807171136168,2,sub-A002,278,1,31.0,,2,0,0.3,2,1,1.786689845,0,4th,2nd,4th,1.2925170190075241,-0.3734395307073103,1.356578227663022
0.20156391395867354,0.2434182614077474,1.3981813249955666,2,sub-A002,279,1,31.0,,2,0,0.3,2,2,0.528203328,1,3rd,3rd,4th,0.3168129472431428,0.23229104500040312,1.356578227663022
1.4320857948867296,1.815816755941683,1.2759922264718941,2,sub-A002,280,1,31.0,,2,0,1.0,1,1,0.429174217,1,4th,4th,4th,1.2925170190075241,1.344619347082414,1.356578227663022
0.2756261115635145,0.04809254080199358,1.2313580150168473,2,sub-A002,281,1,31.0,,2,0,0.75,2,2,0.406441315,1,3rd,3rd,4th,0.3168129472431428,0.23229104500040312,1.356578227663022
-0.8126970817843278,-0.5187526271280152,1.4375499284731093,2,sub-A002,282,1,31.0,,2,0,0.1,1,1,1.683959157,1,1st,2nd,4th,-1.250181996230561,-0.3734395307073103,1.356578227663022
-0.4142394205106802,-0.42475268157288615,1.4993436930101043,2,sub-A002,285,1,31.0,,2,0,0.1,2,1,1.439922399,0,2nd,2nd,4th,-0.34202218924982464,-0.3734395307073103,1.356578227663022
-0.9812323037185907,-0.5627956929871631,1.7542073705549508,2,sub-A002,287,1,31.0,,2,0,0.75,1,1,0.403255148,1,1st,2nd,4th,-1.250181996230561,-0.3734395307073103,1.356578227663022
-0.26596052231343004,-0.45020809814615875,1.6317333427854066,2,sub-A002,289,1,31.0,,2,0,0.3,2,2,0.834900036,1,2nd,2nd,4th,-0.34202218924982464,-0.3734395307073103,1.356578227663022
-1.969824046021442,-1.6998122696605833,1.76849626242879,2,sub-A002,290,1,31.0,,2,0,0.1,2,2,2.067234546,1,1st,1st,4th,-1.250181996230561,-1.1872077416271885,1.356578227663022
-1.1440147043708395,-0.626675946746789,1.4372670072911802,2,sub-A002,293,1,31.0,,2,0,0.1,1,1,2.10332079,1,1st,2nd,4th,-1.250181996230561,-0.3734395307073103,1.356578227663022
0.48223870974177535,0.4056110600706359,1.389749525479216,2,sub-A002,294,1,31.0,,2,0,0.75,2,2,0.475440131,1,3rd,3rd,4th,0.3168129472431428,0.23229104500040312,1.356578227663022
-0.3765238669775898,-0.28191874368704073,1.6420331576517777,2,sub-A002,295,1,31.0,,2,0,0.3,1,1,0.550611812,1,2nd,2nd,4th,-0.34202218924982464,-0.3734395307073103,1.356578227663022
0.059676289350476606,0.4744308914151259,1.646561132119023,2,sub-A002,296,1,31.0,,2,0,0.75,2,2,0.510646386,1,3rd,3rd,4th,0.3168129472431428,0.23229104500040312,1.356578227663022
-0.36711554104536587,1.3279158640659894,1.8153588093341388,2,sub-A002,297,1,31.0,,2,0,0.3,2,2,0.717019881,1,2nd,4th,4th,-0.34202218924982464,1.344619347082414,1.356578227663022
0.5564178608669712,-0.5854478439683587,1.763662756026593,2,sub-A002,298,1,31.0,,2,0,0.5,1,1,0.433513919,1,3rd,2nd,4th,0.3168129472431428,-0.3734395307073103,1.356578227663022
1.0691874825485996,0.5878401901179917,1.677882341549471,2,sub-A002,299,1,31.0,,2,0,0.5,1,1,0.477135404,1,4th,3rd,4th,1.2925170190075241,0.23229104500040312,1.356578227663022
-0.8814252282989902,-0.9283508475184424,1.8916924916776952,2,sub-A002,300,1,31.0,,2,0,0.5,2,2,0.35001715,1,1st,1st,4th,-1.250181996230561,-1.1872077416271885,1.356578227663022
-0.40126921866933635,-0.006169944789431807,1.8774981164478333,2,sub-A002,301,1,31.0,,2,0,0.3,2,2,0.509675364,1,2nd,3rd,4th,-0.34202218924982464,0.23229104500040312,1.356578227663022
0.013454526403096644,0.4294966522050018,2.005959792860123,2,sub-A002,302,1,31.0,,2,0,0.3,1,1,0.734171189,1,2nd,3rd,4th,-0.34202218924982464,0.23229104500040312,1.356578227663022
0.6004629660785731,2.888056427896097,1.8079313524101226,2,sub-A002,303,1,31.0,,2,0,1.0,1,1,0.416752627,1,3rd,4th,4th,0.3168129472431428,1.344619347082414,1.356578227663022
-0.9430239797013723,1.8198484903599539,1.9294682481486138,2,sub-A002,304,1,31.0,,2,0,0.75,2,2,0.371381427,1,1st,4th,4th,-1.250181996230561,1.344619347082414,1.356578227663022
0.22306239836283878,0.06650152615203549,2.037892102011462,2,sub-A002,305,1,31.0,,2,0,0.3,1,1,0.439612707,1,3rd,3rd,4th,0.3168129472431428,0.23229104500040312,1.356578227663022
-1.3502577946404293,0.5112502930006702,2.120653964144607,2,sub-A002,306,1,31.0,,2,0,0.5,2,2,0.350086317,1,1st,3rd,4th,-1.250181996230561,0.23229104500040312,1.356578227663022
-0.5746608697712801,-1.5452132745982956,1.8525871220992063,2,sub-A002,307,1,31.0,,2,0,0.75,2,1,0.644938872,0,2nd,1st,4th,-0.34202218924982464,-1.1872077416271885,1.356578227663022
