mode,type,rt,acc,item_1,item_2,item_cue,subj_idx,item_1_number,item_2_number,item_cue_number,trial_type,summed_similarity,similarity_bin,ams,pams,slps,ams_quantile,pams_quantile,slps_quantile,ams_bin,pam_bin,slp_bin
mem,resp,923,0,mem2.3.1.bmp,mem3.1.1.bmp,mem2.2.1.bmp,ACC029,"[0, 3, -3]","[3, -3, -3]","[0, 0, -3]",non-match,1.3030765749413242,4,-0.12229287004793224,0.33873102205776,2.7943981222886682,2nd,4th,4th,-0.23381933107408562,0.8331729013036544,1.3302053819890678
mem,resp,1012,1,mem1.2.1.bmp,mem3.1.2.bmp,mem3.1.2.bmp,ACC029,"[-3, 0, -3]","[3, -3, 0]","[3, -3, 0]",match,1.2928932188134525,,0.10381091850771505,-0.24415674399501322,2.807524726936521,3rd,2nd,4th,0.24320953797405992,-0.16431875095944443,1.3302053819890678
mem,resp,1304,1,mem1.2.3.bmp,mem3.3.3.bmp,mem3.2.1.bmp,ACC029,"[-3, 0, 3]","[3, 3, 3]","[3, 0, -3]",non-match,0.5380061947043713,1,-0.1273806893360619,-0.5238036776456285,2.592104419009553,2nd,1st,4th,-0.23381933107408562,-0.7593502295129888,1.3302053819890678
mem,resp,1154,1,mem1.1.2.bmp,mem1.2.2.bmp,mem1.1.2.bmp,ACC029,"[-3, -3, 0]","[-3, 0, 0]","[-3, -3, 0]",match,1.7113248654051871,,-0.7815235008193259,0.08362353238482573,2.3552169027763665,1st,3rd,4th,-1.0662086281640646,0.09171899915754574,1.3302053819890678
mem,resp,838,1,mem3.2.2.bmp,mem1.3.2.bmp,mem1.3.2.bmp,ACC029,"[3, 0, 0]","[-3, 3, 0]","[-3, 3, 0]",match,1.3545027756320973,,-0.8744249471698609,0.8572851280569421,2.76720843586474,1st,4th,4th,-1.0662086281640646,0.8331729013036544,1.3302053819890678
mem,resp,824,1,mem2.1.2.bmp,mem1.1.3.bmp,mem3.1.1.bmp,ACC029,"[0, -3, 0]","[-3, -3, 3]","[3, -3, -3]",non-match,0.7752551286084112,2,1.0484170997255746,0.6324665328739987,2.508386287264775,4th,4th,4th,1.0600612151037445,0.8331729013036544,1.3302053819890678
mem,resp,963,1,mem2.2.3.bmp,mem2.3.3.bmp,mem3.1.3.bmp,ACC029,"[0, 0, 3]","[0, 3, 3]","[3, -3, 3]",non-match,0.9462544851682343,3,0.43916533696896587,0.40157097216289,2.314852979311538,3rd,4th,4th,0.24320953797405992,0.8331729013036544,1.3302053819890678
mem,resp,1133,1,mem3.2.1.bmp,mem3.3.1.bmp,mem3.3.3.bmp,ACC029,"[3, 0, -3]","[3, 3, -3]","[3, 3, 3]",non-match,0.7771525064424715,2,0.4221456160926722,0.7014708711802704,2.238038164027169,3rd,4th,4th,0.24320953797405992,0.8331729013036544,1.3302053819890678
mem,resp,748,0,mem2.1.1.bmp,mem1.2.1.bmp,mem2.2.2.bmp,ACC029,"[0, -3, -3]","[-3, 0, -3]","[0, 0, 0]",non-match,1.1835034190722742,4,-0.9622756211832837,-0.2924486203209576,2.0974807406936034,1st,2nd,4th,-1.0662086281640646,-0.16431875095944443,1.3302053819890678
mem,resp,815,1,mem2.3.2.bmp,mem1.3.3.bmp,mem1.3.3.bmp,ACC029,"[0, 3, 0]","[-3, 3, 3]","[-3, 3, 3]",match,1.591751709536137,,-0.46181302265649393,0.23435897132364172,2.0878294171715552,2nd,4th,4th,-0.23381933107408562,0.8331729013036544,1.3302053819890678
mem,resp,1029,1,mem1.3.2.bmp,mem3.1.3.bmp,mem3.1.3.bmp,ACC029,"[-3, 3, 0]","[3, -3, 3]","[3, -3, 3]",match,1.1339745962155614,,-0.13931951709236748,0.37117524695894943,1.8613293338033496,2nd,4th,4th,-0.23381933107408562,0.8331729013036544,1.3302053819890678
mem,resp,986,0,mem3.1.2.bmp,mem2.1.3.bmp,mem3.2.2.bmp,ACC029,"[3, -3, 0]","[0, -3, 3]","[3, 0, 0]",non-match,1.2113248654051871,4,0.5803357472298258,0.16898874544533576,1.7666365442812455,4th,3rd,4th,1.0600612151037445,0.09171899915754574,1.3302053819890678
mem,resp,984,1,mem1.1.1.bmp,mem2.1.2.bmp,mem1.1.1.bmp,ACC029,"[-3, -3, -3]","[0, -3, 0]","[-3, -3, -3]",match,1.591751709536137,,0.36391948377396954,-0.07753641164194482,1.8973169662919667,3rd,2nd,4th,0.24320953797405992,-0.16431875095944443,1.3302053819890678
mem,resp,657,1,mem3.3.1.bmp,mem2.3.1.bmp,mem2.3.1.bmp,ACC029,"[3, 3, -3]","[0, 3, -3]","[0, 3, -3]",match,1.7113248654051871,,-0.32489646237284137,-0.3740308740795481,1.6494295818967604,2nd,1st,4th,-0.23381933107408562,-0.7593502295129888,1.3302053819890678
mem,resp,682,1,mem3.1.3.bmp,mem1.2.3.bmp,mem3.1.3.bmp,ACC029,"[3, -3, 3]","[-3, 0, 3]","[3, -3, 3]",match,1.3545027756320973,,-0.003104570382508563,0.2783453415475198,1.8407339273579661,3rd,4th,4th,0.24320953797405992,0.8331729013036544,1.3302053819890678
mem,resp,1230,1,mem3.3.3.bmp,mem3.3.2.bmp,mem2.3.3.bmp,ACC029,"[3, 3, 3]","[3, 3, 0]","[0, 3, 3]",non-match,1.3030765749413242,4,-0.5468301401458396,-0.20337392866980677,1.9363972972441112,1st,2nd,4th,-1.0662086281640646,-0.16431875095944443,1.3302053819890678
mem,resp,1038,1,mem2.1.3.bmp,mem2.2.1.bmp,mem1.3.3.bmp,ACC029,"[0, -3, 3]","[0, 0, -3]","[-3, 3, 3]",non-match,0.6473959944455496,1,-0.16718889218391425,-0.2910962673340244,1.6742830005423253,2nd,2nd,4th,-0.23381933107408562,-0.16431875095944443,1.3302053819890678
mem,resp,753,0,mem3.2.3.bmp,mem1.1.2.bmp,mem3.1.2.bmp,ACC029,"[3, 0, 3]","[-3, -3, 0]","[3, -3, 0]",non-match,1.0144014403465114,3,-0.27849161887323937,0.07409650216127607,1.5462408743123421,2nd,3rd,4th,-0.23381933107408562,0.09171899915754574,1.3302053819890678
mem,resp,726,1,mem3.1.1.bmp,mem2.1.1.bmp,mem2.1.1.bmp,ACC029,"[3, -3, -3]","[0, -3, -3]","[0, -3, -3]",match,1.7113248654051871,,-0.22550091536608874,-0.05669999420563279,1.4902878830058999,2nd,2nd,4th,-0.23381933107408562,-0.16431875095944443,1.3302053819890678
mem,resp,1243,1,mem1.3.1.bmp,mem3.3.2.bmp,mem3.1.3.bmp,ACC029,"[-3, 3, -3]","[3, 3, 0]","[3, -3, 3]",non-match,0.3545027756320972,1,-0.1590501384628354,-0.21760758180659195,1.2885278567687741,2nd,2nd,4th,-0.23381933107408562,-0.16431875095944443,1.3302053819890678
mem,resp,698,0,mem2.2.1.bmp,mem2.3.1.bmp,mem3.2.1.bmp,ACC029,"[0, 0, -3]","[0, 3, -3]","[3, 0, -3]",non-match,1.3030765749413242,4,-0.5768659248272766,-0.757353625265371,1.3564558391196149,1st,1st,4th,-1.0662086281640646,-0.7593502295129888,1.3302053819890678
mem,resp,844,1,mem2.2.2.bmp,mem2.3.3.bmp,mem3.3.1.bmp,ACC029,"[0, 0, 0]","[0, 3, 3]","[3, 3, -3]",non-match,0.8545027756320972,2,0.25033382721481595,0.5436600769549101,1.3571063862936206,3rd,4th,4th,0.24320953797405992,0.8331729013036544,1.3302053819890678
mem,resp,1303,1,mem1.2.2.bmp,mem3.2.2.bmp,mem2.3.2.bmp,ACC029,"[-3, 0, 0]","[3, 0, 0]","[0, 3, 0]",non-match,1.1835034190722742,4,-1.5212685538232575,-0.43413550124777833,1.2451624563278767,1st,1st,4th,-1.0662086281640646,-0.7593502295129888,1.3302053819890678
mem,resp,931,0,mem1.3.3.bmp,mem2.1.3.bmp,mem1.1.2.bmp,ACC029,"[-3, 3, 3]","[0, -3, 3]","[-3, -3, 0]",non-match,0.9462544851682343,3,0.8490075344688439,0.45898639211368136,1.3151643358613965,4th,4th,4th,1.0600612151037445,0.8331729013036544,1.3302053819890678
mem,resp,935,1,mem3.3.2.bmp,mem3.1.2.bmp,mem1.1.1.bmp,ACC029,"[3, 3, 0]","[3, -3, 0]","[-3, -3, -3]",non-match,0.4884773718476586,1,1.6096763238458118,1.0600292042521378,1.3936054354462,4th,4th,4th,1.0600612151037445,0.8331729013036544,1.3302053819890678
mem,resp,770,1,mem1.1.3.bmp,mem2.2.3.bmp,mem1.1.3.bmp,ACC029,"[-3, -3, 3]","[0, 0, 3]","[-3, -3, 3]",match,1.591751709536137,,-0.9557959390359134,-0.6163863640538572,1.4085556949864593,1st,1st,4th,-1.0662086281640646,-0.7593502295129888,1.3302053819890678
mem,resp,733,1,mem2.3.3.bmp,mem1.3.2.bmp,mem3.2.2.bmp,ACC029,"[0, 3, 3]","[-3, 3, 0]","[3, 0, 0]",non-match,0.8545027756320972,2,-0.08964215113318202,-0.10292603851966275,1.3333292418422118,2nd,2nd,4th,-0.23381933107408562,-0.16431875095944443,1.3302053819890678
mem,resp,726,1,mem3.2.1.bmp,mem1.2.3.bmp,mem3.2.1.bmp,ACC029,"[3, 0, -3]","[-3, 0, 3]","[3, 0, -3]",match,1.1835034190722742,,-0.7052473541263428,-0.17283276424260008,1.577983657290992,1st,2nd,4th,-1.0662086281640646,-0.16431875095944443,1.3302053819890678
mem,resp,911,0,mem2.1.1.bmp,mem2.3.2.bmp,mem2.1.2.bmp,ACC029,"[0, -3, -3]","[0, 3, 0]","[0, -3, 0]",non-match,1.1339745962155614,4,-0.9202790803483669,-0.541473937852239,1.5922694641683894,1st,1st,4th,-1.0662086281640646,-0.7593502295129888,1.3302053819890678
mem,resp,979,1,mem3.3.3.bmp,mem1.1.3.bmp,mem3.3.3.bmp,ACC029,"[3, 3, 3]","[-3, -3, 3]","[3, 3, 3]",match,1.1835034190722742,,-1.2025053411955804,0.1922715101211316,1.750012624925133,1st,3rd,4th,-1.0662086281640646,0.09171899915754574,1.3302053819890678
mem,resp,937,0,mem1.3.3.bmp,mem3.3.1.bmp,mem3.2.2.bmp,ACC029,"[-3, 3, 3]","[3, 3, -3]","[3, 0, 0]",non-match,0.8846449283495895,2,-0.6376205317830204,-0.22556413480374823,1.7420601972082523,1st,2nd,4th,-1.0662086281640646,-0.16431875095944443,1.3302053819890678
mem,resp,780,1,mem3.1.1.bmp,mem2.2.2.bmp,mem1.2.1.bmp,ACC029,"[3, -3, -3]","[0, 0, 0]","[-3, 0, -3]",non-match,0.9462544851682343,3,-0.07452447049444175,0.42862118008645833,1.772113851107945,2nd,4th,4th,-0.23381933107408562,0.8331729013036544,1.3302053819890678
mem,resp,1217,0,mem1.3.1.bmp,mem1.2.2.bmp,mem1.2.2.bmp,ACC029,"[-3, 3, -3]","[-3, 0, 0]","[-3, 0, 0]",match,1.591751709536137,,-0.13172435656881679,-0.4868488648832105,1.7957142435002982,2nd,1st,4th,-0.23381933107408562,-0.7593502295129888,1.3302053819890678
mem,resp,762,1,mem2.3.2.bmp,mem3.3.3.bmp,mem2.3.2.bmp,ACC029,"[0, 3, 0]","[3, 3, 3]","[0, 3, 0]",match,1.591751709536137,,0.5787225243100087,0.17821313477327952,1.7238708640184144,4th,3rd,4th,1.0600612151037445,0.09171899915754574,1.3302053819890678
mem,resp,1682,0,mem3.3.1.bmp,mem3.1.3.bmp,mem3.1.3.bmp,ACC029,"[3, 3, -3]","[3, -3, 3]","[3, -3, 3]",match,1.1835034190722742,,0.07097543717748045,0.45158085796252057,1.8244892229569094,3rd,4th,4th,0.24320953797405992,0.8331729013036544,1.3302053819890678
mem,resp,748,1,mem2.2.2.bmp,mem2.1.2.bmp,mem2.1.2.bmp,ACC029,"[0, 0, 0]","[0, -3, 0]","[0, -3, 0]",match,1.7113248654051871,,0.3866952424698315,0.17371873757724787,1.8917557904822195,3rd,3rd,4th,0.24320953797405992,0.09171899915754574,1.3302053819890678
mem,resp,663,1,mem1.1.3.bmp,mem1.1.1.bmp,mem1.1.3.bmp,ACC029,"[-3, -3, 3]","[-3, -3, -3]","[-3, -3, 3]",match,1.4226497308103743,,0.07063809870524662,0.049354882441262564,1.697251050324996,3rd,3rd,4th,0.24320953797405992,0.09171899915754574,1.3302053819890678
mem,resp,1068,1,mem2.2.1.bmp,mem2.1.1.bmp,mem2.2.1.bmp,ACC029,"[0, 0, -3]","[0, -3, -3]","[0, 0, -3]",match,1.7113248654051871,,-0.9074928873763238,-0.15533276548634697,1.571731401508402,1st,2nd,4th,-1.0662086281640646,-0.16431875095944443,1.3302053819890678
mem,resp,813,1,mem2.1.3.bmp,mem1.1.1.bmp,mem2.1.3.bmp,ACC029,"[0, -3, 3]","[-3, -3, -3]","[0, -3, 3]",match,1.3545027756320973,,-0.06948843132228599,-0.02556268118296604,1.6039609588294341,2nd,3rd,4th,-0.23381933107408562,0.09171899915754574,1.3302053819890678
mem,resp,636,1,mem3.1.2.bmp,mem3.1.1.bmp,mem1.1.2.bmp,ACC029,"[3, -3, 0]","[3, -3, -3]","[-3, -3, 0]",non-match,0.7771525064424715,2,0.8631899886377756,0.9383751752149111,1.4127728953898202,4th,4th,4th,1.0600612151037445,0.8331729013036544,1.3302053819890678
mem,resp,710,1,mem2.2.2.bmp,mem3.3.2.bmp,mem1.2.1.bmp,ACC029,"[0, 0, 0]","[3, 3, 0]","[-3, 0, -3]",non-match,0.8846449283495895,2,0.09142425019055003,-0.5028042983964731,1.4380919043767693,3rd,1st,4th,0.24320953797405992,-0.7593502295129888,1.3302053819890678
mem,resp,883,1,mem3.3.3.bmp,mem1.1.3.bmp,mem3.3.1.bmp,ACC029,"[3, 3, 3]","[-3, -3, 3]","[3, 3, -3]",non-match,0.42264973081037427,1,-0.05675411223125586,-0.32497044279060183,0.9998286018260247,2nd,2nd,4th,-0.23381933107408562,-0.16431875095944443,1.3302053819890678
mem,resp,1038,1,mem2.1.2.bmp,mem2.3.3.bmp,mem2.3.3.bmp,ACC029,"[0, -3, 0]","[0, 3, 3]","[0, 3, 3]",match,1.3545027756320973,,-1.2311879697960246,0.5476126749892952,1.003420790639808,1st,4th,4th,-1.0662086281640646,0.8331729013036544,1.3302053819890678
mem,resp,714,0,mem2.2.3.bmp,mem2.2.1.bmp,mem3.1.2.bmp,ACC029,"[0, 0, 3]","[0, 0, -3]","[3, -3, 0]",non-match,1.0,3,-0.3696536399215388,-0.6552325699786389,1.102884963582922,2nd,1st,4th,-0.23381933107408562,-0.7593502295129888,1.3302053819890678
mem,resp,898,1,mem2.3.2.bmp,mem2.3.1.bmp,mem1.3.1.bmp,ACC029,"[0, 3, 0]","[0, 3, -3]","[-3, 3, -3]",non-match,1.3030765749413242,4,-0.4798919477530991,-0.5636181320530349,0.8744558321551562,2nd,1st,4th,-0.23381933107408562,-0.7593502295129888,1.3302053819890678
mem,resp,812,1,mem1.3.2.bmp,mem3.2.1.bmp,mem1.3.2.bmp,ACC029,"[-3, 3, 0]","[3, 0, -3]","[-3, 3, 0]",match,1.2928932188134525,,0.9298331113977921,-0.5179740695024178,1.174659313573757,4th,1st,4th,1.0600612151037445,-0.7593502295129888,1.3302053819890678
mem,resp,979,1,mem3.3.1.bmp,mem2.1.3.bmp,mem1.1.1.bmp,ACC029,"[3, 3, -3]","[0, -3, 3]","[-3, -3, -3]",non-match,0.5380061947043713,1,-1.4188244208926069,-1.8961408233890267,1.1433258850202497,1st,1st,4th,-1.0662086281640646,-0.7593502295129888,1.3302053819890678
mem,resp,753,1,mem1.3.3.bmp,mem1.2.2.bmp,mem1.2.2.bmp,ACC029,"[-3, 3, 3]","[-3, 0, 0]","[-3, 0, 0]",match,1.591751709536137,,-0.9178992058383431,0.14517404130785308,1.09992032491154,1st,3rd,4th,-1.0662086281640646,0.09171899915754574,1.3302053819890678
mem,resp,904,0,mem1.2.1.bmp,mem2.3.2.bmp,mem2.3.1.bmp,ACC029,"[-3, 0, -3]","[0, 3, 0]","[0, 3, -3]",non-match,1.3030765749413242,4,-2.2085751620961065,-1.0832623841027926,0.8681761549974448,1st,1st,4th,-1.0662086281640646,-0.7593502295129888,1.3302053819890678
mem,resp,960,1,mem1.1.3.bmp,mem1.1.2.bmp,mem1.1.3.bmp,ACC029,"[-3, -3, 3]","[-3, -3, 0]","[-3, -3, 3]",match,1.7113248654051871,,0.6422618375381033,0.3634738872135577,0.5563148959339808,4th,4th,4th,1.0600612151037445,0.8331729013036544,1.3302053819890678
mem,resp,837,1,mem3.3.2.bmp,mem3.2.2.bmp,mem3.2.2.bmp,ACC029,"[3, 3, 0]","[3, 0, 0]","[3, 0, 0]",match,1.7113248654051871,,-0.3249141545425013,-0.7365076421903259,0.4974762677416978,2nd,1st,4th,-0.23381933107408562,-0.7593502295129888,1.3302053819890678
mem,resp,963,1,mem2.1.1.bmp,mem3.1.3.bmp,mem3.1.3.bmp,ACC029,"[0, -3, -3]","[3, -3, 3]","[3, -3, 3]",match,1.3545027756320973,,-0.40347416823522464,0.6630043415436748,0.43401315653489986,2nd,4th,3rd,-0.23381933107408562,0.8331729013036544,0.251154532393922
mem,resp,877,1,mem1.3.1.bmp,mem1.3.2.bmp,mem1.3.1.bmp,ACC029,"[-3, 3, -3]","[-3, 3, 0]","[-3, 3, -3]",match,1.7113248654051871,,0.43304514987425397,-0.12895230795355275,0.40132250217942206,3rd,2nd,3rd,0.24320953797405992,-0.16431875095944443,0.251154532393922
mem,resp,783,0,mem1.1.1.bmp,mem3.2.3.bmp,mem2.1.3.bmp,ACC029,"[-3, -3, -3]","[3, 0, 3]","[0, -3, 3]",non-match,0.9462544851682343,3,-9.125048758313138,-6.4552376646178775,0.4028225798056459,1st,1st,3rd,-1.0662086281640646,-0.7593502295129888,0.251154532393922
mem,resp,896,0,mem2.3.1.bmp,mem1.3.3.bmp,mem2.3.1.bmp,ACC029,"[0, 3, -3]","[-3, 3, 3]","[0, 3, -3]",match,1.3545027756320973,,1.676623407587893,-0.07490577450181067,0.3268775374460239,4th,2nd,3rd,1.0600612151037445,-0.16431875095944443,0.251154532393922
mem,resp,630,1,mem3.2.1.bmp,mem2.1.1.bmp,mem3.2.1.bmp,ACC029,"[3, 0, -3]","[0, -3, -3]","[3, 0, -3]",match,1.591751709536137,,2.443040480105108,1.7085932793249492,0.0805231249282088,4th,4th,3rd,1.0600612151037445,0.8331729013036544,0.251154532393922
mem,resp,815,0,mem3.1.1.bmp,mem2.2.2.bmp,mem3.3.2.bmp,ACC029,"[3, -3, -3]","[0, 0, 0]","[3, 3, 0]",non-match,0.9462544851682343,3,-2.328781562000387,-1.4685293724426656,0.17999365579335733,1st,1st,3rd,-1.0662086281640646,-0.7593502295129888,0.251154532393922
mem,resp,769,1,mem3.1.3.bmp,mem2.1.2.bmp,mem3.3.1.bmp,ACC029,"[3, -3, 3]","[0, -3, 0]","[3, 3, -3]",non-match,0.4763966378857265,1,0.7183596772130194,1.0217984079331763,0.14287795010639373,4th,4th,3rd,1.0600612151037445,0.8331729013036544,0.251154532393922
mem,resp,794,1,mem2.3.3.bmp,mem3.3.3.bmp,mem2.3.3.bmp,ACC029,"[0, 3, 3]","[3, 3, 3]","[0, 3, 3]",match,1.7113248654051871,,-0.17253157073531533,-0.584911278467833,0.26172418991555807,2nd,1st,3rd,-0.23381933107408562,-0.7593502295129888,0.251154532393922
mem,resp,656,1,mem1.2.3.bmp,mem2.2.3.bmp,mem3.1.2.bmp,ACC029,"[-3, 0, 3]","[0, 0, 3]","[3, -3, 0]",non-match,0.7928932188134524,2,4.234867118730235,3.1239307907008143,0.22842927044683586,4th,4th,3rd,1.0600612151037445,0.8331729013036544,0.251154532393922
mem,resp,960,1,mem1.2.2.bmp,mem3.3.2.bmp,mem3.3.2.bmp,ACC029,"[-3, 0, 0]","[3, 3, 0]","[3, 3, 0]",match,1.3545027756320973,,0.9849772157751037,0.7959232334643724,-0.027070178356539076,4th,4th,3rd,1.0600612151037445,0.8331729013036544,0.251154532393922
mem,resp,723,1,mem2.2.1.bmp,mem1.3.3.bmp,mem2.2.1.bmp,ACC029,"[0, 0, -3]","[-3, 3, 3]","[0, 0, -3]",match,1.2928932188134525,,0.6641863902489993,-0.01710558408452041,0.26081811210218736,4th,3rd,3rd,1.0600612151037445,0.09171899915754574,0.251154532393922
mem,resp,846,1,mem3.2.2.bmp,mem2.3.3.bmp,mem1.1.1.bmp,ACC029,"[3, 0, 0]","[0, 3, 3]","[-3, -3, -3]",non-match,0.42686781502901383,1,0.09809153186731688,0.042119488656424404,0.44848655869663834,3rd,3rd,3rd,0.24320953797405992,0.09171899915754574,0.251154532393922
mem,resp,1194,0,mem3.2.3.bmp,mem1.3.1.bmp,mem2.1.1.bmp,ACC029,"[3, 0, 3]","[-3, 3, -3]","[0, -3, -3]",non-match,0.6473959944455496,1,0.7356958839382576,0.5186918571130156,0.22126188245296685,4th,4th,3rd,1.0600612151037445,0.8331729013036544,0.251154532393922
mem,resp,807,1,mem1.1.2.bmp,mem1.2.2.bmp,mem2.3.2.bmp,ACC029,"[-3, -3, 0]","[-3, 0, 0]","[0, 3, 0]",non-match,0.9462544851682343,3,0.7606224749972587,0.5307274025789526,0.449931139911222,4th,4th,3rd,1.0600612151037445,0.8331729013036544,0.251154532393922
mem,resp,723,1,mem1.3.2.bmp,mem2.1.3.bmp,mem3.1.1.bmp,ACC029,"[-3, 3, 0]","[0, -3, 3]","[3, -3, -3]",non-match,0.4884773718476586,1,0.453528656343383,-0.20391001958410862,0.25142371004089537,3rd,2nd,3rd,0.24320953797405992,-0.16431875095944443,0.251154532393922
mem,resp,1038,0,mem3.2.2.bmp,mem1.2.1.bmp,mem2.1.2.bmp,ACC029,"[3, 0, 0]","[-3, 0, -3]","[0, -3, 0]",non-match,1.091751709536137,4,0.4647992728843229,-0.7642206814169764,0.12300529592175495,3rd,1st,3rd,0.24320953797405992,-0.7593502295129888,0.251154532393922
mem,resp,1173,1,mem1.1.1.bmp,mem2.1.1.bmp,mem2.2.3.bmp,ACC029,"[-3, -3, -3]","[0, -3, -3]","[0, 0, 3]",non-match,0.6473959944455496,1,-0.6861024508173224,0.045396299396025255,0.3255056670810853,1st,3rd,3rd,-1.0662086281640646,0.09171899915754574,0.251154532393922
mem,resp,1664,0,mem2.2.1.bmp,mem2.3.2.bmp,mem2.2.1.bmp,ACC029,"[0, 0, -3]","[0, 3, 0]","[0, 0, -3]",match,1.591751709536137,,0.32713126240965823,0.21036807261810636,0.21231300077884857,3rd,3rd,3rd,0.24320953797405992,0.09171899915754574,0.251154532393922
mem,resp,859,1,mem2.3.3.bmp,mem1.1.2.bmp,mem1.1.2.bmp,ACC029,"[0, 3, 3]","[-3, -3, 0]","[-3, -3, 0]",match,1.2928932188134525,,-1.0742584260298293,-0.6016436217424842,0.2383172123688497,1st,1st,3rd,-1.0662086281640646,-0.7593502295129888,0.251154532393922
mem,resp,732,1,mem2.2.2.bmp,mem1.3.2.bmp,mem1.3.2.bmp,ACC029,"[0, 0, 0]","[-3, 3, 0]","[-3, 3, 0]",match,1.591751709536137,,1.5256373133705141,1.3064117589421065,0.5747071136835921,4th,4th,4th,1.0600612151037445,0.8331729013036544,1.3302053819890678
mem,resp,765,1,mem1.1.3.bmp,mem3.2.1.bmp,mem3.2.1.bmp,ACC029,"[-3, -3, 3]","[3, 0, -3]","[3, 0, -3]",match,1.1339745962155614,,-0.16744353503832432,-0.3807275822922004,0.5264388179218605,2nd,1st,4th,-0.23381933107408562,-0.7593502295129888,1.3302053819890678
mem,resp,791,1,mem2.2.3.bmp,mem2.3.1.bmp,mem1.3.1.bmp,ACC029,"[0, 0, 3]","[0, 3, -3]","[-3, 3, -3]",non-match,1.0042180842186395,3,-0.023435358084751376,-1.092509307493906,0.42720980869398106,2nd,1st,3rd,-0.23381933107408562,-0.7593502295129888,0.251154532393922
mem,resp,804,1,mem2.3.2.bmp,mem3.3.3.bmp,mem2.1.1.bmp,ACC029,"[0, 3, 0]","[3, 3, 3]","[0, -3, -3]",non-match,0.4884773718476586,1,0.7077229378389783,0.10801321270943422,0.5028106096819887,4th,3rd,4th,1.0600612151037445,0.09171899915754574,1.3302053819890678
mem,resp,878,0,mem3.3.1.bmp,mem3.2.3.bmp,mem3.2.2.bmp,ACC029,"[3, 3, -3]","[3, 0, 3]","[3, 0, 0]",non-match,1.3030765749413242,4,-0.4375268677087265,-0.6562976943377978,0.3319118346368289,2nd,1st,3rd,-0.23381933107408562,-0.7593502295129888,0.251154532393922
mem,resp,670,1,mem2.1.2.bmp,mem3.1.2.bmp,mem2.1.2.bmp,ACC029,"[0, -3, 0]","[3, -3, 0]","[0, -3, 0]",match,1.7113248654051871,,-0.5188646086068747,0.3058920286083585,0.32508743964458847,1st,4th,3rd,-1.0662086281640646,0.8331729013036544,0.251154532393922
mem,resp,1033,1,mem1.2.1.bmp,mem1.1.3.bmp,mem1.1.3.bmp,ACC029,"[-3, 0, -3]","[-3, -3, 3]","[-3, -3, 3]",match,1.3545027756320973,,-0.49947655696907245,-0.07256720935083444,0.1701258845414547,1st,2nd,3rd,-1.0662086281640646,-0.16431875095944443,0.251154532393922
mem,resp,965,1,mem1.1.3.bmp,mem1.1.1.bmp,mem1.3.3.bmp,ACC029,"[-3, -3, 3]","[-3, -3, -3]","[-3, 3, 3]",non-match,0.6061531498826483,1,0.8489266666026244,0.31561559551777235,0.20041789172886842,4th,4th,3rd,1.0600612151037445,0.8331729013036544,0.251154532393922
mem,resp,749,1,mem2.3.3.bmp,mem1.3.1.bmp,mem3.1.3.bmp,ACC029,"[0, 3, 3]","[-3, 3, -3]","[3, -3, 3]",non-match,0.3545027756320972,1,0.8258331036305517,0.2543737470966426,-0.08720805526151093,4th,4th,2nd,1.0600612151037445,0.8331729013036544,-0.3775191833173837
mem,resp,702,1,mem2.1.2.bmp,mem2.2.2.bmp,mem1.2.1.bmp,ACC029,"[0, -3, 0]","[0, 0, 0]","[-3, 0, -3]",non-match,1.091751709536137,4,0.2886822548975531,-0.4939718753862269,-0.23111557527064225,3rd,1st,2nd,0.24320953797405992,-0.7593502295129888,-0.3775191833173837
mem,resp,723,1,mem2.3.2.bmp,mem2.2.1.bmp,mem1.2.3.bmp,ACC029,"[0, 3, 0]","[0, 0, -3]","[-3, 0, 3]",non-match,0.8545027756320972,2,1.8939548628517746,1.152894915942369,-0.19026728717207594,4th,4th,2nd,1.0600612151037445,0.8331729013036544,-0.3775191833173837
mem,resp,1433,1,mem3.3.2.bmp,mem1.3.3.bmp,mem3.2.1.bmp,ACC029,"[3, 3, 0]","[-3, 3, 3]","[3, 0, -3]",non-match,0.7257263057516985,2,3.1180985077129746,2.408971565290023,-0.2668152317721735,4th,4th,2nd,1.0600612151037445,0.8331729013036544,-0.3775191833173837
mem,resp,1018,1,mem1.2.2.bmp,mem3.3.1.bmp,mem2.1.3.bmp,ACC029,"[-3, 0, 0]","[3, 3, -3]","[0, -3, 3]",non-match,0.6339745962155614,1,1.2296776045730256,0.5797736670358514,-0.5372649780812825,4th,4th,2nd,1.0600612151037445,0.8331729013036544,-0.3775191833173837
mem,resp,863,1,mem1.1.1.bmp,mem3.1.2.bmp,mem3.1.2.bmp,ACC029,"[-3, -3, -3]","[3, -3, 0]","[3, -3, 0]",match,1.3545027756320973,,0.04020517204844973,0.07671921694600412,-0.6676147599413933,3rd,3rd,2nd,0.24320953797405992,0.09171899915754574,-0.3775191833173837
mem,resp,927,0,mem1.3.1.bmp,mem2.2.3.bmp,mem2.2.2.bmp,ACC029,"[-3, 3, -3]","[0, 0, 3]","[0, 0, 0]",non-match,1.2113248654051871,4,-0.28824215669555225,0.13621437627496868,-0.838061327105322,2nd,3rd,1st,-0.23381933107408562,0.09171899915754574,-1.2004920039670197
mem,resp,800,1,mem3.2.3.bmp,mem1.2.3.bmp,mem1.2.3.bmp,ACC029,"[3, 0, 3]","[-3, 0, 3]","[-3, 0, 3]",match,1.4226497308103743,,0.15356176298066646,-0.18969070625656329,-0.9232737492449042,3rd,2nd,1st,0.24320953797405992,-0.16431875095944443,-1.2004920039670197
mem,resp,764,1,mem2.1.3.bmp,mem3.2.2.bmp,mem2.1.3.bmp,ACC029,"[0, -3, 3]","[3, 0, 0]","[0, -3, 3]",match,1.5,,0.6019227356637937,0.34450607319452714,-0.8700302653863826,4th,4th,1st,1.0600612151037445,0.8331729013036544,-1.2004920039670197
mem,resp,717,0,mem1.3.3.bmp,mem2.3.1.bmp,mem3.1.2.bmp,ACC029,"[-3, 3, 3]","[0, 3, -3]","[3, -3, 0]",non-match,0.42686781502901383,1,-0.8724354683696465,-0.28803998521685614,-0.8469300860306882,1st,2nd,1st,-1.0662086281640646,-0.16431875095944443,-1.2004920039670197
mem,resp,618,1,mem2.1.1.bmp,mem1.2.1.bmp,mem2.1.1.bmp,ACC029,"[0, -3, -3]","[-3, 0, -3]","[0, -3, -3]",match,1.591751709536137,,0.4022829587560197,0.08638687762687428,-0.6754124655961511,3rd,3rd,2nd,0.24320953797405992,0.09171899915754574,-0.3775191833173837
mem,resp,822,1,mem2.2.2.bmp,mem3.2.1.bmp,mem2.2.2.bmp,ACC029,"[0, 0, 0]","[3, 0, -3]","[0, 0, 0]",match,1.591751709536137,,-0.44786625756602344,0.03755759575996655,-0.9772306760300842,2nd,3rd,1st,-0.23381933107408562,0.09171899915754574,-1.2004920039670197
mem,resp,1104,1,mem1.2.3.bmp,mem1.1.2.bmp,mem1.3.2.bmp,ACC029,"[-3, 0, 3]","[-3, -3, 0]","[-3, 3, 0]",non-match,1.0144014403465114,3,-0.17708245367783024,-0.12514969844259052,-0.8764582879837554,2nd,2nd,1st,-0.23381933107408562,-0.16431875095944443,-1.2004920039670197
mem,resp,798,1,mem2.2.1.bmp,mem1.2.2.bmp,mem1.2.2.bmp,ACC029,"[0, 0, -3]","[-3, 0, 0]","[-3, 0, 0]",match,1.591751709536137,,-0.8318459585850013,-0.34079456931720764,-0.6269007263119101,1st,1st,2nd,-1.0662086281640646,-0.7593502295129888,-0.3775191833173837
mem,resp,677,1,mem3.3.3.bmp,mem3.1.3.bmp,mem3.1.3.bmp,ACC029,"[3, 3, 3]","[3, -3, 3]","[3, -3, 3]",match,1.4226497308103743,,-0.26807598634254975,-0.48446489321926184,-0.19521319373898274,2nd,1st,2nd,-0.23381933107408562,-0.7593502295129888,-0.3775191833173837
mem,resp,698,1,mem2.2.3.bmp,mem3.1.1.bmp,mem3.1.1.bmp,ACC029,"[0, 0, 3]","[3, -3, -3]","[3, -3, -3]",match,1.2928932188134525,,-1.1293423548439006,-0.5491278326560699,-0.14205716974259475,1st,1st,2nd,-1.0662086281640646,-0.7593502295129888,-0.3775191833173837
mem,resp,670,1,mem3.2.1.bmp,mem3.3.2.bmp,mem1.2.3.bmp,ACC029,"[3, 0, -3]","[3, 3, 0]","[-3, 0, 3]",non-match,0.4763966378857265,1,0.7995046995341469,-0.015406013979531334,-0.16672386362379846,4th,3rd,2nd,1.0600612151037445,0.09171899915754574,-0.3775191833173837
mem,resp,763,1,mem1.2.1.bmp,mem2.1.2.bmp,mem2.3.2.bmp,ACC029,"[-3, 0, -3]","[0, -3, 0]","[0, 3, 0]",non-match,0.9226497308103743,2,-0.1461803932722106,-0.6157128254625726,-0.2511198969044692,2nd,1st,2nd,-0.23381933107408562,-0.7593502295129888,-0.3775191833173837
mem,resp,716,1,mem1.3.2.bmp,mem2.1.1.bmp,mem2.1.1.bmp,ACC029,"[-3, 3, 0]","[0, -3, -3]","[0, -3, -3]",match,1.2928932188134525,,-0.3045404575015322,0.37886757729490383,-0.4711503411613996,2nd,4th,2nd,-0.23381933107408562,0.8331729013036544,-0.3775191833173837
mem,resp,759,1,mem3.1.2.bmp,mem3.2.3.bmp,mem3.1.2.bmp,ACC029,"[3, -3, 0]","[3, 0, 3]","[3, -3, 0]",match,1.591751709536137,,-0.08244217838474739,-0.8012543198859148,-0.5173448443867746,2nd,1st,2nd,-0.23381933107408562,-0.7593502295129888,-0.3775191833173837
mem,resp,802,1,mem1.1.2.bmp,mem2.1.3.bmp,mem2.1.3.bmp,ACC029,"[-3, -3, 0]","[0, -3, 3]","[0, -3, 3]",match,1.591751709536137,,-0.6204352838634529,-0.009840334436295563,-0.559850475047947,1st,3rd,2nd,-1.0662086281640646,0.09171899915754574,-0.3775191833173837
mem,resp,906,1,mem3.2.2.bmp,mem3.3.3.bmp,mem3.2.2.bmp,ACC029,"[3, 0, 0]","[3, 3, 3]","[3, 0, 0]",match,1.591751709536137,,-0.03388105442035794,0.14315487854241474,-0.3379190794037544,2nd,3rd,2nd,-0.23381933107408562,0.09171899915754574,-0.3775191833173837
mem,resp,1013,1,mem3.1.3.bmp,mem1.2.1.bmp,mem3.2.1.bmp,ACC029,"[3, -3, 3]","[-3, 0, -3]","[3, 0, -3]",non-match,0.7771525064424715,2,0.36833718571707913,0.1250068034375802,-0.28685147312309833,3rd,3rd,2nd,0.24320953797405992,0.09171899915754574,-0.3775191833173837
mem,resp,959,1,mem3.1.1.bmp,mem1.2.2.bmp,mem3.3.2.bmp,ACC029,"[3, -3, -3]","[-3, 0, 0]","[3, 3, 0]",non-match,0.7090055512641944,2,-0.7186979558237032,-0.19729862372268706,-0.5359597310812478,1st,2nd,2nd,-1.0662086281640646,-0.16431875095944443,-0.3775191833173837
mem,resp,1024,1,mem3.3.1.bmp,mem1.1.2.bmp,mem2.3.2.bmp,ACC029,"[3, 3, -3]","[-3, -3, 0]","[0, 3, 0]",non-match,0.9462544851682343,3,0.0007729187976256611,-0.09502990645576843,-0.6254766183608172,3rd,2nd,2nd,0.24320953797405992,-0.16431875095944443,-0.3775191833173837
mem,resp,876,1,mem2.3.1.bmp,mem1.3.3.bmp,mem2.1.3.bmp,ACC029,"[0, 3, -3]","[-3, 3, 3]","[0, -3, 3]",non-match,0.5380061947043713,1,0.28848081171924084,-0.4421600342814993,-0.8287543971999564,3rd,1st,1st,0.24320953797405992,-0.7593502295129888,-1.2004920039670197
mem,resp,709,1,mem2.3.3.bmp,mem3.1.2.bmp,mem1.3.1.bmp,ACC029,"[0, 3, 3]","[3, -3, 0]","[-3, 3, -3]",non-match,0.4884773718476586,1,0.48398674352256665,0.013372651240135851,-0.8839012839608392,3rd,3rd,1st,0.24320953797405992,0.09171899915754574,-1.2004920039670197
mem,resp,1083,0,mem1.3.2.bmp,mem2.2.2.bmp,mem2.2.3.bmp,ACC029,"[-3, 3, 0]","[0, 0, 0]","[0, 0, 3]",non-match,1.2113248654051871,4,-0.14992854569013478,-1.0896122833154518,-0.6014656990060562,2nd,1st,2nd,-0.23381933107408562,-0.7593502295129888,-0.3775191833173837
mem,resp,717,1,mem3.1.3.bmp,mem3.2.3.bmp,mem3.2.3.bmp,ACC029,"[3, -3, 3]","[3, 0, 3]","[3, 0, 3]",match,1.7113248654051871,,-0.0013491709474978057,-0.003585098613770285,-0.5849790220598433,3rd,3rd,2nd,0.24320953797405992,0.09171899915754574,-0.3775191833173837
mem,resp,630,1,mem3.2.2.bmp,mem2.1.3.bmp,mem3.2.2.bmp,ACC029,"[3, 0, 0]","[0, -3, 3]","[3, 0, 0]",match,1.5,,0.3106351709917558,0.23578285037958102,-0.5409960363739539,3rd,4th,2nd,0.24320953797405992,0.8331729013036544,-0.3775191833173837
mem,resp,782,1,mem3.3.3.bmp,mem1.3.1.bmp,mem3.3.3.bmp,ACC029,"[3, 3, 3]","[-3, 3, -3]","[3, 3, 3]",match,1.1835034190722742,,-1.2996159625282695,-0.8744149368704763,-0.225503035546446,1st,1st,2nd,-1.0662086281640646,-0.7593502295129888,-0.3775191833173837
mem,resp,807,0,mem1.2.3.bmp,mem3.3.1.bmp,mem3.3.1.bmp,ACC029,"[-3, 0, 3]","[3, 3, -3]","[3, 3, -3]",match,1.1339745962155614,,0.19686982183051283,0.15309490911024287,-0.3162738434966621,3rd,3rd,2nd,0.24320953797405992,0.09171899915754574,-0.3775191833173837
mem,resp,790,1,mem2.2.1.bmp,mem3.2.1.bmp,mem2.2.1.bmp,ACC029,"[0, 0, -3]","[3, 0, -3]","[0, 0, -3]",match,1.7113248654051871,,0.6456992646958173,-0.11768614774114017,-0.2780051755757947,4th,2nd,2nd,1.0600612151037445,-0.16431875095944443,-0.3775191833173837
mem,resp,672,1,mem1.3.3.bmp,mem2.3.3.bmp,mem2.1.1.bmp,ACC029,"[-3, 3, 3]","[0, 3, 3]","[0, -3, -3]",non-match,0.3174780152878355,1,2.6817397309250723,1.4305700133873527,-0.03210780485872129,4th,4th,2nd,1.0600612151037445,0.8331729013036544,-0.3775191833173837
mem,resp,764,0,mem2.3.2.bmp,mem3.1.1.bmp,mem3.2.2.bmp,ACC029,"[0, 3, 0]","[3, -3, -3]","[3, 0, 0]",non-match,1.1835034190722742,4,-0.5122757906742347,-0.6677321527094354,-0.42284856380311237,1st,1st,2nd,-1.0662086281640646,-0.7593502295129888,-0.3775191833173837
mem,resp,748,1,mem1.2.2.bmp,mem2.2.3.bmp,mem1.2.2.bmp,ACC029,"[-3, 0, 0]","[0, 0, 3]","[-3, 0, 0]",match,1.591751709536137,,-0.4318840081139269,-0.08275246968415258,-0.6919133777569374,2nd,2nd,1st,-0.23381933107408562,-0.16431875095944443,-1.2004920039670197
mem,resp,709,1,mem3.1.2.bmp,mem1.1.1.bmp,mem1.1.1.bmp,ACC029,"[3, -3, 0]","[-3, -3, -3]","[-3, -3, -3]",match,1.3545027756320973,,-0.3587700129708737,-0.031230348078767782,-0.6392486073150466,2nd,2nd,2nd,-0.23381933107408562,-0.16431875095944443,-0.3775191833173837
mem,resp,804,1,mem2.2.2.bmp,mem1.3.2.bmp,mem1.3.2.bmp,ACC029,"[0, 0, 0]","[-3, 3, 0]","[-3, 3, 0]",match,1.591751709536137,,-0.7230586250658204,-0.8835955370221954,-0.7245048058295754,1st,1st,1st,-1.0662086281640646,-0.7593502295129888,-1.2004920039670197
mem,resp,599,1,mem3.2.1.bmp,mem3.1.2.bmp,mem1.2.2.bmp,ACC029,"[3, 0, -3]","[3, -3, 0]","[-3, 0, 0]",non-match,0.7090055512641944,2,3.3832645520694054,2.09705909217784,-0.8210219274808824,4th,4th,1st,1.0600612151037445,0.8331729013036544,-1.2004920039670197
mem,resp,701,1,mem2.3.2.bmp,mem3.3.3.bmp,mem3.3.3.bmp,ACC029,"[0, 3, 0]","[3, 3, 3]","[3, 3, 3]",match,1.591751709536137,,0.13780000428028666,0.7042499919422548,-0.7959802846208751,3rd,4th,1st,0.24320953797405992,0.8331729013036544,-1.2004920039670197
mem,resp,603,1,mem2.2.3.bmp,mem1.2.1.bmp,mem2.2.3.bmp,ACC029,"[0, 0, 3]","[-3, 0, -3]","[0, 0, 3]",match,1.3545027756320973,,0.3159732512620401,-0.02518368815468923,-0.8184196573001464,3rd,3rd,1st,0.24320953797405992,0.09171899915754574,-1.2004920039670197
mem,resp,1058,0,mem3.2.2.bmp,mem1.3.2.bmp,mem2.2.1.bmp,ACC029,"[3, 0, 0]","[-3, 3, 0]","[0, 0, -3]",non-match,1.091751709536137,4,-0.27692044178056585,0.1865843313980408,-0.9100982090941179,2nd,3rd,1st,-0.23381933107408562,0.09171899915754574,-1.2004920039670197
mem,resp,532,1,mem1.1.2.bmp,mem2.3.3.bmp,mem2.3.3.bmp,ACC029,"[-3, -3, 0]","[0, 3, 3]","[0, 3, 3]",match,1.2928932188134525,,0.218207634872453,-0.11544360222959647,-0.8546784563714152,3rd,2nd,1st,0.24320953797405992,-0.16431875095944443,-1.2004920039670197
mem,resp,633,1,mem1.1.3.bmp,mem1.2.2.bmp,mem1.1.3.bmp,ACC029,"[-3, -3, 3]","[-3, 0, 0]","[-3, -3, 3]",match,1.591751709536137,,0.4067177038321407,0.2394376854751822,-1.0252556307188792,3rd,4th,1st,0.24320953797405992,0.8331729013036544,-1.2004920039670197
mem,resp,616,1,mem1.2.1.bmp,mem1.2.3.bmp,mem1.2.3.bmp,ACC029,"[-3, 0, -3]","[-3, 0, 3]","[-3, 0, 3]",match,1.4226497308103743,,-0.8513337226513329,-0.20921315434490784,-1.016484868471089,1st,2nd,1st,-1.0662086281640646,-0.16431875095944443,-1.2004920039670197
mem,resp,643,1,mem3.3.2.bmp,mem3.1.3.bmp,mem3.1.3.bmp,ACC029,"[3, 3, 0]","[3, -3, 3]","[3, -3, 3]",match,1.3545027756320973,,0.46632397482903815,0.07103058521449826,-0.6808964370435872,3rd,3rd,2nd,0.24320953797405992,0.09171899915754574,-0.3775191833173837
mem,resp,625,1,mem2.1.2.bmp,mem2.2.2.bmp,mem2.1.2.bmp,ACC029,"[0, -3, 0]","[0, 0, 0]","[0, -3, 0]",match,1.7113248654051871,,0.12102964317545138,-0.01848846754589056,-0.7278408191604524,3rd,3rd,1st,0.24320953797405992,0.09171899915754574,-1.2004920039670197
mem,resp,565,1,mem2.3.1.bmp,mem3.1.1.bmp,mem2.3.1.bmp,ACC029,"[0, 3, -3]","[3, -3, -3]","[0, 3, -3]",match,1.3545027756320973,,0.5975766962139457,-0.10742894619355477,-0.5066650114299491,4th,2nd,2nd,1.0600612151037445,-0.16431875095944443,-0.3775191833173837
mem,resp,920,0,mem1.3.1.bmp,mem3.2.2.bmp,mem1.3.1.bmp,ACC029,"[-3, 3, -3]","[3, 0, 0]","[-3, 3, -3]",match,1.2928932188134525,,-0.34376782285371404,0.43746097192509525,-0.5517674209572496,2nd,4th,2nd,-0.23381933107408562,0.8331729013036544,-0.3775191833173837
mem,resp,682,1,mem2.1.3.bmp,mem3.2.3.bmp,mem1.3.3.bmp,ACC029,"[0, -3, 3]","[3, 0, 3]","[-3, 3, 3]",non-match,0.7090055512641944,2,0.44067174211187177,-0.6620478627054558,-0.3659567243149579,3rd,1st,2nd,0.24320953797405992,-0.7593502295129888,-0.3775191833173837
mem,resp,877,0,mem3.1.3.bmp,mem1.1.1.bmp,mem1.2.1.bmp,ACC029,"[3, -3, 3]","[-3, -3, -3]","[-3, 0, -3]",non-match,0.8452994616207485,2,-0.05919675654773249,-0.09445544920021956,-0.3731714782433965,2nd,2nd,2nd,-0.23381933107408562,-0.16431875095944443,-0.3775191833173837
mem,resp,700,1,mem3.1.1.bmp,mem2.1.1.bmp,mem2.1.1.bmp,ACC029,"[3, -3, -3]","[0, -3, -3]","[0, -3, -3]",match,1.7113248654051871,,1.1572760295363076,0.2846982056973654,-0.4647730671395678,4th,4th,2nd,1.0600612151037445,0.8331729013036544,-0.3775191833173837
mem,resp,1444,1,mem3.3.3.bmp,mem2.2.1.bmp,mem2.2.1.bmp,ACC029,"[3, 3, 3]","[0, 0, -3]","[0, 0, -3]",match,1.2928932188134525,,-1.090821732492876,0.4875202254154014,-0.4553518893379149,1st,4th,2nd,-1.0662086281640646,0.8331729013036544,-0.3775191833173837
mem,resp,1372,0,mem3.1.2.bmp,mem1.3.3.bmp,mem2.1.2.bmp,ACC029,"[3, -3, 0]","[-3, 3, 3]","[0, -3, 0]",non-match,1.0042180842186395,3,-0.6078010318559965,-0.1340079642453627,-0.5783816880504732,1st,2nd,2nd,-1.0662086281640646,-0.16431875095944443,-0.3775191833173837
mem,resp,1311,1,mem1.3.2.bmp,mem3.2.2.bmp,mem1.1.1.bmp,ACC029,"[-3, 3, 0]","[3, 0, 0]","[-3, -3, -3]",non-match,0.6473959944455496,1,0.7491191159968889,0.8420546938496662,-0.44894743120689634,4th,4th,2nd,1.0600612151037445,0.8331729013036544,-0.3775191833173837
mem,resp,1096,1,mem3.3.1.bmp,mem2.3.1.bmp,mem3.3.1.bmp,ACC029,"[3, 3, -3]","[0, 3, -3]","[3, 3, -3]",match,1.7113248654051871,,0.13565188413834703,0.1203117181030696,-0.1514802010420139,3rd,3rd,2nd,0.24320953797405992,0.09171899915754574,-0.3775191833173837
mem,resp,668,1,mem2.3.3.bmp,mem3.1.3.bmp,mem3.1.3.bmp,ACC029,"[0, 3, 3]","[3, -3, 3]","[3, -3, 3]",match,1.3545027756320973,,0.5596613412490546,0.35812204207541365,-0.12976568700563557,4th,4th,2nd,1.0600612151037445,0.8331729013036544,-0.3775191833173837
mem,resp,1499,0,mem3.2.3.bmp,mem3.1.1.bmp,mem3.2.3.bmp,ACC029,"[3, 0, 3]","[3, -3, -3]","[3, 0, 3]",match,1.3545027756320973,,-0.17454865028077066,-0.09385885086405947,-0.15457630749115261,2nd,2nd,2nd,-0.23381933107408562,-0.16431875095944443,-0.3775191833173837
mem,resp,684,1,mem2.1.1.bmp,mem3.2.1.bmp,mem1.2.1.bmp,ACC029,"[0, -3, -3]","[3, 0, -3]","[-3, 0, -3]",non-match,1.0144014403465114,3,0.9470390383304927,-0.1920358964340036,-0.28403055099192337,4th,2nd,2nd,1.0600612151037445,-0.16431875095944443,-0.3775191833173837
mem,resp,917,0,mem1.3.3.bmp,mem1.1.2.bmp,mem1.3.2.bmp,ACC029,"[-3, 3, 3]","[-3, -3, 0]","[-3, 3, 0]",non-match,1.1339745962155614,4,0.7912950253591341,0.43041924340472903,-0.49372800523035015,4th,4th,2nd,1.0600612151037445,0.8331729013036544,-0.3775191833173837
mem,resp,890,1,mem1.2.3.bmp,mem3.3.1.bmp,mem1.1.3.bmp,ACC029,"[-3, 0, 3]","[3, 3, -3]","[-3, -3, 3]",non-match,0.7113248654051871,2,-0.2712639032247366,-0.10853698619411736,-0.36892750369994404,2nd,2nd,2nd,-0.23381933107408562,-0.16431875095944443,-0.3775191833173837
mem,resp,1257,1,mem2.2.1.bmp,mem1.3.1.bmp,mem2.2.3.bmp,ACC029,"[0, 0, -3]","[-3, 3, -3]","[0, 0, 3]",non-match,0.7155429496238267,2,0.0942668788191884,0.10174939721817218,-0.18718414510939022,3rd,3rd,2nd,0.24320953797405992,0.09171899915754574,-0.3775191833173837
mem,resp,668,0,mem1.1.1.bmp,mem3.3.2.bmp,mem3.2.3.bmp,ACC029,"[-3, -3, -3]","[3, 3, 0]","[3, 0, 3]",non-match,0.7257263057516985,2,0.5223881023667952,0.14906108098636534,0.040321418301336114,3rd,3rd,3rd,0.24320953797405992,0.09171899915754574,0.251154532393922
mem,resp,774,1,mem2.2.2.bmp,mem2.1.3.bmp,mem2.1.3.bmp,ACC029,"[0, 0, 0]","[0, -3, 3]","[0, -3, 3]",match,1.591751709536137,,1.872481133530123,1.221973080914304,0.1406825774808799,4th,4th,3rd,1.0600612151037445,0.8331729013036544,0.251154532393922
mem,resp,815,1,mem1.2.2.bmp,mem2.3.2.bmp,mem1.2.2.bmp,ACC029,"[-3, 0, 0]","[0, 3, 0]","[-3, 0, 0]",match,1.591751709536137,,0.23761121207744176,-0.19283771491107993,-0.211689902197274,3rd,2nd,2nd,0.24320953797405992,-0.16431875095944443,-0.3775191833173837
mem,resp,919,0,mem3.3.3.bmp,mem1.1.3.bmp,mem3.3.3.bmp,ACC029,"[3, 3, 3]","[-3, -3, 3]","[3, 3, 3]",match,1.1835034190722742,,0.6478972875170856,0.20859076656290845,-0.5192444504451907,4th,3rd,2nd,1.0600612151037445,0.09171899915754574,-0.3775191833173837
mem,resp,584,1,mem3.3.1.bmp,mem3.2.3.bmp,mem3.2.3.bmp,ACC029,"[3, 3, -3]","[3, 0, 3]","[3, 0, 3]",match,1.3545027756320973,,0.33149228883678744,0.09064862049929484,-0.7032688107657429,3rd,3rd,1st,0.24320953797405992,0.09171899915754574,-1.2004920039670197
mem,resp,1271,0,mem1.1.2.bmp,mem2.2.1.bmp,mem3.1.3.bmp,ACC029,"[-3, -3, 0]","[0, 0, -3]","[3, -3, 3]",non-match,0.6473959944455496,1,-0.0430450336623625,0.3734498624419409,-0.7964230078400396,2nd,4th,1st,-0.23381933107408562,0.8331729013036544,-1.2004920039670197
mem,resp,633,1,mem1.3.2.bmp,mem2.2.3.bmp,mem2.2.3.bmp,ACC029,"[-3, 3, 0]","[0, 0, 3]","[0, 0, 3]",match,1.5,,0.19545641544485629,-0.1232987732943595,-0.6857217956106434,3rd,2nd,1st,0.24320953797405992,-0.16431875095944443,-1.2004920039670197
mem,resp,926,1,mem1.1.3.bmp,mem2.1.2.bmp,mem1.1.3.bmp,ACC029,"[-3, -3, 3]","[0, -3, 0]","[-3, -3, 3]",match,1.591751709536137,,-0.5518639227218101,-0.12013166469010034,-0.3978593257775369,1st,2nd,2nd,-1.0662086281640646,-0.16431875095944443,-0.3775191833173837
mem,resp,709,0,mem3.2.3.bmp,mem1.3.3.bmp,mem2.2.2.bmp,ACC029,"[3, 0, 3]","[-3, 3, 3]","[0, 0, 0]",non-match,1.091751709536137,4,-0.28522867132401136,-0.12921066668793624,-0.40685961533752474,2nd,2nd,2nd,-0.23381933107408562,-0.16431875095944443,-0.3775191833173837
mem,resp,640,1,mem1.2.1.bmp,mem1.2.3.bmp,mem1.2.3.bmp,ACC029,"[-3, 0, -3]","[-3, 0, 3]","[-3, 0, 3]",match,1.4226497308103743,,1.060845140048257,0.05031791566154049,-0.34932689176232495,4th,3rd,2nd,1.0600612151037445,0.09171899915754574,-0.3775191833173837
mem,resp,1066,1,mem1.3.1.bmp,mem1.3.2.bmp,mem1.3.2.bmp,ACC029,"[-3, 3, -3]","[-3, 3, 0]","[-3, 3, 0]",match,1.7113248654051871,,0.7096089633155505,0.18307448578500593,-0.5376335888047833,4th,3rd,2nd,1.0600612151037445,0.09171899915754574,-0.3775191833173837
mem,resp,837,1,mem3.1.2.bmp,mem3.3.3.bmp,mem1.1.2.bmp,ACC029,"[3, -3, 0]","[3, 3, 3]","[-3, -3, 0]",non-match,0.5566243270259357,1,-0.8444077497682938,-0.3554114534234805,-0.13566483431778487,1st,1st,2nd,-1.0662086281640646,-0.7593502295129888,-0.3775191833173837
mem,resp,783,1,mem3.2.1.bmp,mem3.2.2.bmp,mem3.2.2.bmp,ACC029,"[3, 0, -3]","[3, 0, 0]","[3, 0, 0]",match,1.7113248654051871,,0.3302791962803295,0.512212408253862,0.04520902707773812,3rd,4th,3rd,0.24320953797405992,0.8331729013036544,0.251154532393922
mem,resp,1046,0,mem2.1.1.bmp,mem2.1.3.bmp,mem2.3.1.bmp,ACC029,"[0, -3, -3]","[0, -3, 3]","[0, 3, -3]",non-match,0.6061531498826483,1,-0.14825302636933121,0.2687630624087571,0.21684048849012183,2nd,4th,3rd,-0.23381933107408562,0.8331729013036544,0.251154532393922
mem,resp,585,1,mem3.1.1.bmp,mem2.3.2.bmp,mem3.1.1.bmp,ACC029,"[3, -3, -3]","[0, 3, 0]","[3, -3, -3]",match,1.2928932188134525,,1.246263639550482,0.6838782950307112,0.4807080784022969,4th,4th,4th,1.0600612151037445,0.8331729013036544,1.3302053819890678
mem,resp,999,1,mem2.3.2.bmp,mem2.2.1.bmp,mem2.3.2.bmp,ACC029,"[0, 3, 0]","[0, 0, -3]","[0, 3, 0]",match,1.591751709536137,,-1.3851486537676074,-0.06182859497942549,0.5212259432727581,1st,2nd,4th,-1.0662086281640646,-0.16431875095944443,1.3302053819890678
mem,resp,613,1,mem3.2.3.bmp,mem1.2.3.bmp,mem3.2.3.bmp,ACC029,"[3, 0, 3]","[-3, 0, 3]","[3, 0, 3]",match,1.4226497308103743,,0.6410827793972954,0.11347444862397371,0.5109035079687256,4th,3rd,4th,1.0600612151037445,0.09171899915754574,1.3302053819890678
mem,resp,700,1,mem1.1.1.bmp,mem2.2.3.bmp,mem1.1.1.bmp,ACC029,"[-3, -3, -3]","[0, 0, 3]","[-3, -3, -3]",match,1.2928932188134525,,-0.007758420038530438,0.10942301142192264,0.45893954963533157,2nd,3rd,3rd,-0.23381933107408562,0.09171899915754574,0.251154532393922
mem,resp,1075,0,mem1.3.3.bmp,mem3.2.2.bmp,mem2.2.2.bmp,ACC029,"[-3, 3, 3]","[3, 0, 0]","[0, 0, 0]",non-match,1.2113248654051871,4,0.02209939196175429,0.1751931951642088,0.45255903989408663,3rd,3rd,3rd,0.24320953797405992,0.09171899915754574,0.251154532393922
mem,resp,798,1,mem1.1.3.bmp,mem2.3.2.bmp,mem2.1.1.bmp,ACC029,"[-3, -3, 3]","[0, 3, 0]","[0, -3, -3]",non-match,0.7090055512641944,2,0.29752851114888623,-0.004906955721705298,0.2723138057052661,3rd,3rd,3rd,0.24320953797405992,0.09171899915754574,0.251154532393922
mem,resp,714,1,mem2.1.3.bmp,mem3.1.3.bmp,mem3.3.3.bmp,ACC029,"[0, -3, 3]","[3, -3, 3]","[3, 3, 3]",non-match,0.7771525064424715,2,0.35934376981101734,-0.8133386362712143,0.4359646834793498,3rd,1st,3rd,0.24320953797405992,-0.7593502295129888,0.251154532393922
mem,resp,917,1,mem3.1.2.bmp,mem1.1.1.bmp,mem1.2.3.bmp,ACC029,"[3, -3, 0]","[-3, -3, -3]","[-3, 0, 3]",non-match,0.6473959944455496,1,0.5713400483986284,-0.15640764575915048,0.33214070247556726,4th,2nd,3rd,1.0600612151037445,-0.16431875095944443,0.251154532393922
mem,resp,861,0,mem1.1.2.bmp,mem3.2.1.bmp,mem2.2.1.bmp,ACC029,"[-3, -3, 0]","[3, 0, -3]","[0, 0, -3]",non-match,1.2113248654051871,4,-0.3579345376409959,-0.46489399421936056,0.3404013798001438,2nd,1st,3rd,-0.23381933107408562,-0.7593502295129888,0.251154532393922
mem,resp,914,1,mem2.2.2.bmp,mem1.3.3.bmp,mem1.3.3.bmp,ACC029,"[0, 0, 0]","[-3, 3, 3]","[-3, 3, 3]",match,1.5,,-0.03465304330151316,0.45082546656385103,0.36720563411354123,2nd,4th,3rd,-0.23381933107408562,0.8331729013036544,0.251154532393922
mem,resp,785,1,mem1.3.1.bmp,mem1.1.3.bmp,mem2.1.1.bmp,ACC029,"[-3, 3, -3]","[-3, -3, 3]","[0, -3, -3]",non-match,0.7090055512641944,2,0.9092135912049364,-0.13126129400464956,0.563167497978683,4th,2nd,4th,1.0600612151037445,-0.16431875095944443,1.3302053819890678
mem,resp,1112,0,mem2.2.3.bmp,mem3.3.1.bmp,mem2.3.2.bmp,ACC029,"[0, 0, 3]","[3, 3, -3]","[0, 3, 0]",non-match,1.1835034190722742,4,-0.9084182836520913,-0.08462754244842487,0.5399196421243344,1st,2nd,4th,-1.0662086281640646,-0.16431875095944443,1.3302053819890678
mem,resp,582,1,mem1.2.2.bmp,mem1.2.1.bmp,mem1.2.1.bmp,ACC029,"[-3, 0, 0]","[-3, 0, -3]","[-3, 0, -3]",match,1.7113248654051871,,-0.48943852991929926,-0.2593628922044936,0.454004979965517,2nd,2nd,3rd,-0.23381933107408562,-0.16431875095944443,0.251154532393922
mem,resp,855,0,mem3.2.2.bmp,mem1.1.2.bmp,mem3.2.3.bmp,ACC029,"[3, 0, 0]","[-3, -3, 0]","[3, 0, 3]",non-match,1.0042180842186395,3,-1.588382857949321,-1.0749504624373944,0.36331244271814067,1st,1st,3rd,-1.0662086281640646,-0.7593502295129888,0.251154532393922
mem,resp,787,1,mem1.3.2.bmp,mem2.3.3.bmp,mem3.3.2.bmp,ACC029,"[-3, 3, 0]","[0, 3, 3]","[3, 3, 0]",non-match,1.0144014403465114,3,0.9165383149722863,0.13219514742611937,0.35113011003749994,4th,3rd,3rd,1.0600612151037445,0.09171899915754574,0.251154532393922
mem,resp,780,1,mem3.3.1.bmp,mem1.3.1.bmp,mem1.3.1.bmp,ACC029,"[3, 3, -3]","[-3, 3, -3]","[-3, 3, -3]",match,1.4226497308103743,,0.03347286108712588,0.04767485875900065,0.47349718736967616,3rd,3rd,4th,0.24320953797405992,0.09171899915754574,1.3302053819890678
mem,resp,681,1,mem3.3.3.bmp,mem3.1.2.bmp,mem3.1.2.bmp,ACC029,"[3, 3, 3]","[3, -3, 0]","[3, -3, 0]",match,1.3545027756320973,,-1.2927787185927617,-1.010485807296646,0.765511261789453,1st,1st,4th,-1.0662086281640646,-0.7593502295129888,1.3302053819890678
mem,resp,624,1,mem3.1.1.bmp,mem2.1.2.bmp,mem1.1.3.bmp,ACC029,"[3, -3, -3]","[0, -3, 0]","[-3, -3, 3]",non-match,0.7752551286084112,2,1.107235647250068,0.5527465688651717,0.5523628013967786,4th,4th,4th,1.0600612151037445,0.8331729013036544,1.3302053819890678
mem,resp,1291,1,mem2.2.1.bmp,mem2.2.2.bmp,mem2.2.1.bmp,ACC029,"[0, 0, -3]","[0, 0, 0]","[0, 0, -3]",match,1.7113248654051871,,-1.46624741983182,-0.2751426327835614,0.46295045766579,1st,2nd,4th,-1.0662086281640646,-0.16431875095944443,1.3302053819890678
mem,resp,583,1,mem3.2.1.bmp,mem3.3.2.bmp,mem3.2.1.bmp,ACC029,"[3, 0, -3]","[3, 3, 0]","[3, 0, -3]",match,1.591751709536137,,-0.23629220924537375,-0.46685045275259884,0.3698587950354333,2nd,1st,3rd,-0.23381933107408562,-0.7593502295129888,0.251154532393922
mem,resp,716,1,mem2.3.1.bmp,mem3.2.3.bmp,mem2.1.3.bmp,ACC029,"[0, 3, -3]","[3, 0, 3]","[0, -3, 3]",non-match,0.7752551286084112,2,0.16209515438552385,-0.9421850785854287,0.17036672278753298,3rd,1st,3rd,0.24320953797405992,-0.7593502295129888,0.251154532393922
mem,resp,790,1,mem1.2.3.bmp,mem2.1.1.bmp,mem2.1.1.bmp,ACC029,"[-3, 0, 3]","[0, -3, -3]","[0, -3, -3]",match,1.2928932188134525,,0.1805252491980088,-0.5293030204356266,0.39814474214179574,3rd,1st,3rd,0.24320953797405992,-0.7593502295129888,0.251154532393922
mem,resp,893,1,mem1.2.1.bmp,mem1.3.2.bmp,mem1.2.1.bmp,ACC029,"[-3, 0, -3]","[-3, 3, 0]","[-3, 0, -3]",match,1.591751709536137,,-0.3023256694940013,-0.6011399035097167,0.152590187697217,2nd,1st,3rd,-0.23381933107408562,-0.7593502295129888,0.251154532393922
mem,resp,797,0,mem2.3.3.bmp,mem1.3.1.bmp,mem2.2.3.bmp,ACC029,"[0, 3, 3]","[-3, 3, -3]","[0, 0, 3]",non-match,1.0042180842186395,3,-0.630750182646968,0.03261522223137805,0.14109228461477433,1st,3rd,3rd,-1.0662086281640646,0.09171899915754574,0.251154532393922
mem,resp,618,0,mem3.3.2.bmp,mem2.2.1.bmp,mem3.3.3.bmp,ACC029,"[3, 3, 0]","[0, 0, -3]","[3, 3, 3]",non-match,1.0042180842186395,3,0.17533303633930286,-0.34725953998536757,0.2506233687778286,3rd,1st,3rd,0.24320953797405992,-0.7593502295129888,0.251154532393922
mem,resp,1276,1,mem2.1.1.bmp,mem1.1.3.bmp,mem1.2.3.bmp,ACC029,"[0, -3, -3]","[-3, -3, 3]","[-3, 0, 3]",non-match,1.0042180842186395,3,-1.1257920304773361,-0.9212755436899415,0.15290819043062367,1st,1st,3rd,-1.0662086281640646,-0.7593502295129888,0.251154532393922
mem,resp,696,1,mem3.1.3.bmp,mem3.1.1.bmp,mem3.1.3.bmp,ACC029,"[3, -3, 3]","[3, -3, -3]","[3, -3, 3]",match,1.4226497308103743,,0.09953146209008508,-0.18201809532052807,0.08156393261406425,3rd,2nd,3rd,0.24320953797405992,-0.16431875095944443,0.251154532393922
mem,resp,759,0,mem3.2.2.bmp,mem2.2.2.bmp,mem2.2.3.bmp,ACC029,"[3, 0, 0]","[0, 0, 0]","[0, 0, 3]",non-match,1.3030765749413242,4,0.3761098353320909,-0.04386629737909537,0.24460201702756518,3rd,2nd,3rd,0.24320953797405992,-0.16431875095944443,0.251154532393922
mem,resp,691,1,mem2.2.1.bmp,mem3.2.3.bmp,mem1.2.2.bmp,ACC029,"[0, 0, -3]","[3, 0, 3]","[-3, 0, 0]",non-match,0.9462544851682343,3,0.5616465998917722,-0.17767121307406922,0.364519719761785,4th,2nd,3rd,1.0600612151037445,-0.16431875095944443,0.251154532393922
mem,resp,957,0,mem2.1.1.bmp,mem2.3.2.bmp,mem3.1.3.bmp,ACC029,"[0, -3, -3]","[0, 3, 0]","[3, -3, 3]",non-match,0.6473959944455496,1,-0.6013216557799198,-0.08883742675860107,0.0633609029157796,1st,2nd,3rd,-1.0662086281640646,-0.16431875095944443,0.251154532393922
mem,resp,627,1,mem3.1.1.bmp,mem2.2.3.bmp,mem2.2.3.bmp,ACC029,"[3, -3, -3]","[0, 0, 3]","[0, 0, 3]",match,1.2928932188134525,,0.626035828590758,0.24109933897962452,0.35686663395603313,4th,4th,3rd,1.0600612151037445,0.8331729013036544,0.251154532393922
mem,resp,891,1,mem3.1.2.bmp,mem1.2.2.bmp,mem3.1.2.bmp,ACC029,"[3, -3, 0]","[-3, 0, 0]","[3, -3, 0]",match,1.3545027756320973,,0.01748891326686996,-0.11898046688006504,0.4301570130101785,3rd,2nd,3rd,0.24320953797405992,-0.16431875095944443,0.251154532393922
mem,resp,834,1,mem2.3.2.bmp,mem3.2.2.bmp,mem2.3.2.bmp,ACC029,"[0, 3, 0]","[3, 0, 0]","[0, 3, 0]",match,1.591751709536137,,-0.6801783442827238,0.18732685329360513,0.5732191660716793,1st,3rd,4th,-1.0662086281640646,0.09171899915754574,1.3302053819890678
mem,resp,728,0,mem1.3.3.bmp,mem3.2.1.bmp,mem2.2.1.bmp,ACC029,"[-3, 3, 3]","[3, 0, -3]","[0, 0, -3]",non-match,1.0042180842186395,3,-0.3777266447456163,-0.179859668617588,0.726469183088015,2nd,2nd,4th,-0.23381933107408562,-0.16431875095944443,1.3302053819890678
mem,resp,961,1,mem2.2.3.bmp,mem1.1.2.bmp,mem1.1.2.bmp,ACC029,"[0, 0, 3]","[-3, -3, 0]","[-3, -3, 0]",match,1.5,,-0.25459095445151697,-0.6073003218842957,0.6578038281501803,2nd,1st,4th,-0.23381933107408562,-0.7593502295129888,1.3302053819890678
mem,resp,1531,1,mem1.1.3.bmp,mem2.3.3.bmp,mem1.2.3.bmp,ACC029,"[-3, -3, 3]","[0, 3, 3]","[-3, 0, 3]",non-match,1.3030765749413242,4,-1.615134089444734,-0.6482113219578384,0.4249391450409588,1st,1st,3rd,-1.0662086281640646,-0.7593502295129888,0.251154532393922
mem,resp,600,1,mem2.1.2.bmp,mem2.1.1.bmp,mem2.1.1.bmp,ACC029,"[0, -3, 0]","[0, -3, -3]","[0, -3, -3]",match,1.7113248654051871,,0.171995575935202,-0.5685875765122147,0.3985592882780708,3rd,1st,3rd,0.24320953797405992,-0.7593502295129888,0.251154532393922
mem,resp,985,1,mem1.2.2.bmp,mem1.1.3.bmp,mem1.1.3.bmp,ACC029,"[-3, 0, 0]","[-3, -3, 3]","[-3, -3, 3]",match,1.591751709536137,,-1.2018262030943518,-0.5867896637453375,0.19733287081709802,1st,1st,3rd,-1.0662086281640646,-0.7593502295129888,0.251154532393922
mem,resp,866,1,mem1.2.3.bmp,mem3.1.2.bmp,mem1.2.3.bmp,ACC029,"[-3, 0, 3]","[3, -3, 0]","[-3, 0, 3]",match,1.2928932188134525,,-1.2006318890214491,0.02781271806046421,0.21304760934492023,1st,3rd,3rd,-1.0662086281640646,0.09171899915754574,0.251154532393922
mem,resp,730,1,mem3.2.2.bmp,mem1.2.1.bmp,mem2.3.3.bmp,ACC029,"[3, 0, 0]","[-3, 0, -3]","[0, 3, 3]",non-match,0.7928932188134524,2,0.7093216070950069,0.1107990449864788,0.6668845414691869,4th,3rd,4th,1.0600612151037445,0.09171899915754574,1.3302053819890678
mem,resp,1237,1,mem3.2.1.bmp,mem1.1.2.bmp,mem2.1.3.bmp,ACC029,"[3, 0, -3]","[-3, -3, 0]","[0, -3, 3]",non-match,0.8846449283495895,2,-0.06304526731978552,0.4147625933956851,0.8278768326489803,2nd,4th,4th,-0.23381933107408562,0.8331729013036544,1.3302053819890678
mem,resp,639,1,mem1.3.1.bmp,mem1.3.2.bmp,mem3.2.3.bmp,ACC029,"[-3, 3, -3]","[-3, 3, 0]","[3, 0, 3]",non-match,0.42686781502901383,1,1.4583104635789508,0.21432139715669873,0.8284294319230991,4th,3rd,4th,1.0600612151037445,0.09171899915754574,1.3302053819890678
mem,resp,682,1,mem3.3.2.bmp,mem3.3.1.bmp,mem3.3.2.bmp,ACC029,"[3, 3, 0]","[3, 3, -3]","[3, 3, 0]",match,1.7113248654051871,,-0.6731559545273683,-0.9971327518558372,0.8688011849843776,1st,1st,4th,-1.0662086281640646,-0.7593502295129888,1.3302053819890678
mem,resp,1408,0,mem3.1.3.bmp,mem3.3.3.bmp,mem2.2.3.bmp,ACC029,"[3, -3, 3]","[3, 3, 3]","[0, 0, 3]",non-match,1.1835034190722742,4,-0.2977158381636622,-0.5370370123283409,0.891201542897808,2nd,1st,4th,-0.23381933107408562,-0.7593502295129888,1.3302053819890678
mem,resp,820,1,mem2.2.2.bmp,mem1.2.2.bmp,mem2.2.2.bmp,ACC029,"[0, 0, 0]","[-3, 0, 0]","[0, 0, 0]",match,1.7113248654051871,,-0.2047874559940136,0.4450504500225227,0.6222949897039881,2nd,4th,4th,-0.23381933107408562,0.8331729013036544,1.3302053819890678
mem,resp,674,1,mem2.1.3.bmp,mem1.3.3.bmp,mem2.1.3.bmp,ACC029,"[0, -3, 3]","[-3, 3, 3]","[0, -3, 3]",match,1.3545027756320973,,0.15888016258641777,-0.7374028856489507,0.9653089907246195,3rd,1st,4th,0.24320953797405992,-0.7593502295129888,1.3302053819890678
mem,resp,887,1,mem2.3.1.bmp,mem2.3.2.bmp,mem2.3.1.bmp,ACC029,"[0, 3, -3]","[0, 3, 0]","[0, 3, -3]",match,1.7113248654051871,,0.014916770706573825,0.024876949153155074,1.0454723010549003,3rd,3rd,4th,0.24320953797405992,0.09171899915754574,1.3302053819890678
mem,resp,1273,1,mem1.3.2.bmp,mem2.3.3.bmp,mem1.3.2.bmp,ACC029,"[-3, 3, 0]","[0, 3, 3]","[-3, 3, 0]",match,1.591751709536137,,-0.5245199685914413,0.6430213589786147,0.9792947300101527,1st,4th,4th,-1.0662086281640646,0.8331729013036544,1.3302053819890678
mem,resp,791,0,mem1.2.1.bmp,mem2.2.2.bmp,mem1.1.1.bmp,ACC029,"[-3, 0, -3]","[0, 0, 0]","[-3, -3, -3]",non-match,1.2113248654051871,4,-0.1302906527075865,-0.47693680472737315,0.4220428731689823,2nd,1st,3rd,-0.23381933107408562,-0.7593502295129888,0.251154532393922
mem,resp,924,1,mem1.1.3.bmp,mem3.3.2.bmp,mem3.3.2.bmp,ACC029,"[-3, -3, 3]","[3, 3, 0]","[3, 3, 0]",match,1.1339745962155614,,-1.0804181298929116,0.04086215204120839,0.34446076781709534,1st,3rd,3rd,-1.0662086281640646,0.09171899915754574,0.251154532393922
mem,resp,827,1,mem2.1.1.bmp,mem3.2.1.bmp,mem3.2.1.bmp,ACC029,"[0, -3, -3]","[3, 0, -3]","[3, 0, -3]",match,1.591751709536137,,0.5886316383492061,-0.28052132398194685,0.04506999727011271,4th,2nd,3rd,1.0600612151037445,-0.16431875095944443,0.251154532393922
mem,resp,746,1,mem3.1.2.bmp,mem1.2.3.bmp,mem1.3.3.bmp,ACC029,"[3, -3, 0]","[-3, 0, 3]","[-3, 3, 3]",non-match,0.8452994616207485,2,0.2629396880640897,-0.5147173760102788,0.08186896851378159,3rd,1st,3rd,0.24320953797405992,-0.7593502295129888,0.251154532393922
mem,resp,850,1,mem3.3.3.bmp,mem2.3.1.bmp,mem3.3.3.bmp,ACC029,"[3, 3, 3]","[0, 3, -3]","[3, 3, 3]",match,1.3545027756320973,,-0.3630360295679212,-0.3369798859982246,0.046523913215391094,2nd,1st,3rd,-0.23381933107408562,-0.7593502295129888,0.251154532393922
mem,resp,651,1,mem3.2.3.bmp,mem3.1.3.bmp,mem3.2.3.bmp,ACC029,"[3, 0, 3]","[3, -3, 3]","[3, 0, 3]",match,1.7113248654051871,,0.8564814787845697,0.08947040365182563,0.08788737170649064,4th,3rd,3rd,1.0600612151037445,0.09171899915754574,0.251154532393922
mem,resp,684,1,mem2.2.1.bmp,mem3.1.1.bmp,mem1.2.1.bmp,ACC029,"[0, 0, -3]","[3, -3, -3]","[-3, 0, -3]",non-match,1.0658276410372842,3,1.5901808363344108,0.031514326188856426,-0.09076581079528939,4th,3rd,2nd,1.0600612151037445,0.09171899915754574,-0.3775191833173837
mem,resp,806,1,mem1.1.1.bmp,mem2.2.2.bmp,mem1.1.1.bmp,ACC029,"[-3, -3, -3]","[0, 0, 0]","[-3, -3, -3]",match,1.5,,0.11423958211353964,0.31508870699009983,-0.14201233313754155,3rd,4th,2nd,0.24320953797405992,0.8331729013036544,-0.3775191833173837
mem,resp,749,1,mem1.1.2.bmp,mem1.2.3.bmp,mem1.1.2.bmp,ACC029,"[-3, -3, 0]","[-3, 0, 3]","[-3, -3, 0]",match,1.591751709536137,,-0.3918745798273129,-0.11204508473751018,-0.010376465806103973,2nd,2nd,3rd,-0.23381933107408562,-0.16431875095944443,0.251154532393922
mem,resp,993,0,mem2.3.2.bmp,mem2.2.3.bmp,mem2.3.2.bmp,ACC029,"[0, 3, 0]","[0, 0, 3]","[0, 3, 0]",match,1.591751709536137,,0.17887863262304513,-0.511443592371543,-0.41664775966489026,3rd,1st,2nd,0.24320953797405992,-0.7593502295129888,-0.3775191833173837
mem,resp,917,0,mem1.3.3.bmp,mem2.1.2.bmp,mem1.2.2.bmp,ACC029,"[-3, 3, 3]","[0, -3, 0]","[-3, 0, 0]",non-match,1.1835034190722742,4,0.20827190199116355,-0.09802275783652882,-0.2877417468653722,3rd,2nd,2nd,0.24320953797405992,-0.16431875095944443,-0.3775191833173837
mem,resp,763,1,mem3.1.1.bmp,mem3.2.2.bmp,mem3.1.1.bmp,ACC029,"[3, -3, -3]","[3, 0, 0]","[3, -3, -3]",match,1.591751709536137,,0.2544576684255358,-0.7806021145105171,-0.220087182839042,3rd,1st,2nd,0.24320953797405992,-0.7593502295129888,-0.3775191833173837
mem,resp,754,1,mem2.3.3.bmp,mem2.3.1.bmp,mem1.1.1.bmp,ACC029,"[0, 3, 3]","[0, 3, -3]","[-3, -3, -3]",non-match,0.4884773718476586,1,0.8123373210425048,-0.6898951495310319,0.08799491183078242,4th,1st,3rd,1.0600612151037445,-0.7593502295129888,0.251154532393922
mem,resp,1368,0,mem1.3.2.bmp,mem3.3.3.bmp,mem3.2.3.bmp,ACC029,"[-3, 3, 0]","[3, 3, 3]","[3, 0, 3]",non-match,1.0042180842186395,3,-1.4602517233713934,-0.7067445205251176,0.09956979193471183,1st,1st,3rd,-1.0662086281640646,-0.7593502295129888,0.251154532393922
mem,resp,700,1,mem2.2.2.bmp,mem3.2.1.bmp,mem1.2.1.bmp,ACC029,"[0, 0, 0]","[3, 0, -3]","[-3, 0, -3]",non-match,1.0144014403465114,3,0.48491345726780216,-0.22995355214178767,0.08415601356389674,3rd,2nd,3rd,0.24320953797405992,-0.16431875095944443,0.251154532393922
mem,resp,974,1,mem3.1.2.bmp,mem3.1.3.bmp,mem3.1.3.bmp,ACC029,"[3, -3, 0]","[3, -3, 3]","[3, -3, 3]",match,1.7113248654051871,,-1.041547579318397,-0.14111964474228494,0.1893731522621026,1st,2nd,3rd,-1.0662086281640646,-0.16431875095944443,0.251154532393922
mem,resp,1402,1,mem2.1.2.bmp,mem3.3.2.bmp,mem2.1.2.bmp,ACC029,"[0, -3, 0]","[3, 3, 0]","[0, -3, 0]",match,1.3545027756320973,,-0.5485714792803851,-0.16717872794954966,0.30067046492030286,1st,2nd,3rd,-1.0662086281640646,-0.16431875095944443,0.251154532393922
mem,resp,746,0,mem3.1.1.bmp,mem1.3.3.bmp,mem1.3.2.bmp,ACC029,"[3, -3, -3]","[-3, 3, 3]","[-3, 3, 0]",non-match,0.8452994616207485,2,0.5393667454547436,0.07774801609478524,0.3239819083843302,4th,3rd,3rd,1.0600612151037445,0.09171899915754574,0.251154532393922
mem,resp,977,0,mem3.2.1.bmp,mem2.1.1.bmp,mem3.2.2.bmp,ACC029,"[3, 0, -3]","[0, -3, -3]","[3, 0, 0]",non-match,1.2113248654051871,4,-0.6194593399307571,-0.49520528060689173,0.22304342687782294,1st,1st,3rd,-1.0662086281640646,-0.7593502295129888,0.251154532393922
mem,resp,1529,1,mem3.1.3.bmp,mem1.2.1.bmp,mem2.3.3.bmp,ACC029,"[3, -3, 3]","[-3, 0, -3]","[0, 3, 3]",non-match,0.6473959944455496,1,-0.10553106279521135,-0.30945973363868096,0.2839210244669541,2nd,2nd,3rd,-0.23381933107408562,-0.16431875095944443,0.251154532393922
mem,resp,1113,1,mem3.3.3.bmp,mem1.1.2.bmp,mem3.3.2.bmp,ACC029,"[3, 3, 3]","[-3, -3, 0]","[3, 3, 0]",non-match,0.8948282844774612,2,-0.3034148839018533,0.4327213622612928,0.38632670658654655,2nd,4th,3rd,-0.23381933107408562,0.8331729013036544,0.251154532393922
mem,resp,676,1,mem2.3.2.bmp,mem1.1.3.bmp,mem3.1.1.bmp,ACC029,"[0, 3, 0]","[-3, -3, 3]","[3, -3, -3]",non-match,0.4763966378857265,1,1.4798580974330726,0.004884314460765366,0.24029186409768646,4th,3rd,3rd,1.0600612151037445,0.09171899915754574,0.251154532393922
mem,resp,1443,1,mem1.2.3.bmp,mem2.2.1.bmp,mem1.3.3.bmp,ACC029,"[-3, 0, 3]","[0, 0, -3]","[-3, 3, 3]",non-match,1.0042180842186395,3,0.31186947469210363,1.1853277243488676,0.137770024330753,3rd,4th,3rd,0.24320953797405992,0.8331729013036544,0.251154532393922
mem,resp,945,0,mem1.1.1.bmp,mem1.2.3.bmp,mem2.1.3.bmp,ACC029,"[-3, -3, -3]","[-3, 0, 3]","[0, -3, 3]",non-match,0.9462544851682343,3,-1.0041765982412258,-0.7097570826569377,0.11197019118243236,1st,1st,3rd,-1.0662086281640646,-0.7593502295129888,0.251154532393922
mem,resp,830,0,mem2.3.2.bmp,mem1.3.3.bmp,mem2.2.3.bmp,ACC029,"[0, 3, 0]","[-3, 3, 3]","[0, 0, 3]",non-match,1.1835034190722742,4,-3.3394323196986786,-1.6428764921883898,-0.1648838624743042,1st,1st,2nd,-1.0662086281640646,-0.7593502295129888,-0.3775191833173837
mem,resp,941,1,mem1.1.3.bmp,mem2.2.2.bmp,mem2.2.2.bmp,ACC029,"[-3, -3, 3]","[0, 0, 0]","[0, 0, 0]",match,1.5,,-0.062432629921596955,0.09716463673689536,-0.12619619162804158,2nd,3rd,2nd,-0.23381933107408562,0.09171899915754574,-0.3775191833173837
mem,resp,700,1,mem2.1.2.bmp,mem1.2.1.bmp,mem3.3.1.bmp,ACC029,"[0, -3, 0]","[-3, 0, -3]","[3, 3, -3]",non-match,0.6473959944455496,1,0.41662986202961244,-0.5755870640022268,-0.37220217292375773,3rd,1st,2nd,0.24320953797405992,-0.7593502295129888,-0.3775191833173837
mem,resp,784,1,mem3.2.2.bmp,mem1.1.1.bmp,mem1.1.1.bmp,ACC029,"[3, 0, 0]","[-3, -3, -3]","[-3, -3, -3]",match,1.2928932188134525,,-0.3710366934008807,-0.19243135689098495,-0.6820049022308543,2nd,2nd,2nd,-0.23381933107408562,-0.16431875095944443,-0.3775191833173837
mem,resp,1361,1,mem3.3.2.bmp,mem2.2.3.bmp,mem2.3.1.bmp,ACC029,"[3, 3, 0]","[0, 0, 3]","[0, 3, -3]",non-match,0.9462544851682343,3,0.14570704111010202,0.006220424889344259,-0.6765870779590195,3rd,3rd,2nd,0.24320953797405992,0.09171899915754574,-0.3775191833173837
mem,resp,945,1,mem1.2.2.bmp,mem2.3.2.bmp,mem1.3.1.bmp,ACC029,"[-3, 0, 0]","[0, 3, 0]","[-3, 3, -3]",non-match,1.1835034190722742,4,-0.42569269004918514,-0.14737045234868798,-0.4499842871904308,2nd,2nd,2nd,-0.23381933107408562,-0.16431875095944443,-0.3775191833173837
mem,resp,1242,1,mem3.2.3.bmp,mem2.1.1.bmp,mem2.2.2.bmp,ACC029,"[3, 0, 3]","[0, -3, -3]","[0, 0, 0]",non-match,1.1835034190722742,4,0.881189136742656,1.1562258339477134,-0.38891539808358105,4th,4th,2nd,1.0600612151037445,0.8331729013036544,-0.3775191833173837
mem,resp,713,0,mem3.3.3.bmp,mem3.2.1.bmp,mem3.1.2.bmp,ACC029,"[3, 3, 3]","[3, 0, -3]","[3, -3, 0]",non-match,0.9462544851682343,3,-0.2822379338647292,-0.197642433190055,-0.34727713999486315,2nd,2nd,2nd,-0.23381933107408562,-0.16431875095944443,-0.3775191833173837
mem,resp,1119,1,mem1.3.2.bmp,mem2.3.1.bmp,mem2.3.3.bmp,ACC029,"[-3, 3, 0]","[0, 3, -3]","[0, 3, 3]",non-match,1.0144014403465114,3,0.20563625397753116,0.2293096286993498,-0.2184088892947563,3rd,3rd,2nd,0.24320953797405992,0.09171899915754574,-0.3775191833173837
mem,resp,872,1,mem1.1.2.bmp,mem3.1.3.bmp,mem1.1.2.bmp,ACC029,"[-3, -3, 0]","[3, -3, 3]","[-3, -3, 0]",match,1.3545027756320973,,0.2728928749077592,-0.2955188962929807,-0.47080161240031565,3rd,2nd,2nd,0.24320953797405992,-0.16431875095944443,-0.3775191833173837
mem,resp,666,1,mem1.2.3.bmp,mem3.2.2.bmp,mem3.2.2.bmp,ACC029,"[-3, 0, 3]","[3, 0, 0]","[3, 0, 0]",match,1.3545027756320973,,-0.5997873747685529,-0.7203554384719897,-0.26528673969472427,1st,1st,2nd,-1.0662086281640646,-0.7593502295129888,-0.3775191833173837
mem,resp,727,1,mem3.1.2.bmp,mem3.1.1.bmp,mem3.3.1.bmp,ACC029,"[3, -3, 0]","[3, -3, -3]","[3, 3, -3]",non-match,0.7771525064424715,2,0.4298931950906862,0.13669310795231202,-0.29290880091170457,3rd,3rd,2nd,0.24320953797405992,0.09171899915754574,-0.3775191833173837
mem,resp,900,1,mem2.2.3.bmp,mem2.3.3.bmp,mem2.3.3.bmp,ACC029,"[0, 0, 3]","[0, 3, 3]","[0, 3, 3]",match,1.7113248654051871,,-0.8589343126654049,-0.8837120674322019,-0.30312316718931664,1st,1st,2nd,-1.0662086281640646,-0.7593502295129888,-0.3775191833173837
mem,resp,1672,1,mem1.3.1.bmp,mem1.2.2.bmp,mem2.2.2.bmp,ACC029,"[-3, 3, -3]","[-3, 0, 0]","[0, 0, 0]",non-match,1.2113248654051871,4,-0.40909167943768954,0.6470257463843669,-0.3836709294194948,2nd,4th,2nd,-0.23381933107408562,0.8331729013036544,-0.3775191833173837
mem,resp,776,0,mem1.3.3.bmp,mem2.1.2.bmp,mem3.1.3.bmp,ACC029,"[-3, 3, 3]","[0, -3, 0]","[3, -3, 3]",non-match,0.7752551286084112,2,-1.2184410574849667,0.08337181597462559,-0.17645586690575793,1st,3rd,2nd,-1.0662086281640646,0.09171899915754574,-0.3775191833173837
mem,resp,618,1,mem3.3.1.bmp,mem3.3.3.bmp,mem1.2.3.bmp,ACC029,"[3, 3, -3]","[3, 3, 3]","[-3, 0, 3]",non-match,0.4884773718476586,1,0.8898948671619332,-0.2965451526770354,-0.4921428723433249,4th,2nd,2nd,1.0600612151037445,-0.16431875095944443,-0.3775191833173837
mem,resp,881,0,mem3.1.1.bmp,mem2.2.1.bmp,mem3.2.1.bmp,ACC029,"[3, -3, -3]","[0, 0, -3]","[3, 0, -3]",non-match,1.4226497308103743,4,-0.8817471056254,0.2675941863296707,-0.3531584404309569,1st,4th,2nd,-1.0662086281640646,0.8331729013036544,-0.3775191833173837
mem,resp,814,1,mem1.2.1.bmp,mem3.1.2.bmp,mem3.3.2.bmp,ACC029,"[-3, 0, -3]","[3, -3, 0]","[3, 3, 0]",non-match,0.7155429496238267,2,-0.29166615974645527,-0.8873239393176712,-0.5527044198926555,2nd,1st,2nd,-0.23381933107408562,-0.7593502295129888,-0.3775191833173837
mem,resp,636,1,mem2.1.3.bmp,mem1.3.1.bmp,mem2.1.3.bmp,ACC029,"[0, -3, 3]","[-3, 3, -3]","[0, -3, 3]",match,1.1339745962155614,,0.580444200711952,0.49718882017310967,-0.6723954335792998,4th,4th,2nd,1.0600612151037445,0.8331729013036544,-0.3775191833173837
mem,resp,1001,1,mem2.1.1.bmp,mem1.3.2.bmp,mem1.1.2.bmp,ACC029,"[0, -3, -3]","[-3, 3, 0]","[-3, -3, 0]",non-match,1.0144014403465114,3,-0.35459980131355834,-0.016491826410886357,-0.9851531480302662,2nd,3rd,1st,-0.23381933107408562,0.09171899915754574,-1.2004920039670197
mem,resp,592,1,mem3.2.1.bmp,mem3.3.3.bmp,mem1.1.1.bmp,ACC029,"[3, 0, -3]","[3, 3, 3]","[-3, -3, -3]",non-match,0.3545027756320972,1,1.0981948494899745,0.04995732740652161,-0.9331258336585759,4th,3rd,1st,1.0600612151037445,0.09171899915754574,-1.2004920039670197
mem,resp,1671,1,mem3.1.3.bmp,mem3.3.2.bmp,mem3.3.2.bmp,ACC029,"[3, -3, 3]","[3, 3, 0]","[3, 3, 0]",match,1.3545027756320973,,-1.3831924833932634,-0.1781099351268389,-0.9298414752024626,1st,2nd,1st,-1.0662086281640646,-0.16431875095944443,-1.2004920039670197
mem,resp,957,0,mem2.3.3.bmp,mem3.2.2.bmp,mem3.2.3.bmp,ACC029,"[0, 3, 3]","[3, 0, 0]","[3, 0, 3]",non-match,1.3030765749413242,4,-0.6994357747788973,-1.010338112883236,-1.1825464798055119,1st,1st,1st,-1.0662086281640646,-0.7593502295129888,-1.2004920039670197
mem,resp,749,1,mem2.2.2.bmp,mem1.1.2.bmp,mem1.1.2.bmp,ACC029,"[0, 0, 0]","[-3, -3, 0]","[-3, -3, 0]",match,1.591751709536137,,0.47233612403280256,-0.2825672463190304,-1.135456806362427,3rd,2nd,1st,0.24320953797405992,-0.16431875095944443,-1.2004920039670197
mem,resp,660,1,mem1.2.2.bmp,mem2.2.3.bmp,mem2.2.3.bmp,ACC029,"[-3, 0, 0]","[0, 0, 3]","[0, 0, 3]",match,1.591751709536137,,-0.6920010829938391,-0.23603691782606748,-1.6559315418053093,1st,2nd,1st,-1.0662086281640646,-0.16431875095944443,-1.2004920039670197
mem,resp,611,1,mem1.3.3.bmp,mem1.3.1.bmp,mem3.2.1.bmp,ACC029,"[-3, 3, 3]","[-3, 3, -3]","[3, 0, -3]",non-match,0.4884773718476586,1,1.6012803894466732,0.7641122780641059,-1.9063848822554,4th,4th,1st,1.0600612151037445,0.8331729013036544,-1.2004920039670197
mem,resp,732,1,mem2.3.3.bmp,mem2.3.2.bmp,mem1.3.2.bmp,ACC029,"[0, 3, 3]","[0, 3, 0]","[-3, 3, 0]",non-match,1.3030765749413242,4,1.0149103489994196,-0.4587689583294616,-1.5907212823000276,4th,1st,1st,1.0600612151037445,-0.7593502295129888,-1.2004920039670197
mem,resp,1541,1,mem2.2.2.bmp,mem2.1.3.bmp,mem2.2.2.bmp,ACC029,"[0, 0, 0]","[0, -3, 3]","[0, 0, 0]",match,1.591751709536137,,-0.4967326261908128,0.7605350059415219,-1.3457705505534996,1st,4th,1st,-1.0662086281640646,0.8331729013036544,-1.2004920039670197
mem,resp,1035,1,mem1.1.1.bmp,mem3.2.3.bmp,mem2.1.2.bmp,ACC029,"[-3, -3, -3]","[3, 0, 3]","[0, -3, 0]",non-match,1.091751709536137,4,-0.15793684228182484,0.5934969163713877,-1.4353079612992758,2nd,4th,1st,-0.23381933107408562,0.8331729013036544,-1.2004920039670197
mem,resp,1018,1,mem2.2.3.bmp,mem3.1.3.bmp,mem3.1.3.bmp,ACC029,"[0, 0, 3]","[3, -3, 3]","[3, -3, 3]",match,1.591751709536137,,-0.38036684818736405,-0.26031459541867713,-1.152385031237885,2nd,2nd,1st,-0.23381933107408562,-0.16431875095944443,-1.2004920039670197
mem,resp,1278,0,mem3.2.2.bmp,mem1.3.2.bmp,mem1.3.3.bmp,ACC029,"[3, 0, 0]","[-3, 3, 0]","[-3, 3, 3]",non-match,1.0042180842186395,3,0.007502554992489548,12.650410531633971,-1.4942577345992165,3rd,4th,1st,0.24320953797405992,0.8331729013036544,-1.2004920039670197
mem,resp,780,1,mem3.1.2.bmp,mem2.3.1.bmp,mem3.1.2.bmp,ACC029,"[3, -3, 0]","[0, 3, -3]","[3, -3, 0]",match,1.2928932188134525,,-0.00155879085384814,-0.5607984740860412,-1.3971043437013255,3rd,1st,1st,0.24320953797405992,-0.7593502295129888,-1.2004920039670197
mem,resp,913,1,mem1.2.3.bmp,mem3.1.1.bmp,mem1.3.1.bmp,ACC029,"[-3, 0, 3]","[3, -3, -3]","[-3, 3, -3]",non-match,0.5380061947043713,1,-0.39007915822964784,0.220571478258894,-1.5409523516693995,2nd,3rd,1st,-0.23381933107408562,0.09171899915754574,-1.2004920039670197
mem,resp,1029,0,mem3.3.2.bmp,mem1.1.3.bmp,mem2.1.1.bmp,ACC029,"[3, 3, 0]","[-3, -3, 3]","[0, -3, -3]",non-match,0.6473959944455496,1,-0.6059762734292483,-0.016319160577556828,-1.238365076489127,1st,3rd,1st,-1.0662086281640646,0.09171899915754574,-1.2004920039670197
mem,resp,819,1,mem1.2.1.bmp,mem2.1.2.bmp,mem2.2.3.bmp,ACC029,"[-3, 0, -3]","[0, -3, 0]","[0, 0, 3]",non-match,0.9462544851682343,3,-0.17168215906156428,0.11883099874174799,-0.9678107515992214,2nd,3rd,1st,-0.23381933107408562,0.09171899915754574,-1.2004920039670197
mem,resp,943,0,mem2.1.3.bmp,mem3.1.1.bmp,mem3.1.1.bmp,ACC029,"[0, -3, 3]","[3, -3, -3]","[3, -3, -3]",match,1.3545027756320973,,0.008330872460323773,-0.0330308676731695,-1.1600821180132137,3rd,2nd,1st,0.24320953797405992,-0.16431875095944443,-1.2004920039670197
mem,resp,582,1,mem3.1.2.bmp,mem2.1.1.bmp,mem2.1.1.bmp,ACC029,"[3, -3, 0]","[0, -3, -3]","[0, -3, -3]",match,1.591751709536137,,0.30435121806547233,-0.5316633461173911,-0.8212852100645172,3rd,1st,1st,0.24320953797405992,-0.7593502295129888,-1.2004920039670197
mem,resp,875,0,mem3.2.1.bmp,mem1.2.2.bmp,mem1.1.2.bmp,ACC029,"[3, 0, -3]","[-3, 0, 0]","[-3, -3, 0]",non-match,1.0042180842186395,3,-0.5989123784136023,-0.2742371317774346,-0.7769267266199275,1st,2nd,1st,-1.0662086281640646,-0.16431875095944443,-1.2004920039670197
mem,resp,637,1,mem2.1.2.bmp,mem1.3.3.bmp,mem2.1.2.bmp,ACC029,"[0, -3, 0]","[-3, 3, 3]","[0, -3, 0]",match,1.2928932188134525,,-0.10151284133724882,0.11770630103756904,-0.8836704234344039,2nd,3rd,1st,-0.23381933107408562,0.09171899915754574,-1.2004920039670197
mem,resp,1022,1,mem3.2.2.bmp,mem3.1.3.bmp,mem3.1.1.bmp,ACC029,"[3, 0, 0]","[3, -3, 3]","[3, -3, -3]",non-match,1.0144014403465114,3,0.8143802585518174,1.1581823443741095,-1.090471513913438,4th,4th,1st,1.0600612151037445,0.8331729013036544,-1.2004920039670197
mem,resp,955,1,mem1.3.2.bmp,mem1.2.3.bmp,mem1.2.3.bmp,ACC029,"[-3, 3, 0]","[-3, 0, 3]","[-3, 0, 3]",match,1.591751709536137,,0.5084234285195456,0.09184866706842923,-1.4168829008673807,3rd,3rd,1st,0.24320953797405992,0.09171899915754574,-1.2004920039670197
mem,resp,1432,0,mem2.1.1.bmp,mem3.3.2.bmp,mem3.3.2.bmp,ACC029,"[0, -3, -3]","[3, 3, 0]","[3, 3, 0]",match,1.2928932188134525,,-0.09045641223939649,0.3916308378087464,-1.291768843282056,2nd,4th,1st,-0.23381933107408562,0.8331729013036544,-1.2004920039670197
mem,resp,704,0,mem2.3.2.bmp,mem3.2.3.bmp,mem3.1.2.bmp,ACC029,"[0, 3, 0]","[3, 0, 3]","[3, -3, 0]",non-match,0.9462544851682343,3,-0.5987389561172752,-0.06994513458171775,-1.417466692302529,1st,2nd,1st,-1.0662086281640646,-0.16431875095944443,-1.2004920039670197
mem,resp,668,1,mem1.1.2.bmp,mem1.1.3.bmp,mem1.1.3.bmp,ACC029,"[-3, -3, 0]","[-3, -3, 3]","[-3, -3, 3]",match,1.7113248654051871,,1.073098315168465,0.5540290563641447,-1.2717737015820203,4th,4th,1st,1.0600612151037445,0.8331729013036544,-1.2004920039670197
mem,resp,811,1,mem2.3.3.bmp,mem2.1.3.bmp,mem2.3.3.bmp,ACC029,"[0, 3, 3]","[0, -3, 3]","[0, 3, 3]",match,1.4226497308103743,,0.5294193519454904,0.6396468507208165,-1.151033661288265,4th,4th,1st,1.0600612151037445,0.8331729013036544,-1.2004920039670197
mem,resp,775,0,mem3.3.2.bmp,mem1.3.2.bmp,mem1.2.1.bmp,ACC029,"[3, 3, 0]","[-3, 3, 0]","[-3, 0, -3]",non-match,0.8846449283495895,2,-0.8560499914448579,-0.2797826421800511,-1.1656793482473602,1st,2nd,1st,-1.0662086281640646,-0.16431875095944443,-1.2004920039670197
mem,resp,906,1,mem2.2.2.bmp,mem2.2.3.bmp,mem2.2.3.bmp,ACC029,"[0, 0, 0]","[0, 0, 3]","[0, 0, 3]",match,1.7113248654051871,,-0.7284973014309297,-0.3971664178669977,-1.464877496564598,1st,1st,1st,-1.0662086281640646,-0.7593502295129888,-1.2004920039670197
mem,resp,941,1,mem1.2.2.bmp,mem3.2.1.bmp,mem1.2.2.bmp,ACC029,"[-3, 0, 0]","[3, 0, -3]","[-3, 0, 0]",match,1.3545027756320973,,0.6131016342118202,0.15190994615227485,-1.682596977831535,4th,3rd,1st,1.0600612151037445,0.09171899915754574,-1.2004920039670197
mem,resp,804,1,mem3.3.1.bmp,mem1.3.1.bmp,mem1.3.1.bmp,ACC029,"[3, 3, -3]","[-3, 3, -3]","[-3, 3, -3]",match,1.4226497308103743,,1.2315336801920085,0.4838217654719082,-1.4934435029972513,4th,4th,1st,1.0600612151037445,0.8331729013036544,-1.2004920039670197
mem,resp,858,1,mem3.2.3.bmp,mem3.1.2.bmp,mem3.2.3.bmp,ACC029,"[3, 0, 3]","[3, -3, 0]","[3, 0, 3]",match,1.591751709536137,,-0.537359798694348,-0.08953829574626512,-1.3692801502713685,1st,2nd,1st,-1.0662086281640646,-0.16431875095944443,-1.2004920039670197
mem,resp,679,1,mem3.1.1.bmp,mem3.3.3.bmp,mem3.1.1.bmp,ACC029,"[3, -3, -3]","[3, 3, 3]","[3, -3, -3]",match,1.1835034190722742,,0.6966241924252632,0.165419015128335,-1.438462547428509,4th,3rd,1st,1.0600612151037445,0.09171899915754574,-1.2004920039670197
mem,resp,1186,1,mem1.2.1.bmp,mem1.1.1.bmp,mem1.2.3.bmp,ACC029,"[-3, 0, -3]","[-3, -3, -3]","[-3, 0, 3]",non-match,0.7771525064424715,2,-0.7884450639723463,0.08953883342909019,-1.361459566755498,1st,3rd,1st,-1.0662086281640646,0.09171899915754574,-1.2004920039670197
mem,resp,708,1,mem2.3.1.bmp,mem1.1.2.bmp,mem1.1.2.bmp,ACC029,"[0, 3, -3]","[-3, -3, 0]","[-3, -3, 0]",match,1.2928932188134525,,0.25171455947373417,0.42646757944718283,-1.319081995530806,3rd,4th,1st,0.24320953797405992,0.8331729013036544,-1.2004920039670197
mem,resp,629,1,mem3.1.3.bmp,mem3.3.1.bmp,mem3.1.3.bmp,ACC029,"[3, -3, 3]","[3, 3, -3]","[3, -3, 3]",match,1.1835034190722742,,0.6893141587989262,0.021126907410925478,-1.1140894661274678,4th,3rd,1st,1.0600612151037445,0.09171899915754574,-1.2004920039670197
mem,resp,925,1,mem2.2.1.bmp,mem2.3.3.bmp,mem1.3.1.bmp,ACC029,"[0, 0, -3]","[0, 3, 3]","[-3, 3, -3]",non-match,0.9462544851682343,3,0.5308730488781375,0.8544552903821828,-0.9920351582701437,4th,4th,1st,1.0600612151037445,0.8331729013036544,-1.2004920039670197
mem,resp,723,1,mem3.3.3.bmp,mem2.2.2.bmp,mem3.3.3.bmp,ACC029,"[3, 3, 3]","[0, 0, 0]","[3, 3, 3]",match,1.5,,-0.07220283574833718,-0.11404893902143225,-0.9745631442507694,2nd,2nd,1st,-0.23381933107408562,-0.16431875095944443,-1.2004920039670197
mem,resp,684,1,mem1.1.1.bmp,mem1.2.1.bmp,mem3.2.3.bmp,ACC029,"[-3, -3, -3]","[-3, 0, -3]","[3, 0, 3]",non-match,0.3174780152878355,1,-0.007895753283632439,0.015026797534433523,-1.101989969677403,2nd,3rd,1st,-0.23381933107408562,0.09171899915754574,-1.2004920039670197
mem,resp,726,1,mem1.2.3.bmp,mem3.3.1.bmp,mem3.3.1.bmp,ACC029,"[-3, 0, 3]","[3, 3, -3]","[3, 3, -3]",match,1.1339745962155614,,0.6810786103022488,-0.3113014218048442,-1.2512297689757321,4th,2nd,1st,1.0600612151037445,-0.16431875095944443,-1.2004920039670197
mem,resp,1171,1,mem1.1.3.bmp,mem3.3.2.bmp,mem1.1.3.bmp,ACC029,"[-3, -3, 3]","[3, 3, 0]","[-3, -3, 3]",match,1.1339745962155614,,-0.6560151898935914,0.20853492952524139,-1.3472973401343797,1st,3rd,1st,-1.0662086281640646,0.09171899915754574,-1.2004920039670197
mem,resp,725,1,mem2.2.3.bmp,mem2.1.1.bmp,mem2.2.3.bmp,ACC029,"[0, 0, 3]","[0, -3, -3]","[0, 0, 3]",match,1.3545027756320973,,0.2834618202671389,-0.40900399093637496,-1.3506859153306514,3rd,1st,1st,0.24320953797405992,-0.7593502295129888,-1.2004920039670197
mem,resp,577,0,mem1.3.3.bmp,mem2.3.1.bmp,mem1.3.2.bmp,ACC029,"[-3, 3, 3]","[0, 3, -3]","[-3, 3, 0]",non-match,1.3030765749413242,4,0.5566184332743733,0.7786593139801377,-1.3438343204194467,4th,4th,1st,1.0600612151037445,0.8331729013036544,-1.2004920039670197
mem,resp,516,1,mem1.3.3.bmp,mem1.1.1.bmp,mem1.1.1.bmp,ACC029,"[-3, 3, 3]","[-3, -3, -3]","[-3, -3, -3]",match,1.1835034190722742,,0.34835862024227054,-0.14464322474438668,-1.663509153316508,3rd,2nd,1st,0.24320953797405992,-0.16431875095944443,-1.2004920039670197
mem,resp,808,0,mem2.3.2.bmp,mem3.2.1.bmp,mem2.3.3.bmp,ACC029,"[0, 3, 0]","[3, 0, -3]","[0, 3, 3]",non-match,1.0042180842186395,3,-0.4404089412958952,-0.13070017329062522,-1.7311278572902438,2nd,2nd,1st,-0.23381933107408562,-0.16431875095944443,-1.2004920039670197
mem,resp,991,1,mem1.3.1.bmp,mem3.1.1.bmp,mem1.1.3.bmp,ACC029,"[-3, 3, -3]","[3, -3, -3]","[-3, -3, 3]",non-match,0.36700683814454815,1,-1.1308324039835813,-0.45674720090613896,-1.7230473590719648,1st,1st,1st,-1.0662086281640646,-0.7593502295129888,-1.2004920039670197
mem,resp,725,1,mem2.2.1.bmp,mem2.1.2.bmp,mem3.3.1.bmp,ACC029,"[0, 0, -3]","[0, -3, 0]","[3, 3, -3]",non-match,0.8846449283495895,2,-0.2680605812941231,0.05597638017071315,-1.60274835887348,2nd,3rd,1st,-0.23381933107408562,0.09171899915754574,-1.2004920039670197
mem,resp,806,1,mem3.2.2.bmp,mem1.1.2.bmp,mem2.3.1.bmp,ACC029,"[3, 0, 0]","[-3, -3, 0]","[0, 3, -3]",non-match,0.7928932188134524,2,-0.24061738990889545,-0.03044776466547267,-1.6864578557878203,2nd,2nd,1st,-0.23381933107408562,-0.16431875095944443,-1.2004920039670197
mem,resp,930,1,mem3.3.2.bmp,mem1.2.3.bmp,mem1.2.3.bmp,ACC029,"[3, 3, 0]","[-3, 0, 3]","[-3, 0, 3]",match,1.2928932188134525,,-0.8078692169858372,-0.06931058504957234,-1.5236951692444156,1st,2nd,1st,-1.0662086281640646,-0.16431875095944443,-1.2004920039670197
mem,resp,751,1,mem2.2.2.bmp,mem3.3.3.bmp,mem2.2.2.bmp,ACC029,"[0, 0, 0]","[3, 3, 3]","[0, 0, 0]",match,1.5,,0.7556844254397695,0.06939868378712745,-1.667440080694565,4th,3rd,1st,1.0600612151037445,0.09171899915754574,-1.2004920039670197
mem,resp,734,0,mem1.2.1.bmp,mem2.1.3.bmp,mem1.1.1.bmp,ACC029,"[-3, 0, -3]","[0, -3, 3]","[-3, -3, -3]",non-match,1.0658276410372842,3,0.702032947356259,0.23714968155750835,-1.518944819401795,4th,4th,1st,1.0600612151037445,0.8331729013036544,-1.2004920039670197
mem,resp,595,1,mem3.2.3.bmp,mem3.1.2.bmp,mem1.3.1.bmp,ACC029,"[3, 0, 3]","[3, -3, 0]","[-3, 3, -3]",non-match,0.2679491924311228,1,1.9013884814495594,0.18708343978863426,-1.921166414491302,4th,3rd,1st,1.0600612151037445,0.09171899915754574,-1.2004920039670197
mem,resp,778,1,mem3.2.1.bmp,mem3.1.3.bmp,mem3.1.3.bmp,ACC029,"[3, 0, -3]","[3, -3, 3]","[3, -3, 3]",match,1.3545027756320973,,0.8373733786841786,0.3213204871053524,-1.3883508745878594,4th,4th,1st,1.0600612151037445,0.8331729013036544,-1.2004920039670197
mem,resp,719,1,mem1.2.2.bmp,mem2.2.3.bmp,mem2.2.1.bmp,ACC029,"[-3, 0, 0]","[0, 0, 3]","[0, 0, -3]",non-match,1.0144014403465114,3,0.5377132199061012,-0.5486135887611525,-1.5240707649497554,4th,1st,1st,1.0600612151037445,-0.7593502295129888,-1.2004920039670197
mem,resp,933,0,mem2.1.2.bmp,mem1.3.2.bmp,mem1.1.2.bmp,ACC029,"[0, -3, 0]","[-3, 3, 0]","[-3, -3, 0]",non-match,1.1339745962155614,4,-0.5834507962060221,-0.8379357984135282,-1.5270061551044438,1st,1st,1st,-1.0662086281640646,-0.7593502295129888,-1.2004920039670197
