mode,type,rt,acc,item_1,item_2,item_cue,subj_idx,item_1_number,item_2_number,item_cue_number,trial_type,summed_similarity,similarity_bin,ams,pams,slps,ams_quantile,pams_quantile,slps_quantile,ams_bin,pam_bin,slp_bin
mem,resp,902,1,mem3.2.1.bmp,mem3.1.2.bmp,mem1.2.2.bmp,ACC021,"[3, 0, -3]","[3, -3, 0]","[-3, 0, 0]",non-match,0.7090055512641944,2,-0.4923115660363468,0.24260136757921746,-0.5726843005135348,2nd,3rd,2nd,-0.3101190109529018,0.3226610708618323,-0.4573481618368974
mem,resp,546,1,mem2.3.2.bmp,mem3.3.3.bmp,mem3.3.3.bmp,ACC021,"[0, 3, 0]","[3, 3, 3]","[3, 3, 3]",match,1.591751709536137,,1.0719216952638602,1.0152183738523308,-0.33956003269113055,4th,4th,2nd,1.2634827095797752,1.2395150756953726,-0.4573481618368974
mem,resp,1103,1,mem2.2.3.bmp,mem1.2.1.bmp,mem2.2.3.bmp,ACC021,"[0, 0, 3]","[-3, 0, -3]","[0, 0, 3]",match,1.3545027756320973,,-1.5252223044306397,-1.8826818816642616,-0.6731292358252493,1st,1st,2nd,-1.2482734177317008,-1.2713263653469988,-0.4573481618368974
mem,resp,628,1,mem3.2.2.bmp,mem1.3.2.bmp,mem2.2.1.bmp,ACC021,"[3, 0, 0]","[-3, 3, 0]","[0, 0, -3]",non-match,1.091751709536137,4,-0.6311648703474998,-1.0524738855616396,-0.38239531280978223,1st,1st,2nd,-1.2482734177317008,-1.2713263653469988,-0.4573481618368974
mem,resp,822,1,mem1.1.2.bmp,mem2.3.3.bmp,mem2.3.3.bmp,ACC021,"[-3, -3, 0]","[0, 3, 3]","[0, 3, 3]",match,1.2928932188134525,,-0.6602686924260868,-1.656286351997066,-0.5208536027014765,1st,1st,2nd,-1.2482734177317008,-1.2713263653469988,-0.4573481618368974
mem,resp,1041,1,mem1.1.3.bmp,mem1.2.2.bmp,mem1.1.3.bmp,ACC021,"[-3, -3, 3]","[-3, 0, 0]","[-3, -3, 3]",match,1.591751709536137,,-1.4152575712627766,-3.273901559795859,-0.4059822307621404,1st,1st,2nd,-1.2482734177317008,-1.2713263653469988,-0.4573481618368974
mem,resp,807,0,mem1.2.1.bmp,mem1.2.3.bmp,mem1.2.3.bmp,ACC021,"[-3, 0, -3]","[-3, 0, 3]","[-3, 0, 3]",match,1.4226497308103743,,-0.5297646961117018,-0.7464932290950901,-0.1810525875053736,2nd,1st,3rd,-0.3101190109529018,-1.2713263653469988,0.19687695300391736
mem,resp,962,1,mem3.3.2.bmp,mem3.1.3.bmp,mem3.1.3.bmp,ACC021,"[3, 3, 0]","[3, -3, 3]","[3, -3, 3]",match,1.3545027756320973,,-1.8226260363987135,-1.6214406824409795,-0.7676048784652119,1st,1st,1st,-1.2482734177317008,-1.2713263653469988,-1.1293344286936384
mem,resp,663,1,mem2.1.2.bmp,mem2.2.2.bmp,mem2.1.2.bmp,ACC021,"[0, -3, 0]","[0, 0, 0]","[0, -3, 0]",match,1.7113248654051871,,-1.4078924562648727,-1.0632262791764773,-1.1856183732830317,1st,1st,1st,-1.2482734177317008,-1.2713263653469988,-1.1293344286936384
mem,resp,556,0,mem2.3.1.bmp,mem3.1.1.bmp,mem2.3.1.bmp,ACC021,"[0, 3, -3]","[3, -3, -3]","[0, 3, -3]",match,1.3545027756320973,,-0.0973561180081213,0.13797368322691836,-1.1067374729343404,2nd,3rd,1st,-0.3101190109529018,0.3226610708618323,-1.1293344286936384
mem,resp,851,0,mem1.3.1.bmp,mem3.2.2.bmp,mem1.3.1.bmp,ACC021,"[-3, 3, -3]","[3, 0, 0]","[-3, 3, -3]",match,1.2928932188134525,,-2.0181519829709584,-2.4653383262767283,-0.9542220775402321,1st,1st,1st,-1.2482734177317008,-1.2713263653469988,-1.1293344286936384
mem,resp,722,1,mem2.1.3.bmp,mem3.2.3.bmp,mem1.3.3.bmp,ACC021,"[0, -3, 3]","[3, 0, 3]","[-3, 3, 3]",non-match,0.7090055512641944,2,-0.21594371339363552,-0.8420795588488085,-1.1426703627570147,2nd,1st,1st,-0.3101190109529018,-1.2713263653469988,-1.1293344286936384
mem,resp,686,1,mem3.1.3.bmp,mem1.1.1.bmp,mem1.2.1.bmp,ACC021,"[3, -3, 3]","[-3, -3, -3]","[-3, 0, -3]",non-match,0.8452994616207485,2,-0.9187677641691218,-0.24643779297578725,-0.7631855500498157,1st,2nd,1st,-1.2482734177317008,-0.28676546385752394,-1.1293344286936384
mem,resp,609,1,mem3.1.1.bmp,mem2.1.1.bmp,mem2.1.1.bmp,ACC021,"[3, -3, -3]","[0, -3, -3]","[0, -3, -3]",match,1.7113248654051871,,-0.16301155546895701,-0.5741343588401162,-0.7975756870363896,2nd,2nd,1st,-0.3101190109529018,-0.28676546385752394,-1.1293344286936384
mem,resp,792,1,mem3.3.3.bmp,mem2.2.1.bmp,mem2.2.1.bmp,ACC021,"[3, 3, 3]","[0, 0, -3]","[0, 0, -3]",match,1.2928932188134525,,-1.696900605889002,-1.880224555402313,-0.5840241737721836,1st,1st,2nd,-1.2482734177317008,-1.2713263653469988,-0.4573481618368974
mem,resp,786,0,mem3.1.2.bmp,mem1.3.3.bmp,mem2.1.2.bmp,ACC021,"[3, -3, 0]","[-3, 3, 3]","[0, -3, 0]",non-match,1.0042180842186395,3,-0.412930033780787,-0.8559008499870696,-0.40611480228690355,2nd,1st,2nd,-0.3101190109529018,-1.2713263653469988,-0.4573481618368974
mem,resp,1061,1,mem1.3.2.bmp,mem3.2.2.bmp,mem1.1.1.bmp,ACC021,"[-3, 3, 0]","[3, 0, 0]","[-3, -3, -3]",non-match,0.6473959944455496,1,-0.9718048918061687,-1.1500252542024056,-0.4067392763376047,1st,1st,2nd,-1.2482734177317008,-1.2713263653469988,-0.4573481618368974
mem,resp,737,1,mem3.3.1.bmp,mem2.3.1.bmp,mem3.3.1.bmp,ACC021,"[3, 3, -3]","[0, 3, -3]","[3, 3, -3]",match,1.7113248654051871,,-0.6709266371111997,0.3321860922778374,0.047117334813417414,1st,3rd,3rd,-1.2482734177317008,0.3226610708618323,0.19687695300391736
mem,resp,627,1,mem2.3.3.bmp,mem3.1.3.bmp,mem3.1.3.bmp,ACC021,"[0, 3, 3]","[3, -3, 3]","[3, -3, 3]",match,1.3545027756320973,,-0.07471719063446894,-0.7592242529152579,0.08649859989375738,2nd,1st,3rd,-0.3101190109529018,-1.2713263653469988,0.19687695300391736
mem,resp,650,1,mem3.2.3.bmp,mem3.1.1.bmp,mem3.2.3.bmp,ACC021,"[3, 0, 3]","[3, -3, -3]","[3, 0, 3]",match,1.3545027756320973,,-1.7125872794594912,-1.1425626516341945,0.1087099780705215,1st,1st,3rd,-1.2482734177317008,-1.2713263653469988,0.19687695300391736
mem,resp,604,0,mem2.1.1.bmp,mem3.2.1.bmp,mem1.2.1.bmp,ACC021,"[0, -3, -3]","[3, 0, -3]","[-3, 0, -3]",non-match,1.0144014403465114,3,0.95044715409463,1.0138314504079013,0.23475172032034589,4th,4th,3rd,1.2634827095797752,1.2395150756953726,0.19687695300391736
mem,resp,614,0,mem1.3.3.bmp,mem1.1.2.bmp,mem1.3.2.bmp,ACC021,"[-3, 3, 3]","[-3, -3, 0]","[-3, 3, 0]",non-match,1.1339745962155614,4,-0.38732302391724666,1.2218493724882817,0.4662577449657769,2nd,4th,3rd,-0.3101190109529018,1.2395150756953726,0.19687695300391736
mem,resp,616,0,mem1.2.3.bmp,mem3.3.1.bmp,mem1.1.3.bmp,ACC021,"[-3, 0, 3]","[3, 3, -3]","[-3, -3, 3]",non-match,0.7113248654051871,2,-0.9762338408276564,-2.0271677760587843,0.4053854832907261,1st,1st,3rd,-1.2482734177317008,-1.2713263653469988,0.19687695300391736
mem,resp,639,0,mem2.2.1.bmp,mem1.3.1.bmp,mem2.2.3.bmp,ACC021,"[0, 0, -3]","[-3, 3, -3]","[0, 0, 3]",non-match,0.7155429496238267,2,-1.0307896866261874,-0.5397754508607385,0.277663085859497,1st,2nd,3rd,-1.2482734177317008,-0.28676546385752394,0.19687695300391736
mem,resp,700,1,mem1.1.1.bmp,mem3.3.2.bmp,mem3.2.3.bmp,ACC021,"[-3, -3, -3]","[3, 3, 0]","[3, 0, 3]",non-match,0.7257263057516985,2,-1.6798471052565622,0.041279231979358566,0.11839916704584355,1st,3rd,3rd,-1.2482734177317008,0.3226610708618323,0.19687695300391736
mem,resp,624,1,mem2.2.2.bmp,mem2.1.3.bmp,mem2.1.3.bmp,ACC021,"[0, 0, 0]","[0, -3, 3]","[0, -3, 3]",match,1.591751709536137,,-0.18339552840170295,-1.0389099436821772,-0.2401914404412973,2nd,1st,2nd,-0.3101190109529018,-1.2713263653469988,-0.4573481618368974
mem,resp,735,0,mem1.2.2.bmp,mem2.3.2.bmp,mem1.2.2.bmp,ACC021,"[-3, 0, 0]","[0, 3, 0]","[-3, 0, 0]",match,1.591751709536137,,-0.5433186286823597,-0.3721123672318446,-0.21735674794674195,2nd,2nd,2nd,-0.3101190109529018,-0.28676546385752394,-0.4573481618368974
mem,resp,727,1,mem3.3.3.bmp,mem1.1.3.bmp,mem3.3.3.bmp,ACC021,"[3, 3, 3]","[-3, -3, 3]","[3, 3, 3]",match,1.1835034190722742,,-0.7841335033234702,-1.3825571671909245,0.28323148136769505,1st,1st,3rd,-1.2482734177317008,-1.2713263653469988,0.19687695300391736
mem,resp,841,1,mem3.3.1.bmp,mem3.2.3.bmp,mem3.2.3.bmp,ACC021,"[3, 3, -3]","[3, 0, 3]","[3, 0, 3]",match,1.3545027756320973,,-1.2119728910429253,-0.4669952701420003,0.29572393963839844,1st,2nd,3rd,-1.2482734177317008,-0.28676546385752394,0.19687695300391736
mem,resp,644,0,mem1.1.2.bmp,mem2.2.1.bmp,mem3.1.3.bmp,ACC021,"[-3, -3, 0]","[0, 0, -3]","[3, -3, 3]",non-match,0.6473959944455496,1,-0.7715854497422862,-1.1884921035314848,-0.05361412139128642,1st,1st,3rd,-1.2482734177317008,-1.2713263653469988,0.19687695300391736
mem,resp,547,1,mem1.3.2.bmp,mem2.2.3.bmp,mem2.2.3.bmp,ACC021,"[-3, 3, 0]","[0, 0, 3]","[0, 0, 3]",match,1.5,,-0.6791901769295018,-1.535063937910812,-0.39785359062250225,1st,1st,2nd,-1.2482734177317008,-1.2713263653469988,-0.4573481618368974
mem,resp,586,1,mem1.1.3.bmp,mem2.1.2.bmp,mem1.1.3.bmp,ACC021,"[-3, -3, 3]","[0, -3, 0]","[-3, -3, 3]",match,1.591751709536137,,-0.11392403545459284,-1.7910006649795964,-0.11869613911993647,2nd,1st,3rd,-0.3101190109529018,-1.2713263653469988,0.19687695300391736
mem,resp,894,0,mem3.2.3.bmp,mem1.3.3.bmp,mem2.2.2.bmp,ACC021,"[3, 0, 3]","[-3, 3, 3]","[0, 0, 0]",non-match,1.091751709536137,4,-0.8544994962112985,-0.7962481665136664,-0.017007150391152394,1st,1st,3rd,-1.2482734177317008,-1.2713263653469988,0.19687695300391736
mem,resp,645,1,mem1.2.1.bmp,mem1.2.3.bmp,mem1.2.3.bmp,ACC021,"[-3, 0, -3]","[-3, 0, 3]","[-3, 0, 3]",match,1.4226497308103743,,-0.1877484969842257,-0.8139073026917738,-0.11705412441833743,2nd,1st,3rd,-0.3101190109529018,-1.2713263653469988,0.19687695300391736
mem,resp,688,1,mem1.3.1.bmp,mem1.3.2.bmp,mem1.3.2.bmp,ACC021,"[-3, 3, -3]","[-3, 3, 0]","[-3, 3, 0]",match,1.7113248654051871,,-2.1592090912608457,-1.8145264705115,-0.1763620575253075,1st,1st,3rd,-1.2482734177317008,-1.2713263653469988,0.19687695300391736
mem,resp,640,1,mem3.1.2.bmp,mem3.3.3.bmp,mem1.1.2.bmp,ACC021,"[3, -3, 0]","[3, 3, 3]","[-3, -3, 0]",non-match,0.5566243270259357,1,-0.06546885783773974,-0.06313337183718992,0.06919858176079462,2nd,2nd,3rd,-0.3101190109529018,-0.28676546385752394,0.19687695300391736
mem,resp,743,1,mem3.2.1.bmp,mem3.2.2.bmp,mem3.2.2.bmp,ACC021,"[3, 0, -3]","[3, 0, 0]","[3, 0, 0]",match,1.7113248654051871,,-1.4120929135827238,-0.19594834307122305,-0.02958943642421022,1st,2nd,3rd,-1.2482734177317008,-0.28676546385752394,0.19687695300391736
mem,resp,965,1,mem2.1.1.bmp,mem2.1.3.bmp,mem2.3.1.bmp,ACC021,"[0, -3, -3]","[0, -3, 3]","[0, 3, -3]",non-match,0.6061531498826483,1,-1.0861338596191699,-0.6828140276176615,-0.40455948434767386,1st,1st,2nd,-1.2482734177317008,-1.2713263653469988,-0.4573481618368974
mem,resp,689,1,mem3.1.1.bmp,mem2.3.2.bmp,mem3.1.1.bmp,ACC021,"[3, -3, -3]","[0, 3, 0]","[3, -3, -3]",match,1.2928932188134525,,-0.7017676576841886,-0.9426018346530813,-0.9180465057575743,1st,1st,1st,-1.2482734177317008,-1.2713263653469988,-1.1293344286936384
mem,resp,862,1,mem3.1.3.bmp,mem3.1.2.bmp,mem3.3.1.bmp,ACC021,"[3, -3, 3]","[3, -3, 0]","[3, 3, -3]",non-match,0.5380061947043713,1,-0.48610970280341714,0.36503622552341897,-0.9645722932461532,2nd,3rd,1st,-0.3101190109529018,0.3226610708618323,-1.1293344286936384
mem,resp,769,0,mem2.3.2.bmp,mem1.3.3.bmp,mem2.2.3.bmp,ACC021,"[0, 3, 0]","[-3, 3, 3]","[0, 0, 3]",non-match,1.1835034190722742,4,-2.1151475855616115,-1.655967807204881,-0.923715610601742,1st,1st,1st,-1.2482734177317008,-1.2713263653469988,-1.1293344286936384
mem,resp,700,0,mem1.1.3.bmp,mem2.2.2.bmp,mem2.2.2.bmp,ACC021,"[-3, -3, 3]","[0, 0, 0]","[0, 0, 0]",match,1.5,,-1.4170218389935962,-1.167323528423717,-0.8716111133210958,1st,1st,1st,-1.2482734177317008,-1.2713263653469988,-1.1293344286936384
mem,resp,603,1,mem2.1.2.bmp,mem1.2.1.bmp,mem3.3.1.bmp,ACC021,"[0, -3, 0]","[-3, 0, -3]","[3, 3, -3]",non-match,0.6473959944455496,1,1.1627395455965694,0.9621222142886182,-0.8369167040537968,4th,4th,1st,1.2634827095797752,1.2395150756953726,-1.1293344286936384
mem,resp,490,1,mem3.2.2.bmp,mem1.1.1.bmp,mem1.1.1.bmp,ACC021,"[3, 0, 0]","[-3, -3, -3]","[-3, -3, -3]",match,1.2928932188134525,,0.7223825658184004,0.45198423447527813,-0.8062404764942986,4th,3rd,1st,1.2634827095797752,0.3226610708618323,-1.1293344286936384
mem,resp,751,1,mem3.3.2.bmp,mem2.2.3.bmp,mem2.3.1.bmp,ACC021,"[3, 3, 0]","[0, 0, 3]","[0, 3, -3]",non-match,0.9462544851682343,3,-1.5082943098165054,0.38620524352546953,-0.5348425851643053,1st,3rd,2nd,-1.2482734177317008,0.3226610708618323,-0.4573481618368974
mem,resp,825,1,mem1.2.2.bmp,mem2.3.2.bmp,mem1.3.1.bmp,ACC021,"[-3, 0, 0]","[0, 3, 0]","[-3, 3, -3]",non-match,1.1835034190722742,4,-1.98121783943615,-0.4584718804063485,-0.3730952408376182,1st,2nd,2nd,-1.2482734177317008,-0.28676546385752394,-0.4573481618368974
mem,resp,576,1,mem3.2.3.bmp,mem2.1.1.bmp,mem2.2.2.bmp,ACC021,"[3, 0, 3]","[0, -3, -3]","[0, 0, 0]",non-match,1.1835034190722742,4,-1.1861315868254274,-0.11481204825100734,-0.4497082351607457,1st,2nd,2nd,-1.2482734177317008,-0.28676546385752394,-0.4573481618368974
mem,resp,587,0,mem3.3.3.bmp,mem3.2.1.bmp,mem3.1.2.bmp,ACC021,"[3, 3, 3]","[3, 0, -3]","[3, -3, 0]",non-match,0.9462544851682343,3,-1.3642346573766049,0.02701615379469176,-0.7948233210079859,1st,2nd,1st,-1.2482734177317008,-0.28676546385752394,-1.1293344286936384
mem,resp,1002,0,mem1.3.2.bmp,mem2.3.1.bmp,mem2.3.3.bmp,ACC021,"[-3, 3, 0]","[0, 3, -3]","[0, 3, 3]",non-match,1.0144014403465114,3,-1.006768318550861,-0.07218363968319803,-0.8174095758368464,1st,2nd,1st,-1.2482734177317008,-0.28676546385752394,-1.1293344286936384
mem,resp,754,0,mem1.1.2.bmp,mem3.1.3.bmp,mem1.1.2.bmp,ACC021,"[-3, -3, 0]","[3, -3, 3]","[-3, -3, 0]",match,1.3545027756320973,,-1.4991512552778032,-1.2319570009937386,-0.4338847483772514,1st,1st,2nd,-1.2482734177317008,-1.2713263653469988,-0.4573481618368974
mem,resp,596,1,mem1.2.3.bmp,mem3.2.2.bmp,mem3.2.2.bmp,ACC021,"[-3, 0, 3]","[3, 0, 0]","[3, 0, 0]",match,1.3545027756320973,,-0.904897237410675,0.2221218806126283,-0.2984044801876857,1st,3rd,2nd,-1.2482734177317008,0.3226610708618323,-0.4573481618368974
mem,resp,616,1,mem3.1.2.bmp,mem3.1.1.bmp,mem3.3.1.bmp,ACC021,"[3, -3, 0]","[3, -3, -3]","[3, 3, -3]",non-match,0.7771525064424715,2,0.4335657089890423,0.36088708116503476,-0.28408662971508425,3rd,3rd,2nd,0.29869061293950444,0.3226610708618323,-0.4573481618368974
mem,resp,507,1,mem2.2.3.bmp,mem2.3.3.bmp,mem2.3.3.bmp,ACC021,"[0, 0, 3]","[0, 3, 3]","[0, 3, 3]",match,1.7113248654051871,,-1.7933207665131388,-0.7529767031291249,-0.6463856865037102,1st,1st,2nd,-1.2482734177317008,-1.2713263653469988,-0.4573481618368974
mem,resp,422,1,mem2.2.1.bmp,mem2.1.3.bmp,mem2.2.1.bmp,ACC021,"[0, 0, -3]","[0, -3, 3]","[0, 0, -3]",match,1.3545027756320973,,0.697598157104551,0.25483742935823367,-0.4356504989398351,4th,3rd,2nd,1.2634827095797752,0.3226610708618323,-0.4573481618368974
mem,resp,573,1,mem1.3.1.bmp,mem1.2.2.bmp,mem2.2.2.bmp,ACC021,"[-3, 3, -3]","[-3, 0, 0]","[0, 0, 0]",non-match,1.2113248654051871,4,0.7441907753489853,-0.07960704610744261,-0.6267163566266721,4th,2nd,2nd,1.2634827095797752,-0.28676546385752394,-0.4573481618368974
mem,resp,1016,0,mem1.3.3.bmp,mem2.1.2.bmp,mem3.1.3.bmp,ACC021,"[-3, 3, 3]","[0, -3, 0]","[3, -3, 3]",non-match,0.7752551286084112,2,-1.1825765905214836,-0.7095906131681943,-0.6484711002271253,1st,1st,2nd,-1.2482734177317008,-1.2713263653469988,-0.4573481618368974
mem,resp,800,1,mem2.3.1.bmp,mem3.2.3.bmp,mem2.1.1.bmp,ACC021,"[0, 3, -3]","[3, 0, 3]","[0, -3, -3]",non-match,0.7155429496238267,2,0.31994342625620764,0.5211857463518828,-0.6014989547280294,3rd,3rd,2nd,0.29869061293950444,0.3226610708618323,-0.4573481618368974
mem,resp,573,1,mem3.3.1.bmp,mem3.3.3.bmp,mem1.2.3.bmp,ACC021,"[3, 3, -3]","[3, 3, 3]","[-3, 0, 3]",non-match,0.4884773718476586,1,0.5352076964665212,0.8066155545106384,-0.7265329486849593,3rd,4th,1st,0.29869061293950444,1.2395150756953726,-1.1293344286936384
mem,resp,805,1,mem3.1.1.bmp,mem2.2.1.bmp,mem3.2.1.bmp,ACC021,"[3, -3, -3]","[0, 0, -3]","[3, 0, -3]",non-match,1.4226497308103743,4,0.27755992574956845,-0.9917277791483824,-0.33314245798494146,3rd,1st,2nd,0.29869061293950444,-1.2713263653469988,-0.4573481618368974
mem,resp,698,1,mem1.2.1.bmp,mem3.1.2.bmp,mem3.3.2.bmp,ACC021,"[-3, 0, -3]","[3, -3, 0]","[3, 3, 0]",non-match,0.7155429496238267,2,0.040343482231838076,-0.17143641438958565,-0.4053723451808809,3rd,2nd,2nd,0.29869061293950444,-0.28676546385752394,-0.4573481618368974
mem,resp,770,0,mem2.1.3.bmp,mem1.3.1.bmp,mem2.1.3.bmp,ACC021,"[0, -3, 3]","[-3, 3, -3]","[0, -3, 3]",match,1.1339745962155614,,-0.22291171745434096,-0.3039410274554289,-0.43891459632034296,2nd,2nd,2nd,-0.3101190109529018,-0.28676546385752394,-0.4573481618368974
mem,resp,813,1,mem2.1.1.bmp,mem1.3.2.bmp,mem1.1.2.bmp,ACC021,"[0, -3, -3]","[-3, 3, 0]","[-3, -3, 0]",non-match,1.0144014403465114,3,-0.3858251784970922,-1.2769140577339853,-0.4030521663347891,2nd,1st,2nd,-0.3101190109529018,-1.2713263653469988,-0.4573481618368974
mem,resp,625,1,mem3.2.1.bmp,mem3.3.3.bmp,mem1.1.1.bmp,ACC021,"[3, 0, -3]","[3, 3, 3]","[-3, -3, -3]",non-match,0.3545027756320972,1,0.48872423824359645,-0.5954211590403151,-0.06278901763930013,3rd,2nd,3rd,0.29869061293950444,-0.28676546385752394,0.19687695300391736
mem,resp,1018,1,mem3.1.3.bmp,mem3.3.2.bmp,mem3.3.2.bmp,ACC021,"[3, -3, 3]","[3, 3, 0]","[3, 3, 0]",match,1.3545027756320973,,-1.2839204420051737,-1.1997751675389692,-0.3312347418214216,1st,1st,2nd,-1.2482734177317008,-1.2713263653469988,-0.4573481618368974
mem,resp,812,0,mem2.3.3.bmp,mem3.2.2.bmp,mem3.2.3.bmp,ACC021,"[0, 3, 3]","[3, 0, 0]","[3, 0, 3]",non-match,1.3030765749413242,4,-0.9328087771457869,0.031233946766803515,-0.2584556409436339,1st,3rd,2nd,-1.2482734177317008,0.3226610708618323,-0.4573481618368974
mem,resp,935,1,mem2.2.2.bmp,mem1.1.2.bmp,mem1.1.2.bmp,ACC021,"[0, 0, 0]","[-3, -3, 0]","[-3, -3, 0]",match,1.591751709536137,,-0.24913585610721972,-0.13854354184578,-0.4362528889596215,2nd,2nd,2nd,-0.3101190109529018,-0.28676546385752394,-0.4573481618368974
mem,resp,649,1,mem1.2.2.bmp,mem2.2.3.bmp,mem2.2.3.bmp,ACC021,"[-3, 0, 0]","[0, 0, 3]","[0, 0, 3]",match,1.591751709536137,,-0.8964530877811138,-0.1901340822974573,-0.5263389233141549,1st,2nd,2nd,-1.2482734177317008,-0.28676546385752394,-0.4573481618368974
mem,resp,548,1,mem1.3.3.bmp,mem1.3.1.bmp,mem3.2.1.bmp,ACC021,"[-3, 3, 3]","[-3, 3, -3]","[3, 0, -3]",non-match,0.4884773718476586,1,0.947886299986726,1.2088890678344433,-0.7805996904211177,4th,4th,1st,1.2634827095797752,1.2395150756953726,-1.1293344286936384
mem,resp,719,1,mem2.3.3.bmp,mem2.3.2.bmp,mem1.3.2.bmp,ACC021,"[0, 3, 3]","[0, 3, 0]","[-3, 3, 0]",non-match,1.3030765749413242,4,-0.07605993468583343,-0.816855843694034,-1.1317804737625705,2nd,1st,1st,-0.3101190109529018,-1.2713263653469988,-1.1293344286936384
mem,resp,578,1,mem2.2.2.bmp,mem2.1.3.bmp,mem2.2.2.bmp,ACC021,"[0, 0, 0]","[0, -3, 3]","[0, 0, 0]",match,1.591751709536137,,-1.8983957355240406,0.2143690162042788,-1.3976716656966919,1st,3rd,1st,-1.2482734177317008,0.3226610708618323,-1.1293344286936384
mem,resp,498,0,mem1.1.1.bmp,mem3.2.3.bmp,mem2.1.2.bmp,ACC021,"[-3, -3, -3]","[3, 0, 3]","[0, -3, 0]",non-match,1.091751709536137,4,0.11248000608413296,0.575536016437178,-1.6058354899105785,3rd,3rd,1st,0.29869061293950444,0.3226610708618323,-1.1293344286936384
mem,resp,924,0,mem2.2.3.bmp,mem3.1.3.bmp,mem3.1.3.bmp,ACC021,"[0, 0, 3]","[3, -3, 3]","[3, -3, 3]",match,1.591751709536137,,-0.48213329326128884,-0.8150160885270383,-1.9413874278641716,2nd,1st,1st,-0.3101190109529018,-1.2713263653469988,-1.1293344286936384
mem,resp,643,0,mem3.2.2.bmp,mem1.3.2.bmp,mem1.3.3.bmp,ACC021,"[3, 0, 0]","[-3, 3, 0]","[-3, 3, 3]",non-match,1.0042180842186395,3,-0.4673690593247279,0.6262780821679015,-2.00627805810381,2nd,3rd,1st,-0.3101190109529018,0.3226610708618323,-1.1293344286936384
mem,resp,726,1,mem3.1.2.bmp,mem2.3.1.bmp,mem3.1.2.bmp,ACC021,"[3, -3, 0]","[0, 3, -3]","[3, -3, 0]",match,1.2928932188134525,,-1.220201267437569,-1.0992380962975847,-2.01549061745955,1st,1st,1st,-1.2482734177317008,-1.2713263653469988,-1.1293344286936384
mem,resp,1000,0,mem1.2.3.bmp,mem3.1.1.bmp,mem1.3.1.bmp,ACC021,"[-3, 0, 3]","[3, -3, -3]","[-3, 3, -3]",non-match,0.5380061947043713,1,-1.9571516891390475,-0.8926208273843799,-1.6752475780597247,1st,1st,1st,-1.2482734177317008,-1.2713263653469988,-1.1293344286936384
mem,resp,1105,1,mem3.3.2.bmp,mem1.1.3.bmp,mem2.1.1.bmp,ACC021,"[3, 3, 0]","[-3, -3, 3]","[0, -3, -3]",non-match,0.6473959944455496,1,0.504294538907668,0.04392845948958973,-1.7366239469649827,3rd,3rd,1st,0.29869061293950444,0.3226610708618323,-1.1293344286936384
mem,resp,677,0,mem1.2.1.bmp,mem2.1.2.bmp,mem2.2.3.bmp,ACC021,"[-3, 0, -3]","[0, -3, 0]","[0, 0, 3]",non-match,0.9462544851682343,3,-0.39479494540411914,-0.5337219441319555,-1.4224849463382887,2nd,2nd,1st,-0.3101190109529018,-0.28676546385752394,-1.1293344286936384
mem,resp,643,0,mem2.2.1.bmp,mem1.2.2.bmp,mem3.2.2.bmp,ACC021,"[0, 0, -3]","[-3, 0, 0]","[3, 0, 0]",non-match,1.0144014403465114,3,-0.5028215827126166,-0.2046513264382707,-1.152710592344197,2nd,2nd,1st,-0.3101190109529018,-0.28676546385752394,-1.1293344286936384
mem,resp,620,1,mem3.1.1.bmp,mem3.3.1.bmp,mem3.1.1.bmp,ACC021,"[3, -3, -3]","[3, 3, -3]","[3, -3, -3]",match,1.4226497308103743,,0.5971390271111721,-0.3402311205901655,-1.1954163617652405,3rd,2nd,1st,0.29869061293950444,-0.28676546385752394,-1.1293344286936384
mem,resp,526,1,mem2.3.2.bmp,mem2.2.1.bmp,mem2.3.2.bmp,ACC021,"[0, 3, 0]","[0, 0, -3]","[0, 3, 0]",match,1.591751709536137,,-0.39285936600805177,-1.2645242078357293,-0.7449181038600821,2nd,1st,1st,-0.3101190109529018,-1.2713263653469988,-1.1293344286936384
mem,resp,507,1,mem3.2.3.bmp,mem1.2.3.bmp,mem3.2.3.bmp,ACC021,"[3, 0, 3]","[-3, 0, 3]","[3, 0, 3]",match,1.4226497308103743,,-0.44884921914653236,0.21984053216547556,-0.9238281317296683,2nd,3rd,1st,-0.3101190109529018,0.3226610708618323,-1.1293344286936384
mem,resp,576,1,mem1.1.1.bmp,mem2.2.3.bmp,mem1.1.1.bmp,ACC021,"[-3, -3, -3]","[0, 0, 3]","[-3, -3, -3]",match,1.2928932188134525,,-0.5601929759318097,-0.25121008958910196,-0.6504046629329101,2nd,2nd,2nd,-0.3101190109529018,-0.28676546385752394,-0.4573481618368974
mem,resp,545,0,mem1.3.3.bmp,mem3.2.2.bmp,mem2.2.2.bmp,ACC021,"[-3, 3, 3]","[3, 0, 0]","[0, 0, 0]",non-match,1.2113248654051871,4,0.44264293538206506,-0.08558595283058268,-0.7074138920582085,3rd,2nd,2nd,0.29869061293950444,-0.28676546385752394,-0.4573481618368974
mem,resp,725,1,mem1.1.3.bmp,mem2.3.2.bmp,mem2.1.1.bmp,ACC021,"[-3, -3, 3]","[0, 3, 0]","[0, -3, -3]",non-match,0.7090055512641944,2,0.3387390898106064,-0.36117202035603596,-0.8940718906096078,3rd,2nd,1st,0.29869061293950444,-0.28676546385752394,-1.1293344286936384
mem,resp,619,0,mem2.1.2.bmp,mem2.3.1.bmp,mem2.3.1.bmp,ACC021,"[0, -3, 0]","[0, 3, -3]","[0, 3, -3]",match,1.3545027756320973,,-0.5038176424419383,-0.5239974804650042,-0.4950001009256502,2nd,2nd,2nd,-0.3101190109529018,-0.28676546385752394,-0.4573481618368974
mem,resp,560,1,mem2.1.3.bmp,mem3.1.3.bmp,mem3.3.3.bmp,ACC021,"[0, -3, 3]","[3, -3, 3]","[3, 3, 3]",non-match,0.7771525064424715,2,-0.6315963034866559,-0.5179151025652063,-0.10648704004954428,1st,2nd,3rd,-1.2482734177317008,-0.28676546385752394,0.19687695300391736
mem,resp,641,0,mem3.1.2.bmp,mem1.1.1.bmp,mem1.2.3.bmp,ACC021,"[3, -3, 0]","[-3, -3, -3]","[-3, 0, 3]",non-match,0.6473959944455496,1,0.005437561907990461,0.8703036415546016,-0.1366171823144816,3rd,4th,3rd,0.29869061293950444,1.2395150756953726,0.19687695300391736
mem,resp,550,1,mem1.1.2.bmp,mem3.2.1.bmp,mem2.2.1.bmp,ACC021,"[-3, -3, 0]","[3, 0, -3]","[0, 0, -3]",non-match,1.2113248654051871,4,0.17291192876518732,-1.5549600483351274,-0.07906325319959627,3rd,1st,3rd,0.29869061293950444,-1.2713263653469988,0.19687695300391736
mem,resp,540,1,mem2.2.2.bmp,mem1.3.3.bmp,mem1.3.3.bmp,ACC021,"[0, 0, 0]","[-3, 3, 3]","[-3, 3, 3]",match,1.5,,0.7513802618717879,0.409472417827234,-0.03430860726028959,4th,3rd,3rd,1.2634827095797752,0.3226610708618323,0.19687695300391736
mem,resp,549,1,mem1.3.1.bmp,mem1.1.3.bmp,mem2.1.1.bmp,ACC021,"[-3, 3, -3]","[-3, -3, 3]","[0, -3, -3]",non-match,0.7090055512641944,2,0.829395331085827,-0.3267303741885819,0.2027852009786937,4th,2nd,3rd,1.2634827095797752,-0.28676546385752394,0.19687695300391736
mem,resp,730,0,mem2.2.3.bmp,mem3.3.1.bmp,mem2.3.2.bmp,ACC021,"[0, 0, 3]","[3, 3, -3]","[0, 3, 0]",non-match,1.1835034190722742,4,-0.4877579597806465,-0.38406879663349297,-0.03905018977824003,2nd,2nd,3rd,-0.3101190109529018,-0.28676546385752394,0.19687695300391736
mem,resp,449,1,mem1.2.2.bmp,mem1.2.1.bmp,mem1.2.1.bmp,ACC021,"[-3, 0, 0]","[-3, 0, -3]","[-3, 0, -3]",match,1.7113248654051871,,0.08907907491243534,0.41890241215836665,-0.11250798345743926,3rd,3rd,3rd,0.29869061293950444,0.3226610708618323,0.19687695300391736
mem,resp,820,1,mem3.2.2.bmp,mem1.1.2.bmp,mem3.2.3.bmp,ACC021,"[3, 0, 0]","[-3, -3, 0]","[3, 0, 3]",non-match,1.0042180842186395,3,-0.7678464423849192,-0.8778711467881364,-0.3886784435766587,1st,1st,2nd,-1.2482734177317008,-1.2713263653469988,-0.4573481618368974
mem,resp,581,1,mem1.3.2.bmp,mem2.3.3.bmp,mem3.3.2.bmp,ACC021,"[-3, 3, 0]","[0, 3, 3]","[3, 3, 0]",non-match,1.0144014403465114,3,0.15906068856259623,0.690321647235044,-0.6244149099707175,3rd,4th,2nd,0.29869061293950444,1.2395150756953726,-0.4573481618368974
mem,resp,572,1,mem3.3.1.bmp,mem1.3.1.bmp,mem1.3.1.bmp,ACC021,"[3, 3, -3]","[-3, 3, -3]","[-3, 3, -3]",match,1.4226497308103743,,0.20134968457849606,1.0370529512368232,-1.107833839089632,3rd,4th,1st,0.29869061293950444,1.2395150756953726,-1.1293344286936384
mem,resp,673,1,mem3.3.3.bmp,mem3.1.2.bmp,mem3.1.2.bmp,ACC021,"[3, 3, 3]","[3, -3, 0]","[3, -3, 0]",match,1.3545027756320973,,0.0025379276259324146,-0.23248186197576415,-1.689345290620799,3rd,2nd,1st,0.29869061293950444,-0.28676546385752394,-1.1293344286936384
mem,resp,603,1,mem3.1.1.bmp,mem2.1.2.bmp,mem1.1.3.bmp,ACC021,"[3, -3, -3]","[0, -3, 0]","[-3, -3, 3]",non-match,0.7752551286084112,2,1.031992789993501,-0.587358573124307,-1.8358011395361904,4th,2nd,1st,1.2634827095797752,-0.28676546385752394,-1.1293344286936384
mem,resp,644,1,mem2.2.1.bmp,mem2.2.2.bmp,mem2.2.1.bmp,ACC021,"[0, 0, -3]","[0, 0, 0]","[0, 0, -3]",match,1.7113248654051871,,-0.6854547927330749,-0.08276549131853075,-1.4205873776074776,1st,2nd,1st,-1.2482734177317008,-0.28676546385752394,-1.1293344286936384
mem,resp,657,1,mem3.2.1.bmp,mem3.3.2.bmp,mem3.2.1.bmp,ACC021,"[3, 0, -3]","[3, 3, 0]","[3, 0, -3]",match,1.591751709536137,,-0.7397557980754463,-0.909170873237404,-0.904148497038291,1st,1st,1st,-1.2482734177317008,-1.2713263653469988,-1.1293344286936384
mem,resp,938,0,mem2.3.1.bmp,mem3.2.3.bmp,mem2.1.3.bmp,ACC021,"[0, 3, -3]","[3, 0, 3]","[0, -3, 3]",non-match,0.7752551286084112,2,-1.0514588322974325,0.14600678899227346,-1.0350294916316207,1st,3rd,1st,-1.2482734177317008,0.3226610708618323,-1.1293344286936384
mem,resp,672,1,mem1.2.3.bmp,mem2.1.1.bmp,mem2.1.1.bmp,ACC021,"[-3, 0, 3]","[0, -3, -3]","[0, -3, -3]",match,1.2928932188134525,,0.6070806444504308,-0.9131154557992386,-1.200671599594024,3rd,1st,1st,0.29869061293950444,-1.2713263653469988,-1.1293344286936384
mem,resp,583,1,mem1.2.1.bmp,mem1.3.2.bmp,mem1.2.1.bmp,ACC021,"[-3, 0, -3]","[-3, 3, 0]","[-3, 0, -3]",match,1.591751709536137,,-1.5512324098224561,-0.11831047018540089,-1.3437937030962712,1st,2nd,1st,-1.2482734177317008,-0.28676546385752394,-1.1293344286936384
mem,resp,796,0,mem2.3.3.bmp,mem1.3.1.bmp,mem2.2.3.bmp,ACC021,"[0, 3, 3]","[-3, 3, -3]","[0, 0, 3]",non-match,1.0042180842186395,3,-1.7105028501578663,-1.7446770994532355,-1.2449213475292398,1st,1st,1st,-1.2482734177317008,-1.2713263653469988,-1.1293344286936384
mem,resp,665,1,mem3.3.2.bmp,mem2.2.1.bmp,mem3.3.3.bmp,ACC021,"[3, 3, 0]","[0, 0, -3]","[3, 3, 3]",non-match,1.0042180842186395,3,-0.41663057962173666,0.2611024457876172,-0.8698907384709894,2nd,3rd,1st,-0.3101190109529018,0.3226610708618323,-1.1293344286936384
mem,resp,666,0,mem2.1.1.bmp,mem1.1.3.bmp,mem1.2.3.bmp,ACC021,"[0, -3, -3]","[-3, -3, 3]","[-3, 0, 3]",non-match,1.0042180842186395,3,0.09535928074178232,0.887084407647713,-1.0190780829864372,3rd,4th,1st,0.29869061293950444,1.2395150756953726,-1.1293344286936384
mem,resp,1119,1,mem3.1.3.bmp,mem3.1.1.bmp,mem3.1.3.bmp,ACC021,"[3, -3, 3]","[3, -3, -3]","[3, -3, 3]",match,1.4226497308103743,,-1.4822290826962448,-0.3638681669792782,-0.6891896357829451,1st,2nd,2nd,-1.2482734177317008,-0.28676546385752394,-0.4573481618368974
mem,resp,591,1,mem3.2.2.bmp,mem2.2.2.bmp,mem2.2.3.bmp,ACC021,"[3, 0, 0]","[0, 0, 0]","[0, 0, 3]",non-match,1.3030765749413242,4,-0.4512652267249136,0.07328459974359913,-0.6250231018727987,2nd,3rd,2nd,-0.3101190109529018,0.3226610708618323,-0.4573481618368974
mem,resp,612,1,mem2.2.1.bmp,mem3.2.3.bmp,mem1.2.2.bmp,ACC021,"[0, 0, -3]","[3, 0, 3]","[-3, 0, 0]",non-match,0.9462544851682343,3,0.9997983166599764,-0.099637382910186,-0.627560309584656,4th,2nd,2nd,1.2634827095797752,-0.28676546385752394,-0.4573481618368974
mem,resp,494,1,mem2.1.3.bmp,mem2.3.1.bmp,mem2.3.1.bmp,ACC021,"[0, -3, 3]","[0, 3, -3]","[0, 3, -3]",match,1.1835034190722742,,0.11837977273257415,-0.6286839036714683,-0.5604340311832056,3rd,2nd,2nd,0.29869061293950444,-0.28676546385752394,-0.4573481618368974
mem,resp,855,1,mem2.1.1.bmp,mem2.3.2.bmp,mem3.1.3.bmp,ACC021,"[0, -3, -3]","[0, 3, 0]","[3, -3, 3]",non-match,0.6473959944455496,1,0.7743535899687756,1.343336381306981,-0.9119014858024328,4th,4th,1st,1.2634827095797752,1.2395150756953726,-1.1293344286936384
mem,resp,646,1,mem3.2.1.bmp,mem2.1.2.bmp,mem2.1.2.bmp,ACC021,"[3, 0, -3]","[0, -3, 0]","[0, -3, 0]",match,1.5,,-1.7023688149650569,-0.3136167727513481,-0.15077565004069535,1st,2nd,3rd,-1.2482734177317008,-0.28676546385752394,0.19687695300391736
mem,resp,587,1,mem3.1.1.bmp,mem2.2.3.bmp,mem2.2.3.bmp,ACC021,"[3, -3, -3]","[0, 0, 3]","[0, 0, 3]",match,1.2928932188134525,,-0.023871658541071695,-0.3834374785152366,-0.12064907668674607,3rd,2nd,3rd,0.29869061293950444,-0.28676546385752394,0.19687695300391736
mem,resp,506,1,mem3.1.2.bmp,mem1.2.2.bmp,mem3.1.2.bmp,ACC021,"[3, -3, 0]","[-3, 0, 0]","[3, -3, 0]",match,1.3545027756320973,,0.7045767114521828,0.5942785273911138,-0.10373953152467862,4th,3rd,3rd,1.2634827095797752,0.3226610708618323,0.19687695300391736
mem,resp,577,0,mem2.3.2.bmp,mem3.2.2.bmp,mem2.3.2.bmp,ACC021,"[0, 3, 0]","[3, 0, 0]","[0, 3, 0]",match,1.591751709536137,,1.4768173889029674,-1.2088284664427205,0.0208805284342643,4th,1st,3rd,1.2634827095797752,-1.2713263653469988,0.19687695300391736
mem,resp,658,0,mem1.3.3.bmp,mem3.2.1.bmp,mem2.2.1.bmp,ACC021,"[-3, 3, 3]","[3, 0, -3]","[0, 0, -3]",non-match,1.0042180842186395,3,-0.5893312819665179,0.16140738577875696,0.36757914786350826,2nd,3rd,3rd,-0.3101190109529018,0.3226610708618323,0.19687695300391736
mem,resp,711,1,mem2.2.3.bmp,mem1.1.2.bmp,mem1.1.2.bmp,ACC021,"[0, 0, 3]","[-3, -3, 0]","[-3, -3, 0]",match,1.5,,-0.11395020678511432,-0.410821715020826,0.43091948491310433,2nd,2nd,3rd,-0.3101190109529018,-0.28676546385752394,0.19687695300391736
mem,resp,419,0,mem1.1.3.bmp,mem2.3.3.bmp,mem1.2.3.bmp,ACC021,"[-3, -3, 3]","[0, 3, 3]","[-3, 0, 3]",non-match,1.3030765749413242,4,-0.08982128464142146,0.004647501267759076,0.32690870738333,2nd,2nd,3rd,-0.3101190109529018,-0.28676546385752394,0.19687695300391736
mem,resp,810,1,mem1.2.2.bmp,mem3.3.1.bmp,mem1.2.2.bmp,ACC021,"[-3, 0, 0]","[3, 3, -3]","[-3, 0, 0]",match,1.2928932188134525,,-0.42621929546678583,0.5735527912036708,0.4169610898774997,2nd,3rd,3rd,-0.3101190109529018,0.3226610708618323,0.19687695300391736
mem,resp,509,1,mem1.2.1.bmp,mem1.3.3.bmp,mem2.2.1.bmp,ACC021,"[-3, 0, -3]","[-3, 3, 3]","[0, 0, -3]",non-match,1.0042180842186395,3,1.8849956205489846,0.5859990063195485,0.6763816473323131,4th,3rd,4th,1.2634827095797752,0.3226610708618323,1.3922977508557823
mem,resp,645,1,mem2.1.2.bmp,mem2.1.1.bmp,mem2.1.1.bmp,ACC021,"[0, -3, 0]","[0, -3, -3]","[0, -3, -3]",match,1.7113248654051871,,0.43922726083632035,0.7419252530680437,0.6657016406513109,3rd,4th,4th,0.29869061293950444,1.2395150756953726,1.3922977508557823
mem,resp,487,1,mem1.2.2.bmp,mem1.1.3.bmp,mem1.1.3.bmp,ACC021,"[-3, 0, 0]","[-3, -3, 3]","[-3, -3, 3]",match,1.591751709536137,,-0.250327378058323,-0.9017271490379677,0.9615438127821068,2nd,1st,4th,-0.3101190109529018,-1.2713263653469988,1.3922977508557823
mem,resp,646,1,mem1.2.3.bmp,mem3.1.2.bmp,mem1.2.3.bmp,ACC021,"[-3, 0, 3]","[3, -3, 0]","[-3, 0, 3]",match,1.2928932188134525,,-0.8429036447815914,-1.507001388051501,1.0173743030759637,1st,1st,4th,-1.2482734177317008,-1.2713263653469988,1.3922977508557823
mem,resp,617,1,mem3.2.2.bmp,mem1.2.1.bmp,mem2.3.3.bmp,ACC021,"[3, 0, 0]","[-3, 0, -3]","[0, 3, 3]",non-match,0.7928932188134524,2,0.06761421256912835,1.4016733089109115,0.9260006767284567,3rd,4th,4th,0.29869061293950444,1.2395150756953726,1.3922977508557823
mem,resp,898,1,mem3.2.1.bmp,mem1.1.2.bmp,mem2.1.3.bmp,ACC021,"[3, 0, -3]","[-3, -3, 0]","[0, -3, 3]",non-match,0.8846449283495895,2,-0.33178342251154264,0.526555784160691,0.9803988038076157,2nd,3rd,4th,-0.3101190109529018,0.3226610708618323,1.3922977508557823
mem,resp,458,1,mem3.3.2.bmp,mem3.3.1.bmp,mem3.3.2.bmp,ACC021,"[3, 3, 0]","[3, 3, -3]","[3, 3, 0]",match,1.7113248654051871,,0.2165657827111093,0.19215111381862007,1.136027661225646,3rd,3rd,4th,0.29869061293950444,0.3226610708618323,1.3922977508557823
mem,resp,517,1,mem3.1.3.bmp,mem3.3.3.bmp,mem2.2.3.bmp,ACC021,"[3, -3, 3]","[3, 3, 3]","[0, 0, 3]",non-match,1.1835034190722742,4,0.9037281704249455,0.07673801254657307,0.8171379789285652,4th,3rd,4th,1.2634827095797752,0.3226610708618323,1.3922977508557823
mem,resp,716,0,mem2.2.2.bmp,mem1.2.2.bmp,mem2.2.2.bmp,ACC021,"[0, 0, 0]","[-3, 0, 0]","[0, 0, 0]",match,1.7113248654051871,,-1.0667662373692506,-1.564992574386235,0.8271636301878587,1st,1st,4th,-1.2482734177317008,-1.2713263653469988,1.3922977508557823
mem,resp,639,1,mem2.1.3.bmp,mem1.3.3.bmp,mem2.1.3.bmp,ACC021,"[0, -3, 3]","[-3, 3, 3]","[0, -3, 3]",match,1.3545027756320973,,0.35608538343838647,0.6068825235949934,0.5914916097322155,3rd,3rd,3rd,0.29869061293950444,0.3226610708618323,0.19687695300391736
mem,resp,377,1,mem2.3.1.bmp,mem2.3.2.bmp,mem2.3.1.bmp,ACC021,"[0, 3, -3]","[0, 3, 0]","[0, 3, -3]",match,1.7113248654051871,,-0.08087371622891465,2.6548798832631344,0.9073844789296828,2nd,4th,4th,-0.3101190109529018,1.2395150756953726,1.3922977508557823
mem,resp,446,1,mem1.3.2.bmp,mem2.3.3.bmp,mem1.3.2.bmp,ACC021,"[-3, 3, 0]","[0, 3, 3]","[-3, 3, 0]",match,1.591751709536137,,-0.5398356935890272,-0.42863196119181085,0.47064368193389655,2nd,2nd,3rd,-0.3101190109529018,-0.28676546385752394,0.19687695300391736
mem,resp,597,1,mem3.3.1.bmp,mem2.2.3.bmp,mem2.2.3.bmp,ACC021,"[3, 3, -3]","[0, 0, 3]","[0, 0, 3]",match,1.2928932188134525,,0.5579686128545116,0.5760853160705659,0.23399047661211853,3rd,3rd,3rd,0.29869061293950444,0.3226610708618323,0.19687695300391736
mem,resp,595,1,mem1.2.1.bmp,mem2.2.2.bmp,mem1.1.1.bmp,ACC021,"[-3, 0, -3]","[0, 0, 0]","[-3, -3, -3]",non-match,1.2113248654051871,4,1.0304180427570484,0.22217901397502074,0.5587863918583692,4th,3rd,3rd,1.2634827095797752,0.3226610708618323,0.19687695300391736
mem,resp,574,0,mem1.1.3.bmp,mem3.3.2.bmp,mem3.3.2.bmp,ACC021,"[-3, -3, 3]","[3, 3, 0]","[3, 3, 0]",match,1.1339745962155614,,0.7532135677444571,-0.27898166482528963,0.7436542904922964,4th,2nd,4th,1.2634827095797752,-0.28676546385752394,1.3922977508557823
mem,resp,435,1,mem2.1.1.bmp,mem3.2.1.bmp,mem3.2.1.bmp,ACC021,"[0, -3, -3]","[3, 0, -3]","[3, 0, -3]",match,1.591751709536137,,1.550916621824142,1.0720739308061713,0.5699422493835647,4th,4th,3rd,1.2634827095797752,1.2395150756953726,0.19687695300391736
mem,resp,744,1,mem3.1.2.bmp,mem1.2.3.bmp,mem1.3.3.bmp,ACC021,"[3, -3, 0]","[-3, 0, 3]","[-3, 3, 3]",non-match,0.8452994616207485,2,0.5215502757422076,1.4338930928694784,0.5649917730563342,3rd,4th,3rd,0.29869061293950444,1.2395150756953726,0.19687695300391736
mem,resp,488,1,mem3.3.3.bmp,mem2.3.1.bmp,mem3.3.3.bmp,ACC021,"[3, 3, 3]","[0, 3, -3]","[3, 3, 3]",match,1.3545027756320973,,0.2684297174880776,1.0535433447662255,0.3996178644278279,3rd,4th,3rd,0.29869061293950444,1.2395150756953726,0.19687695300391736
mem,resp,585,1,mem3.2.3.bmp,mem3.1.3.bmp,mem3.2.3.bmp,ACC021,"[3, 0, 3]","[3, -3, 3]","[3, 0, 3]",match,1.7113248654051871,,-0.37032028854569066,-0.8825852858460311,0.02158334400925193,2nd,1st,3rd,-0.3101190109529018,-1.2713263653469988,0.19687695300391736
mem,resp,573,1,mem2.2.1.bmp,mem3.1.1.bmp,mem1.2.1.bmp,ACC021,"[0, 0, -3]","[3, -3, -3]","[-3, 0, -3]",non-match,1.0658276410372842,3,0.9021341395770379,-0.36006586420557163,-0.07743721638539082,4th,2nd,3rd,1.2634827095797752,-0.28676546385752394,0.19687695300391736
mem,resp,406,1,mem1.1.1.bmp,mem2.2.2.bmp,mem1.1.1.bmp,ACC021,"[-3, -3, -3]","[0, 0, 0]","[-3, -3, -3]",match,1.5,,0.39970000651072457,0.5624087406389843,-0.29545622329869586,3rd,3rd,2nd,0.29869061293950444,0.3226610708618323,-0.4573481618368974
mem,resp,393,1,mem1.1.2.bmp,mem1.2.3.bmp,mem1.1.2.bmp,ACC021,"[-3, -3, 0]","[-3, 0, 3]","[-3, -3, 0]",match,1.591751709536137,,1.23625039296878,1.0273987416753723,-0.2980639440440905,4th,4th,2nd,1.2634827095797752,1.2395150756953726,-0.4573481618368974
mem,resp,542,0,mem2.3.2.bmp,mem2.2.3.bmp,mem2.3.2.bmp,ACC021,"[0, 3, 0]","[0, 0, 3]","[0, 3, 0]",match,1.591751709536137,,-0.6970829654349354,0.8817796413837306,-0.28124198769955594,1st,4th,2nd,-1.2482734177317008,1.2395150756953726,-0.4573481618368974
mem,resp,875,1,mem1.3.3.bmp,mem2.1.2.bmp,mem1.2.2.bmp,ACC021,"[-3, 3, 3]","[0, -3, 0]","[-3, 0, 0]",non-match,1.1835034190722742,4,0.8888503939490167,1.3134534183044007,0.14657894669168864,4th,4th,3rd,1.2634827095797752,1.2395150756953726,0.19687695300391736
mem,resp,505,1,mem3.1.1.bmp,mem3.2.2.bmp,mem3.1.1.bmp,ACC021,"[3, -3, -3]","[3, 0, 0]","[3, -3, -3]",match,1.591751709536137,,-0.7969526844165462,1.1907429140313701,0.6852554968516978,1st,4th,4th,-1.2482734177317008,1.2395150756953726,1.3922977508557823
mem,resp,588,1,mem2.3.3.bmp,mem2.3.1.bmp,mem1.1.1.bmp,ACC021,"[0, 3, 3]","[0, 3, -3]","[-3, -3, -3]",non-match,0.4884773718476586,1,0.43170775275346684,-0.6783384701733612,1.1066627448044515,3rd,2nd,4th,0.29869061293950444,-0.28676546385752394,1.3922977508557823
mem,resp,579,0,mem2.2.3.bmp,mem2.1.3.bmp,mem2.1.1.bmp,ACC021,"[0, 0, 3]","[0, -3, 3]","[0, -3, -3]",non-match,0.7771525064424715,2,-0.21352785120115836,0.08924235753697794,0.9584477574480882,2nd,3rd,4th,-0.3101190109529018,0.3226610708618323,1.3922977508557823
mem,resp,534,0,mem1.3.2.bmp,mem3.3.3.bmp,mem3.2.3.bmp,ACC021,"[-3, 3, 0]","[3, 3, 3]","[3, 0, 3]",non-match,1.0042180842186395,3,-0.3152777723989149,-0.06047451137632312,1.023926728904858,2nd,2nd,4th,-0.3101190109529018,-0.28676546385752394,1.3922977508557823
mem,resp,546,1,mem2.2.2.bmp,mem3.2.1.bmp,mem1.2.1.bmp,ACC021,"[0, 0, 0]","[3, 0, -3]","[-3, 0, -3]",non-match,1.0144014403465114,3,0.3999547149633259,-1.4226615489258767,1.440317186539305,3rd,1st,4th,0.29869061293950444,-1.2713263653469988,1.3922977508557823
mem,resp,668,1,mem3.1.2.bmp,mem3.1.3.bmp,mem3.1.3.bmp,ACC021,"[3, -3, 0]","[3, -3, 3]","[3, -3, 3]",match,1.7113248654051871,,-0.06056355588678439,0.5577657137942611,1.3553178184289938,2nd,3rd,4th,-0.3101190109529018,0.3226610708618323,1.3922977508557823
mem,resp,557,0,mem2.1.2.bmp,mem3.3.2.bmp,mem2.1.2.bmp,ACC021,"[0, -3, 0]","[3, 3, 0]","[0, -3, 0]",match,1.3545027756320973,,1.2504230155290326,1.2099386165594754,0.9348538184751861,4th,4th,4th,1.2634827095797752,1.2395150756953726,1.3922977508557823
mem,resp,446,0,mem3.1.1.bmp,mem1.3.3.bmp,mem1.3.2.bmp,ACC021,"[3, -3, -3]","[-3, 3, 3]","[-3, 3, 0]",non-match,0.8452994616207485,2,1.5146960363698172,0.8303385777522659,0.4825112963885163,4th,4th,3rd,1.2634827095797752,1.2395150756953726,0.19687695300391736
mem,resp,497,0,mem3.2.1.bmp,mem2.1.1.bmp,mem3.2.2.bmp,ACC021,"[3, 0, -3]","[0, -3, -3]","[3, 0, 0]",non-match,1.2113248654051871,4,0.5559818128138759,-0.3912652197381559,0.6448277067757866,3rd,2nd,4th,0.29869061293950444,-0.28676546385752394,1.3922977508557823
mem,resp,597,1,mem1.3.1.bmp,mem1.2.2.bmp,mem1.2.3.bmp,ACC021,"[-3, 3, -3]","[-3, 0, 0]","[-3, 0, 3]",non-match,1.0658276410372842,3,0.7053875264077837,-0.2508585422526764,0.792253179070516,4th,2nd,4th,1.2634827095797752,-0.28676546385752394,1.3922977508557823
mem,resp,650,1,mem3.1.3.bmp,mem1.2.1.bmp,mem2.3.3.bmp,ACC021,"[3, -3, 3]","[-3, 0, -3]","[0, 3, 3]",non-match,0.6473959944455496,1,-0.6430591482779924,-1.2195646113735834,0.7716567629364586,1st,1st,4th,-1.2482734177317008,-1.2713263653469988,1.3922977508557823
mem,resp,519,0,mem3.3.3.bmp,mem1.1.2.bmp,mem3.3.2.bmp,ACC021,"[3, 3, 3]","[-3, -3, 0]","[3, 3, 0]",non-match,0.8948282844774612,2,0.13714406130777657,0.8408126399916893,0.7016566377471865,3rd,4th,4th,0.29869061293950444,1.2395150756953726,1.3922977508557823
mem,resp,710,1,mem2.3.2.bmp,mem1.1.3.bmp,mem3.1.1.bmp,ACC021,"[0, 3, 0]","[-3, -3, 3]","[3, -3, -3]",non-match,0.4763966378857265,1,-1.062746020011845,-0.486528928688249,0.29585736330323986,1st,2nd,3rd,-1.2482734177317008,-0.28676546385752394,0.19687695300391736
mem,resp,702,1,mem1.2.3.bmp,mem2.2.1.bmp,mem1.3.3.bmp,ACC021,"[-3, 0, 3]","[0, 0, -3]","[-3, 3, 3]",non-match,1.0042180842186395,3,-0.12415040391512845,-1.740321109624659,0.7283527106147869,2nd,1st,4th,-0.3101190109529018,-1.2713263653469988,1.3922977508557823
mem,resp,441,1,mem3.2.3.bmp,mem3.3.1.bmp,mem3.2.3.bmp,ACC021,"[3, 0, 3]","[3, 3, -3]","[3, 0, 3]",match,1.3545027756320973,,0.3157627179073421,-0.08404329668420522,0.5748921220581689,3rd,2nd,3rd,0.29869061293950444,-0.28676546385752394,0.19687695300391736
mem,resp,497,1,mem1.1.1.bmp,mem1.3.2.bmp,mem3.2.2.bmp,ACC021,"[-3, -3, -3]","[-3, 3, 0]","[3, 0, 0]",non-match,0.6473959944455496,1,1.5305254853751276,0.6958278196738161,0.9078582346076775,4th,4th,4th,1.2634827095797752,1.2395150756953726,1.3922977508557823
mem,resp,751,1,mem2.3.1.bmp,mem3.1.1.bmp,mem2.2.1.bmp,ACC021,"[0, 3, -3]","[3, -3, -3]","[0, 0, -3]",non-match,1.3030765749413242,4,-1.2795986897821472,-1.63657789553407,0.7453298102669751,1st,1st,4th,-1.2482734177317008,-1.2713263653469988,1.3922977508557823
mem,resp,531,1,mem1.2.1.bmp,mem3.1.2.bmp,mem3.1.2.bmp,ACC021,"[-3, 0, -3]","[3, -3, 0]","[3, -3, 0]",match,1.2928932188134525,,-0.4677140786401003,-0.8712851427277929,0.5274739329740509,2nd,1st,3rd,-0.3101190109529018,-1.2713263653469988,0.19687695300391736
mem,resp,813,1,mem1.2.3.bmp,mem3.3.3.bmp,mem3.2.1.bmp,ACC021,"[-3, 0, 3]","[3, 3, 3]","[3, 0, -3]",non-match,0.5380061947043713,1,-0.10415365306010577,-1.351944895710171,0.9261187963219566,2nd,1st,4th,-0.3101190109529018,-1.2713263653469988,1.3922977508557823
mem,resp,534,1,mem1.1.2.bmp,mem1.2.2.bmp,mem1.1.2.bmp,ACC021,"[-3, -3, 0]","[-3, 0, 0]","[-3, -3, 0]",match,1.7113248654051871,,-0.49003713161479606,0.33244236198182403,0.5964250490078694,2nd,3rd,4th,-0.3101190109529018,0.3226610708618323,1.3922977508557823
mem,resp,703,1,mem3.2.2.bmp,mem1.3.2.bmp,mem1.3.2.bmp,ACC021,"[3, 0, 0]","[-3, 3, 0]","[-3, 3, 0]",match,1.3545027756320973,,-0.14639452876413547,0.10286346045972523,0.7358355086772281,2nd,3rd,4th,-0.3101190109529018,0.3226610708618323,1.3922977508557823
mem,resp,605,1,mem2.1.2.bmp,mem1.1.3.bmp,mem3.1.1.bmp,ACC021,"[0, -3, 0]","[-3, -3, 3]","[3, -3, -3]",non-match,0.7752551286084112,2,-0.36910255355732585,-1.4392448879725137,0.6796067565887323,2nd,1st,4th,-0.3101190109529018,-1.2713263653469988,1.3922977508557823
mem,resp,556,1,mem2.2.3.bmp,mem2.3.3.bmp,mem3.1.3.bmp,ACC021,"[0, 0, 3]","[0, 3, 3]","[3, -3, 3]",non-match,0.9462544851682343,3,0.895085850222834,0.6639714304737209,0.5115420085255743,4th,3rd,3rd,1.2634827095797752,0.3226610708618323,0.19687695300391736
mem,resp,487,1,mem3.2.1.bmp,mem3.3.1.bmp,mem3.3.3.bmp,ACC021,"[3, 0, -3]","[3, 3, -3]","[3, 3, 3]",non-match,0.7771525064424715,2,2.054712212068255,1.0899045224332409,-0.11121201403449142,4th,4th,3rd,1.2634827095797752,1.2395150756953726,0.19687695300391736
mem,resp,661,1,mem2.1.1.bmp,mem1.2.1.bmp,mem2.2.2.bmp,ACC021,"[0, -3, -3]","[-3, 0, -3]","[0, 0, 0]",non-match,1.1835034190722742,4,-0.5665430902193201,-1.3387525559738456,-0.3723797916025338,2nd,1st,2nd,-0.3101190109529018,-1.2713263653469988,-0.4573481618368974
mem,resp,578,1,mem2.3.2.bmp,mem1.3.3.bmp,mem1.3.3.bmp,ACC021,"[0, 3, 0]","[-3, 3, 3]","[-3, 3, 3]",match,1.591751709536137,,-0.028501320793049352,-0.024712901843715426,-0.15763829532477538,3rd,2nd,3rd,0.29869061293950444,-0.28676546385752394,0.19687695300391736
mem,resp,527,1,mem1.3.2.bmp,mem3.1.3.bmp,mem3.1.3.bmp,ACC021,"[-3, 3, 0]","[3, -3, 3]","[3, -3, 3]",match,1.1339745962155614,,1.168266537375718,0.09768004722904147,-0.5659908589770999,4th,3rd,2nd,1.2634827095797752,0.3226610708618323,-0.4573481618368974
mem,resp,528,0,mem3.1.2.bmp,mem2.1.3.bmp,mem3.2.2.bmp,ACC021,"[3, -3, 0]","[0, -3, 3]","[3, 0, 0]",non-match,1.2113248654051871,4,-0.27580171113128954,0.8014365148609905,-0.805283337298156,2nd,4th,1st,-0.3101190109529018,1.2395150756953726,-1.1293344286936384
mem,resp,534,1,mem1.1.1.bmp,mem2.1.2.bmp,mem1.1.1.bmp,ACC021,"[-3, -3, -3]","[0, -3, 0]","[-3, -3, -3]",match,1.591751709536137,,-0.2488489965669163,-0.541545201050268,-0.925730682290863,2nd,2nd,1st,-0.3101190109529018,-0.28676546385752394,-1.1293344286936384
mem,resp,887,1,mem3.3.1.bmp,mem2.3.1.bmp,mem2.3.1.bmp,ACC021,"[3, 3, -3]","[0, 3, -3]","[0, 3, -3]",match,1.7113248654051871,,-0.277865868937482,0.28227727677712056,-0.9908363734171368,2nd,3rd,1st,-0.3101190109529018,0.3226610708618323,-1.1293344286936384
mem,resp,702,1,mem3.1.3.bmp,mem1.2.3.bmp,mem3.1.3.bmp,ACC021,"[3, -3, 3]","[-3, 0, 3]","[3, -3, 3]",match,1.3545027756320973,,0.1797037183411924,0.12324484634282687,-0.9550283405083891,3rd,3rd,1st,0.29869061293950444,0.3226610708618323,-1.1293344286936384
mem,resp,448,0,mem3.3.3.bmp,mem3.3.2.bmp,mem2.3.3.bmp,ACC021,"[3, 3, 3]","[3, 3, 0]","[0, 3, 3]",non-match,1.3030765749413242,4,1.4454958713462351,1.8080894892642254,-0.6774238190489267,4th,4th,2nd,1.2634827095797752,1.2395150756953726,-0.4573481618368974
mem,resp,589,1,mem2.1.3.bmp,mem2.2.1.bmp,mem1.3.3.bmp,ACC021,"[0, -3, 3]","[0, 0, -3]","[-3, 3, 3]",non-match,0.6473959944455496,1,0.9982341033887226,0.06789834093170881,-0.9010358316310165,4th,3rd,1st,1.2634827095797752,0.3226610708618323,-1.1293344286936384
mem,resp,496,0,mem3.2.3.bmp,mem1.1.2.bmp,mem3.1.2.bmp,ACC021,"[3, 0, 3]","[-3, -3, 0]","[3, -3, 0]",non-match,1.0144014403465114,3,-0.38927088860128073,0.8124209573987619,-1.0344587535627034,2nd,4th,1st,-0.3101190109529018,1.2395150756953726,-1.1293344286936384
mem,resp,457,1,mem3.1.1.bmp,mem2.1.1.bmp,mem2.1.1.bmp,ACC021,"[3, -3, -3]","[0, -3, -3]","[0, -3, -3]",match,1.7113248654051871,,0.63248267596181,-0.36474736749105363,-0.7481842718620826,3rd,2nd,1st,0.29869061293950444,-0.28676546385752394,-1.1293344286936384
mem,resp,748,1,mem1.3.1.bmp,mem3.3.2.bmp,mem3.1.3.bmp,ACC021,"[-3, 3, -3]","[3, 3, 0]","[3, -3, 3]",non-match,0.3545027756320972,1,1.0122357159377724,0.5451769974431135,-0.685640743648457,4th,3rd,2nd,1.2634827095797752,0.3226610708618323,-0.4573481618368974
mem,resp,608,1,mem2.2.1.bmp,mem2.3.1.bmp,mem3.2.1.bmp,ACC021,"[0, 0, -3]","[0, 3, -3]","[3, 0, -3]",non-match,1.3030765749413242,4,1.4402265841349164,0.7595848321404329,-0.48101603183898023,4th,4th,2nd,1.2634827095797752,1.2395150756953726,-0.4573481618368974
mem,resp,578,1,mem2.2.2.bmp,mem2.3.3.bmp,mem3.3.1.bmp,ACC021,"[0, 0, 0]","[0, 3, 3]","[3, 3, -3]",non-match,0.8545027756320972,2,0.36580411799430235,-0.4853046581689243,-0.6287717329951028,3rd,2nd,2nd,0.29869061293950444,-0.28676546385752394,-0.4573481618368974
mem,resp,609,0,mem1.2.2.bmp,mem3.2.2.bmp,mem2.3.2.bmp,ACC021,"[-3, 0, 0]","[3, 0, 0]","[0, 3, 0]",non-match,1.1835034190722742,4,2.1963298040730015,2.7859926456856594,0.11318792332182705,4th,4th,3rd,1.2634827095797752,1.2395150756953726,0.19687695300391736
mem,resp,991,1,mem1.3.3.bmp,mem2.1.3.bmp,mem1.1.2.bmp,ACC021,"[-3, 3, 3]","[0, -3, 3]","[-3, -3, 0]",non-match,0.9462544851682343,3,-0.8113097765097056,-1.3585845868617739,0.07443892801860184,1st,1st,3rd,-1.2482734177317008,-1.2713263653469988,0.19687695300391736
mem,resp,502,1,mem3.3.2.bmp,mem3.1.2.bmp,mem1.1.1.bmp,ACC021,"[3, 3, 0]","[3, -3, 0]","[-3, -3, -3]",non-match,0.4884773718476586,1,1.8535916340298249,1.1856776428504396,0.41930983211351897,4th,4th,3rd,1.2634827095797752,1.2395150756953726,0.19687695300391736
mem,resp,671,1,mem1.1.3.bmp,mem2.2.3.bmp,mem1.1.3.bmp,ACC021,"[-3, -3, 3]","[0, 0, 3]","[-3, -3, 3]",match,1.591751709536137,,0.02132145468283406,1.7427310264352809,0.09199477465826932,3rd,4th,3rd,0.29869061293950444,1.2395150756953726,0.19687695300391736
mem,resp,582,1,mem2.3.3.bmp,mem1.3.2.bmp,mem3.2.2.bmp,ACC021,"[0, 3, 3]","[-3, 3, 0]","[3, 0, 0]",non-match,0.8545027756320972,2,1.3135989134362507,0.28566480905563013,-0.08602460435940826,4th,3rd,3rd,1.2634827095797752,0.3226610708618323,0.19687695300391736
mem,resp,592,1,mem3.2.1.bmp,mem1.2.3.bmp,mem3.2.1.bmp,ACC021,"[3, 0, -3]","[-3, 0, 3]","[3, 0, -3]",match,1.1835034190722742,,-0.41432375709010283,-1.0314822051982357,-0.004166892575988356,2nd,1st,3rd,-0.3101190109529018,-1.2713263653469988,0.19687695300391736
mem,resp,603,0,mem2.1.1.bmp,mem2.3.2.bmp,mem2.1.2.bmp,ACC021,"[0, -3, -3]","[0, 3, 0]","[0, -3, 0]",non-match,1.1339745962155614,4,0.11015210690990845,0.9210216802705211,-0.21273991169811457,3rd,4th,2nd,0.29869061293950444,1.2395150756953726,-0.4573481618368974
mem,resp,532,0,mem3.3.3.bmp,mem1.1.3.bmp,mem3.3.3.bmp,ACC021,"[3, 3, 3]","[-3, -3, 3]","[3, 3, 3]",match,1.1835034190722742,,0.38191393012338537,0.7599769043036716,0.09482666619873932,3rd,4th,3rd,0.29869061293950444,1.2395150756953726,0.19687695300391736
mem,resp,473,0,mem1.3.3.bmp,mem3.3.1.bmp,mem3.2.2.bmp,ACC021,"[-3, 3, 3]","[3, 3, -3]","[3, 0, 0]",non-match,0.8846449283495895,2,0.7194802052315648,-0.7498895915783493,0.5812168022491332,4th,1st,3rd,1.2634827095797752,-1.2713263653469988,0.19687695300391736
mem,resp,431,0,mem3.1.1.bmp,mem2.2.2.bmp,mem1.2.1.bmp,ACC021,"[3, -3, -3]","[0, 0, 0]","[-3, 0, -3]",non-match,0.9462544851682343,3,-0.47305459359549695,0.24198137094604738,0.502880776347646,2nd,3rd,3rd,-0.3101190109529018,0.3226610708618323,0.19687695300391736
mem,resp,458,1,mem1.3.1.bmp,mem1.2.2.bmp,mem1.2.2.bmp,ACC021,"[-3, 3, -3]","[-3, 0, 0]","[-3, 0, 0]",match,1.591751709536137,,-0.09822766316830372,-0.34827917403754194,0.4322954277813667,2nd,2nd,3rd,-0.3101190109529018,-0.28676546385752394,0.19687695300391736
mem,resp,508,1,mem2.3.2.bmp,mem3.3.3.bmp,mem2.3.2.bmp,ACC021,"[0, 3, 0]","[3, 3, 3]","[0, 3, 0]",match,1.591751709536137,,0.4319242920725771,-0.3240922743971887,0.3728962533388308,3rd,2nd,3rd,0.29869061293950444,-0.28676546385752394,0.19687695300391736
mem,resp,535,1,mem3.3.1.bmp,mem3.1.3.bmp,mem3.1.3.bmp,ACC021,"[3, 3, -3]","[3, -3, 3]","[3, -3, 3]",match,1.1835034190722742,,0.9167170708348206,1.6343410658800213,0.11316942591641238,4th,4th,3rd,1.2634827095797752,1.2395150756953726,0.19687695300391736
mem,resp,526,1,mem2.2.2.bmp,mem2.1.2.bmp,mem2.1.2.bmp,ACC021,"[0, 0, 0]","[0, -3, 0]","[0, -3, 0]",match,1.7113248654051871,,1.4419264809359105,0.3957292975297656,-0.32737060379379984,4th,3rd,2nd,1.2634827095797752,0.3226610708618323,-0.4573481618368974
mem,resp,989,1,mem1.1.3.bmp,mem1.1.1.bmp,mem1.1.3.bmp,ACC021,"[-3, -3, 3]","[-3, -3, -3]","[-3, -3, 3]",match,1.4226497308103743,,0.344647235004419,2.3658242657020936,-0.5028623843772845,3rd,4th,2nd,0.29869061293950444,1.2395150756953726,-0.4573481618368974
mem,resp,641,0,mem2.2.1.bmp,mem2.1.1.bmp,mem2.2.1.bmp,ACC021,"[0, 0, -3]","[0, -3, -3]","[0, 0, -3]",match,1.7113248654051871,,2.2212469003153172,0.7602066003507312,-0.33486000984238445,4th,4th,2nd,1.2634827095797752,1.2395150756953726,-0.4573481618368974
mem,resp,450,1,mem1.2.2.bmp,mem1.1.2.bmp,mem3.3.2.bmp,ACC021,"[-3, 0, 0]","[-3, -3, 0]","[3, 3, 0]",non-match,0.5380061947043713,1,2.1710453648049435,1.45465099425416,-0.3724295956897125,4th,4th,2nd,1.2634827095797752,1.2395150756953726,-0.4573481618368974
mem,resp,541,0,mem3.1.2.bmp,mem3.2.3.bmp,mem3.2.1.bmp,ACC021,"[3, -3, 0]","[3, 0, 3]","[3, 0, -3]",non-match,1.0144014403465114,3,-0.5658021415983899,0.4681401874599012,-0.46949208515251084,2nd,3rd,2nd,-0.3101190109529018,0.3226610708618323,-0.4573481618368974
mem,resp,442,1,mem2.1.3.bmp,mem3.1.1.bmp,mem3.1.1.bmp,ACC021,"[0, -3, 3]","[3, -3, -3]","[3, -3, -3]",match,1.3545027756320973,,0.7261381238393638,1.1412431667619674,-0.33483898253793065,4th,4th,2nd,1.2634827095797752,1.2395150756953726,-0.4573481618368974
mem,resp,389,1,mem3.1.2.bmp,mem2.1.1.bmp,mem2.1.1.bmp,ACC021,"[3, -3, 0]","[0, -3, -3]","[0, -3, -3]",match,1.591751709536137,,0.6480586466511781,-0.8551035018748071,-0.27860526153268644,3rd,1st,2nd,0.29869061293950444,-1.2713263653469988,-0.4573481618368974
mem,resp,416,0,mem3.2.1.bmp,mem1.2.2.bmp,mem1.1.2.bmp,ACC021,"[3, 0, -3]","[-3, 0, 0]","[-3, -3, 0]",non-match,1.0042180842186395,3,0.3493936664566145,0.6126568131597987,-0.4366733638640738,3rd,3rd,2nd,0.29869061293950444,0.3226610708618323,-0.4573481618368974
mem,resp,830,1,mem2.1.2.bmp,mem1.3.3.bmp,mem2.1.2.bmp,ACC021,"[0, -3, 0]","[-3, 3, 3]","[0, -3, 0]",match,1.2928932188134525,,-0.9098327149570418,-0.6045295013990649,-0.42940618367705,1st,2nd,2nd,-1.2482734177317008,-0.28676546385752394,-0.4573481618368974
mem,resp,671,0,mem3.2.2.bmp,mem3.1.3.bmp,mem3.1.1.bmp,ACC021,"[3, 0, 0]","[3, -3, 3]","[3, -3, -3]",non-match,1.0144014403465114,3,-0.6030995539555724,0.12029804923680258,-0.4093321966644172,2nd,3rd,2nd,-0.3101190109529018,0.3226610708618323,-0.4573481618368974
mem,resp,400,1,mem1.3.2.bmp,mem1.2.3.bmp,mem1.2.3.bmp,ACC021,"[-3, 3, 0]","[-3, 0, 3]","[-3, 0, 3]",match,1.591751709536137,,0.5890240474651772,-0.027327583599942064,-0.2262416472756611,3rd,2nd,2nd,0.29869061293950444,-0.28676546385752394,-0.4573481618368974
mem,resp,427,1,mem2.1.1.bmp,mem3.3.2.bmp,mem3.3.2.bmp,ACC021,"[0, -3, -3]","[3, 3, 0]","[3, 3, 0]",match,1.2928932188134525,,1.2028262067563418,1.474808995333721,-0.4570626221360993,4th,4th,2nd,1.2634827095797752,1.2395150756953726,-0.4573481618368974
mem,resp,364,0,mem2.3.2.bmp,mem3.2.3.bmp,mem3.1.2.bmp,ACC021,"[0, 3, 0]","[3, 0, 3]","[3, -3, 0]",non-match,0.9462544851682343,3,0.026119533498513557,0.7045185680863209,-0.4020756378534105,3rd,4th,2nd,0.29869061293950444,1.2395150756953726,-0.4573481618368974
mem,resp,434,1,mem1.1.2.bmp,mem1.1.3.bmp,mem1.1.3.bmp,ACC021,"[-3, -3, 0]","[-3, -3, 3]","[-3, -3, 3]",match,1.7113248654051871,,0.40278140452481803,0.5194875789506993,-0.7994802817161842,3rd,3rd,1st,0.29869061293950444,0.3226610708618323,-1.1293344286936384
mem,resp,512,1,mem2.3.3.bmp,mem2.1.3.bmp,mem2.3.3.bmp,ACC021,"[0, 3, 3]","[0, -3, 3]","[0, 3, 3]",match,1.4226497308103743,,1.1709386187068849,0.8114295385482564,-0.973256907880126,4th,4th,1st,1.2634827095797752,1.2395150756953726,-1.1293344286936384
mem,resp,625,1,mem3.3.2.bmp,mem1.3.2.bmp,mem1.2.1.bmp,ACC021,"[3, 3, 0]","[-3, 3, 0]","[-3, 0, -3]",non-match,0.8846449283495895,2,2.434230700292309,1.1062341453382365,-1.6013169781991285,4th,4th,1st,1.2634827095797752,1.2395150756953726,-1.1293344286936384
mem,resp,482,1,mem2.2.2.bmp,mem2.2.3.bmp,mem2.2.3.bmp,ACC021,"[0, 0, 0]","[0, 0, 3]","[0, 0, 3]",match,1.7113248654051871,,1.3873830305761146,0.9394495701988023,-1.4183598401784387,4th,4th,1st,1.2634827095797752,1.2395150756953726,-1.1293344286936384
mem,resp,543,0,mem1.2.2.bmp,mem3.2.1.bmp,mem1.2.2.bmp,ACC021,"[-3, 0, 0]","[3, 0, -3]","[-3, 0, 0]",match,1.3545027756320973,,0.4901066601946566,-0.01888507743256035,-1.4040899035491328,3rd,2nd,1st,0.29869061293950444,-0.28676546385752394,-1.1293344286936384
mem,resp,734,1,mem3.3.1.bmp,mem1.3.1.bmp,mem1.3.1.bmp,ACC021,"[3, 3, -3]","[-3, 3, -3]","[-3, 3, -3]",match,1.4226497308103743,,-0.25619274960022237,0.1552245816004903,-1.34211123539284,2nd,3rd,1st,-0.3101190109529018,0.3226610708618323,-1.1293344286936384
mem,resp,626,1,mem3.2.3.bmp,mem3.1.2.bmp,mem3.2.3.bmp,ACC021,"[3, 0, 3]","[3, -3, 0]","[3, 0, 3]",match,1.591751709536137,,-0.3268782497951549,0.7607400111517485,-1.2483113220559479,2nd,4th,1st,-0.3101190109529018,1.2395150756953726,-1.1293344286936384
mem,resp,445,1,mem3.1.1.bmp,mem3.3.3.bmp,mem3.1.1.bmp,ACC021,"[3, -3, -3]","[3, 3, 3]","[3, -3, -3]",match,1.1835034190722742,,-0.29866856932352187,1.130737880475655,-1.333086867512435,2nd,4th,1st,-0.3101190109529018,1.2395150756953726,-1.1293344286936384
mem,resp,646,1,mem1.2.1.bmp,mem1.1.1.bmp,mem1.2.3.bmp,ACC021,"[-3, 0, -3]","[-3, -3, -3]","[-3, 0, 3]",non-match,0.7771525064424715,2,-1.41786306373139,2.0931726772854433,-1.4125766530437798,1st,4th,1st,-1.2482734177317008,1.2395150756953726,-1.1293344286936384
mem,resp,666,1,mem2.3.1.bmp,mem1.1.2.bmp,mem1.1.2.bmp,ACC021,"[0, 3, -3]","[-3, -3, 0]","[-3, -3, 0]",match,1.2928932188134525,,-0.2420478056465884,1.0126238991477265,-1.5820012577862206,2nd,4th,1st,-0.3101190109529018,1.2395150756953726,-1.1293344286936384
mem,resp,727,1,mem3.1.3.bmp,mem3.3.1.bmp,mem3.1.3.bmp,ACC021,"[3, -3, 3]","[3, 3, -3]","[3, -3, 3]",match,1.1835034190722742,,-1.110908856412512,-0.3547973045491521,-1.2455136565788085,1st,2nd,1st,-1.2482734177317008,-0.28676546385752394,-1.1293344286936384
mem,resp,637,1,mem2.2.1.bmp,mem2.3.3.bmp,mem1.3.1.bmp,ACC021,"[0, 0, -3]","[0, 3, 3]","[-3, 3, -3]",non-match,0.9462544851682343,3,1.278706832027177,0.3920142449296345,-0.7840916136895271,4th,3rd,1st,1.2634827095797752,0.3226610708618323,-1.1293344286936384
mem,resp,830,0,mem3.3.3.bmp,mem2.2.2.bmp,mem3.3.3.bmp,ACC021,"[3, 3, 3]","[0, 0, 0]","[3, 3, 3]",match,1.5,,-0.7814379692729143,-0.30602196623992683,-0.6698108981657348,1st,2nd,2nd,-1.2482734177317008,-0.28676546385752394,-0.4573481618368974
mem,resp,562,1,mem1.1.1.bmp,mem1.2.1.bmp,mem3.2.3.bmp,ACC021,"[-3, -3, -3]","[-3, 0, -3]","[3, 0, 3]",non-match,0.3174780152878355,1,0.16673739374991686,-0.41013561641605095,-0.5953182618602444,3rd,2nd,2nd,0.29869061293950444,-0.28676546385752394,-0.4573481618368974
mem,resp,651,1,mem1.2.3.bmp,mem3.3.1.bmp,mem3.3.1.bmp,ACC021,"[-3, 0, 3]","[3, 3, -3]","[3, 3, -3]",match,1.1339745962155614,,0.4512759229682291,1.2098018729498738,-0.28011270486916373,3rd,4th,2nd,0.29869061293950444,1.2395150756953726,-0.4573481618368974
mem,resp,480,1,mem1.1.3.bmp,mem3.3.2.bmp,mem1.1.3.bmp,ACC021,"[-3, -3, 3]","[3, 3, 0]","[-3, -3, 3]",match,1.1339745962155614,,1.591110309757054,0.34823519701690175,-0.11836389515849767,4th,3rd,3rd,1.2634827095797752,0.3226610708618323,0.19687695300391736
mem,resp,985,1,mem1.3.1.bmp,mem1.2.2.bmp,mem1.2.2.bmp,ACC021,"[-3, 3, -3]","[-3, 0, 0]","[-3, 0, 0]",match,1.591751709536137,,-1.4353296205119943,-1.3479821060412074,-0.15733935849975883,1st,1st,3rd,-1.2482734177317008,-1.2713263653469988,0.19687695300391736
mem,resp,635,1,mem2.2.3.bmp,mem2.1.1.bmp,mem2.2.3.bmp,ACC021,"[0, 0, 3]","[0, -3, -3]","[0, 0, 3]",match,1.3545027756320973,,-0.35233652889881806,-1.0511770911036191,-0.3293437001720663,2nd,1st,2nd,-0.3101190109529018,-1.2713263653469988,-0.4573481618368974
mem,resp,584,0,mem1.3.3.bmp,mem2.3.1.bmp,mem1.3.2.bmp,ACC021,"[-3, 3, 3]","[0, 3, -3]","[-3, 3, 0]",non-match,1.3030765749413242,4,0.5046659267991257,1.1497036655095598,-0.4789503103902572,3rd,4th,2nd,0.29869061293950444,1.2395150756953726,-0.4573481618368974
mem,resp,432,1,mem1.3.3.bmp,mem1.1.1.bmp,mem1.1.1.bmp,ACC021,"[-3, 3, 3]","[-3, -3, -3]","[-3, -3, -3]",match,1.1835034190722742,,1.8433001947456868,0.6845049505427272,-0.6870336645760696,4th,4th,2nd,1.2634827095797752,1.2395150756953726,-0.4573481618368974
mem,resp,533,1,mem2.3.2.bmp,mem3.2.1.bmp,mem2.3.3.bmp,ACC021,"[0, 3, 0]","[3, 0, -3]","[0, 3, 3]",non-match,1.0042180842186395,3,0.16501862839165052,1.8386801973296183,-0.566191181603589,3rd,4th,2nd,0.29869061293950444,1.2395150756953726,-0.4573481618368974
mem,resp,814,1,mem1.3.1.bmp,mem3.1.1.bmp,mem1.1.3.bmp,ACC021,"[-3, 3, -3]","[3, -3, -3]","[-3, -3, 3]",non-match,0.36700683814454815,1,-1.5415942020294093,-1.3510328102979487,-0.5958704891983235,1st,1st,2nd,-1.2482734177317008,-1.2713263653469988,-0.4573481618368974
mem,resp,856,1,mem2.2.1.bmp,mem2.1.2.bmp,mem3.3.1.bmp,ACC021,"[0, 0, -3]","[0, -3, 0]","[3, 3, -3]",non-match,0.8846449283495895,2,-2.6284354718223017,-1.0650690377203234,-0.5904171346161987,1st,1st,2nd,-1.2482734177317008,-1.2713263653469988,-0.4573481618368974
mem,resp,528,1,mem3.3.2.bmp,mem1.2.3.bmp,mem1.2.3.bmp,ACC021,"[3, 3, 0]","[-3, 0, 3]","[-3, 0, 3]",match,1.2928932188134525,,0.5292304938815529,0.15623476809619932,-0.8080538924815325,3rd,3rd,1st,0.29869061293950444,0.3226610708618323,-1.1293344286936384
mem,resp,503,1,mem2.2.2.bmp,mem3.3.3.bmp,mem2.2.2.bmp,ACC021,"[0, 0, 0]","[3, 3, 3]","[0, 0, 0]",match,1.5,,0.3088270810357902,-0.343122555910926,-0.847720762197372,3rd,2nd,1st,0.29869061293950444,-0.28676546385752394,-1.1293344286936384
mem,resp,560,0,mem1.2.1.bmp,mem2.1.3.bmp,mem1.1.1.bmp,ACC021,"[-3, 0, -3]","[0, -3, 3]","[-3, -3, -3]",non-match,1.0658276410372842,3,0.39460618508034445,0.14215156035185467,-1.1677331382936718,3rd,3rd,1st,0.29869061293950444,0.3226610708618323,-1.1293344286936384
mem,resp,653,1,mem3.2.3.bmp,mem3.1.2.bmp,mem1.3.1.bmp,ACC021,"[3, 0, 3]","[3, -3, 0]","[-3, 3, -3]",non-match,0.2679491924311228,1,1.8542570746809774,1.4090160532140266,-1.166103006024378,4th,4th,1st,1.2634827095797752,1.2395150756953726,-1.1293344286936384
mem,resp,578,1,mem3.2.1.bmp,mem3.1.3.bmp,mem3.1.3.bmp,ACC021,"[3, 0, -3]","[3, -3, 3]","[3, -3, 3]",match,1.3545027756320973,,-0.07139602039774448,-0.28601847990303647,-1.5430224110911315,2nd,2nd,1st,-0.3101190109529018,-0.28676546385752394,-1.1293344286936384
mem,resp,609,1,mem1.2.2.bmp,mem2.2.3.bmp,mem2.2.1.bmp,ACC021,"[-3, 0, 0]","[0, 0, 3]","[0, 0, -3]",non-match,1.0144014403465114,3,1.0517676209187656,0.3581279605110546,-1.5866521853443114,4th,3rd,1st,1.2634827095797752,0.3226610708618323,-1.1293344286936384
mem,resp,540,0,mem2.1.2.bmp,mem1.3.2.bmp,mem1.1.2.bmp,ACC021,"[0, -3, 0]","[-3, 3, 0]","[-3, -3, 0]",non-match,1.1339745962155614,4,-0.2750695498466844,0.5481749488387216,-1.0778924671678203,2nd,3rd,1st,-0.3101190109529018,0.3226610708618323,-1.1293344286936384
mem,resp,699,0,mem1.2.3.bmp,mem2.3.3.bmp,mem1.2.3.bmp,ACC021,"[-3, 0, 3]","[0, 3, 3]","[-3, 0, 3]",match,1.591751709536137,,0.2706807115720803,0.30572243921850845,-1.1789378916788493,3rd,3rd,1st,0.29869061293950444,0.3226610708618323,-1.1293344286936384
mem,resp,751,1,mem1.1.3.bmp,mem1.1.1.bmp,mem1.3.3.bmp,ACC021,"[-3, -3, 3]","[-3, -3, -3]","[-3, 3, 3]",non-match,0.6061531498826483,1,0.12667706583341834,-0.2621611212894664,-0.8686786414530974,3rd,2nd,1st,0.29869061293950444,-0.28676546385752394,-1.1293344286936384
mem,resp,593,1,mem2.3.3.bmp,mem1.3.1.bmp,mem3.1.3.bmp,ACC021,"[0, 3, 3]","[-3, 3, -3]","[3, -3, 3]",non-match,0.3545027756320972,1,0.8867469551691124,-1.3426399913328415,-1.0212335356828413,4th,1st,1st,1.2634827095797752,-1.2713263653469988,-1.1293344286936384
mem,resp,946,1,mem2.1.2.bmp,mem2.2.2.bmp,mem1.2.1.bmp,ACC021,"[0, -3, 0]","[0, 0, 0]","[-3, 0, -3]",non-match,1.091751709536137,4,-0.4352547631601759,-0.19060648441111383,-1.0641655047690397,2nd,2nd,1st,-0.3101190109529018,-0.28676546385752394,-1.1293344286936384
mem,resp,615,1,mem2.3.2.bmp,mem2.2.1.bmp,mem1.2.3.bmp,ACC021,"[0, 3, 0]","[0, 0, -3]","[-3, 0, 3]",non-match,0.8545027756320972,2,1.165748603339916,0.7749672148995644,-1.1108918205732943,4th,4th,1st,1.2634827095797752,1.2395150756953726,-1.1293344286936384
mem,resp,716,0,mem1.2.2.bmp,mem3.3.1.bmp,mem2.1.3.bmp,ACC021,"[-3, 0, 0]","[3, 3, -3]","[0, -3, 3]",non-match,0.6339745962155614,1,-0.8850739570442075,0.05961029414521344,-1.147088792174613,1st,3rd,1st,-1.2482734177317008,0.3226610708618323,-1.1293344286936384
mem,resp,424,1,mem1.1.1.bmp,mem3.1.2.bmp,mem3.1.2.bmp,ACC021,"[-3, -3, -3]","[3, -3, 0]","[3, -3, 0]",match,1.3545027756320973,,1.5893652592730831,0.15681684190646353,-0.8570991384406367,4th,3rd,1st,1.2634827095797752,0.3226610708618323,-1.1293344286936384
mem,resp,775,0,mem1.3.1.bmp,mem2.2.3.bmp,mem2.2.2.bmp,ACC021,"[-3, 3, -3]","[0, 0, 3]","[0, 0, 0]",non-match,1.2113248654051871,4,1.5127876978500654,1.8207554906676011,-0.9324004864236095,4th,4th,1st,1.2634827095797752,1.2395150756953726,-1.1293344286936384
mem,resp,434,1,mem3.2.3.bmp,mem1.2.3.bmp,mem1.2.3.bmp,ACC021,"[3, 0, 3]","[-3, 0, 3]","[-3, 0, 3]",match,1.4226497308103743,,-0.24931893829770163,-0.11354155064098755,-0.8989781853657408,2nd,2nd,1st,-0.3101190109529018,-0.28676546385752394,-1.1293344286936384
mem,resp,582,1,mem2.1.3.bmp,mem3.2.2.bmp,mem2.1.3.bmp,ACC021,"[0, -3, 3]","[3, 0, 0]","[0, -3, 3]",match,1.5,,-0.9669106127228413,-1.7603170736789764,-0.8511833805184056,1st,1st,1st,-1.2482734177317008,-1.2713263653469988,-1.1293344286936384
mem,resp,916,1,mem1.3.3.bmp,mem2.3.1.bmp,mem3.1.2.bmp,ACC021,"[-3, 3, 3]","[0, 3, -3]","[3, -3, 0]",non-match,0.42686781502901383,1,0.04824358773252829,0.37157744189948394,-0.5070612557281402,3rd,3rd,2nd,0.29869061293950444,0.3226610708618323,-0.4573481618368974
mem,resp,777,1,mem2.1.1.bmp,mem1.2.1.bmp,mem2.1.1.bmp,ACC021,"[0, -3, -3]","[-3, 0, -3]","[0, -3, -3]",match,1.591751709536137,,-0.2523822992438545,-0.77606666435626,-0.3542880984049787,2nd,1st,2nd,-0.3101190109529018,-1.2713263653469988,-0.4573481618368974
mem,resp,622,1,mem2.2.2.bmp,mem3.2.1.bmp,mem2.2.2.bmp,ACC021,"[0, 0, 0]","[3, 0, -3]","[0, 0, 0]",match,1.591751709536137,,-0.09637186779367457,0.8165001798223579,-0.567429417477761,2nd,4th,2nd,-0.3101190109529018,1.2395150756953726,-0.4573481618368974
mem,resp,749,1,mem1.2.3.bmp,mem1.1.2.bmp,mem1.3.2.bmp,ACC021,"[-3, 0, 3]","[-3, -3, 0]","[-3, 3, 0]",non-match,1.0144014403465114,3,0.08460240014129215,-0.49865423921584495,-0.3237806426230005,3rd,2nd,2nd,0.29869061293950444,-0.28676546385752394,-0.4573481618368974
mem,resp,487,1,mem2.2.1.bmp,mem1.2.2.bmp,mem1.2.2.bmp,ACC021,"[0, 0, -3]","[-3, 0, 0]","[-3, 0, 0]",match,1.591751709536137,,0.3789517400017681,0.7366508250623858,-0.508172496881439,3rd,4th,2nd,0.29869061293950444,1.2395150756953726,-0.4573481618368974
mem,resp,506,1,mem3.3.3.bmp,mem3.1.3.bmp,mem3.1.3.bmp,ACC021,"[3, 3, 3]","[3, -3, 3]","[3, -3, 3]",match,1.4226497308103743,,-0.9903334856201584,-0.8321712663738887,-0.04029370956221652,1st,1st,3rd,-1.2482734177317008,-1.2713263653469988,0.19687695300391736
mem,resp,463,1,mem2.2.3.bmp,mem3.1.1.bmp,mem3.1.1.bmp,ACC021,"[0, 0, 3]","[3, -3, -3]","[3, -3, -3]",match,1.2928932188134525,,0.8182479892694164,2.426625457091689,-0.06577419945545042,4th,4th,3rd,1.2634827095797752,1.2395150756953726,0.19687695300391736
mem,resp,582,1,mem3.2.1.bmp,mem3.3.2.bmp,mem1.2.3.bmp,ACC021,"[3, 0, -3]","[3, 3, 0]","[-3, 0, 3]",non-match,0.4763966378857265,1,1.1497052266997234,-0.09428434116945347,-0.2116773130255298,4th,2nd,2nd,1.2634827095797752,-0.28676546385752394,-0.4573481618368974
mem,resp,673,1,mem1.2.1.bmp,mem2.1.2.bmp,mem2.3.2.bmp,ACC021,"[-3, 0, -3]","[0, -3, 0]","[0, 3, 0]",non-match,0.9226497308103743,2,-0.10441545492309112,-0.3423397956290803,0.3005795355158586,2nd,2nd,3rd,-0.3101190109529018,-0.28676546385752394,0.19687695300391736
mem,resp,634,1,mem1.3.2.bmp,mem2.1.1.bmp,mem2.1.1.bmp,ACC021,"[-3, 3, 0]","[0, -3, -3]","[0, -3, -3]",match,1.2928932188134525,,0.5788988451828326,0.21866426031397504,0.36831556083467903,3rd,3rd,3rd,0.29869061293950444,0.3226610708618323,0.19687695300391736
mem,resp,605,1,mem3.1.2.bmp,mem3.2.3.bmp,mem3.1.2.bmp,ACC021,"[3, -3, 0]","[3, 0, 3]","[3, -3, 0]",match,1.591751709536137,,-0.28042990986945654,0.5355674648423705,0.5354935547750191,2nd,3rd,3rd,-0.3101190109529018,0.3226610708618323,0.19687695300391736
mem,resp,432,1,mem1.1.2.bmp,mem2.1.3.bmp,mem2.1.3.bmp,ACC021,"[-3, -3, 0]","[0, -3, 3]","[0, -3, 3]",match,1.591751709536137,,-0.0642405036170147,-0.11843276436904834,0.7574913465650772,2nd,2nd,4th,-0.3101190109529018,-0.28676546385752394,1.3922977508557823
mem,resp,935,1,mem3.2.2.bmp,mem3.3.3.bmp,mem3.2.2.bmp,ACC021,"[3, 0, 0]","[3, 3, 3]","[3, 0, 0]",match,1.591751709536137,,-0.4527584984960533,-0.17572257916649822,0.9500247908927998,2nd,2nd,4th,-0.3101190109529018,-0.28676546385752394,1.3922977508557823
mem,resp,525,1,mem3.1.3.bmp,mem1.2.1.bmp,mem3.2.1.bmp,ACC021,"[3, -3, 3]","[-3, 0, -3]","[3, 0, -3]",non-match,0.7771525064424715,2,1.2568130254320635,0.19655946205560965,1.2581151849065728,4th,3rd,4th,1.2634827095797752,0.3226610708618323,1.3922977508557823
mem,resp,928,0,mem3.1.1.bmp,mem1.2.2.bmp,mem3.3.2.bmp,ACC021,"[3, -3, -3]","[-3, 0, 0]","[3, 3, 0]",non-match,0.7090055512641944,2,-2.0006463063257334,-0.3770686587384832,0.842595649595903,1st,2nd,4th,-1.2482734177317008,-0.28676546385752394,1.3922977508557823
mem,resp,529,1,mem3.3.1.bmp,mem1.1.2.bmp,mem2.3.2.bmp,ACC021,"[3, 3, -3]","[-3, -3, 0]","[0, 3, 0]",non-match,0.9462544851682343,3,1.8428270149059016,0.9407021859521818,0.4516619126987399,4th,4th,3rd,1.2634827095797752,1.2395150756953726,0.19687695300391736
mem,resp,839,0,mem2.3.1.bmp,mem1.3.3.bmp,mem2.1.3.bmp,ACC021,"[0, 3, -3]","[-3, 3, 3]","[0, -3, 3]",non-match,0.5380061947043713,1,-4.3963482232871565,-3.885178933233808,0.5182723887446159,1st,1st,3rd,-1.2482734177317008,-1.2713263653469988,0.19687695300391736
mem,resp,600,1,mem2.3.3.bmp,mem3.1.2.bmp,mem1.3.1.bmp,ACC021,"[0, 3, 3]","[3, -3, 0]","[-3, 3, -3]",non-match,0.4884773718476586,1,0.7190250292632406,-0.9942293844582075,0.37589665326934124,4th,1st,3rd,1.2634827095797752,-1.2713263653469988,0.19687695300391736
mem,resp,356,0,mem1.3.2.bmp,mem2.2.2.bmp,mem2.2.3.bmp,ACC021,"[-3, 3, 0]","[0, 0, 0]","[0, 0, 3]",non-match,1.2113248654051871,4,1.3184715184381641,1.8187634629102358,0.38190131697885893,4th,4th,3rd,1.2634827095797752,1.2395150756953726,0.19687695300391736
mem,resp,607,0,mem3.1.3.bmp,mem3.2.3.bmp,mem3.2.3.bmp,ACC021,"[3, -3, 3]","[3, 0, 3]","[3, 0, 3]",match,1.7113248654051871,,-0.16663184347975782,-0.8057207617385598,0.8313230045370811,2nd,1st,4th,-0.3101190109529018,-1.2713263653469988,1.3922977508557823
mem,resp,608,1,mem3.2.2.bmp,mem2.1.3.bmp,mem3.2.2.bmp,ACC021,"[3, 0, 0]","[0, -3, 3]","[3, 0, 0]",match,1.5,,1.0508490897487088,0.38456814017343227,0.9374504193131894,4th,3rd,4th,1.2634827095797752,0.3226610708618323,1.3922977508557823
mem,resp,472,0,mem3.3.3.bmp,mem1.3.1.bmp,mem3.3.3.bmp,ACC021,"[3, 3, 3]","[-3, 3, -3]","[3, 3, 3]",match,1.1835034190722742,,1.2253005850223517,1.0564593607196435,0.9404146396366599,4th,4th,4th,1.2634827095797752,1.2395150756953726,1.3922977508557823
mem,resp,463,1,mem1.2.3.bmp,mem3.3.1.bmp,mem3.3.1.bmp,ACC021,"[-3, 0, 3]","[3, 3, -3]","[3, 3, -3]",match,1.1339745962155614,,0.3446304125345167,-0.026056643095639653,0.48218411405748357,3rd,2nd,3rd,0.29869061293950444,-0.28676546385752394,0.19687695300391736
mem,resp,530,1,mem2.2.1.bmp,mem3.2.1.bmp,mem2.2.1.bmp,ACC021,"[0, 0, -3]","[3, 0, -3]","[0, 0, -3]",match,1.7113248654051871,,-0.09450602155158341,0.30466148596571213,0.3566482561636002,2nd,3rd,3rd,-0.3101190109529018,0.3226610708618323,0.19687695300391736
mem,resp,1143,1,mem1.3.3.bmp,mem2.3.3.bmp,mem2.1.1.bmp,ACC021,"[-3, 3, 3]","[0, 3, 3]","[0, -3, -3]",non-match,0.3174780152878355,1,0.8891956624108541,1.2413640696230777,0.7239070327815418,4th,4th,4th,1.2634827095797752,1.2395150756953726,1.3922977508557823
mem,resp,847,0,mem2.3.2.bmp,mem3.1.1.bmp,mem3.2.2.bmp,ACC021,"[0, 3, 0]","[3, -3, -3]","[3, 0, 0]",non-match,1.1835034190722742,4,0.1251072844708798,-0.06908421013520143,0.5545273877791965,3rd,2nd,3rd,0.29869061293950444,-0.28676546385752394,0.19687695300391736
mem,resp,566,1,mem1.2.2.bmp,mem2.2.3.bmp,mem1.2.2.bmp,ACC021,"[-3, 0, 0]","[0, 0, 3]","[-3, 0, 0]",match,1.591751709536137,,0.5179473231522118,-0.716837221731199,0.5834438401944154,3rd,1st,3rd,0.29869061293950444,-1.2713263653469988,0.19687695300391736
mem,resp,473,1,mem3.1.2.bmp,mem1.1.1.bmp,mem1.1.1.bmp,ACC021,"[3, -3, 0]","[-3, -3, -3]","[-3, -3, -3]",match,1.3545027756320973,,1.3995329431377448,1.7338284084705717,1.3074092671460953,4th,4th,4th,1.2634827095797752,1.2395150756953726,1.3922977508557823
mem,resp,1015,1,mem2.2.2.bmp,mem1.3.2.bmp,mem1.3.2.bmp,ACC021,"[0, 0, 0]","[-3, 3, 0]","[-3, 3, 0]",match,1.591751709536137,,0.42071408972591123,0.28312370311201973,1.494187379257239,3rd,3rd,4th,0.29869061293950444,0.3226610708618323,1.3922977508557823
mem,resp,667,0,mem2.1.2.bmp,mem3.2.2.bmp,mem2.1.3.bmp,ACC021,"[0, -3, 0]","[3, 0, 0]","[0, -3, 3]",non-match,1.2113248654051871,4,-0.37725596608692125,-0.7207285462556098,1.5231165859996698,2nd,1st,4th,-0.3101190109529018,-1.2713263653469988,1.3922977508557823
mem,resp,538,1,mem2.1.3.bmp,mem1.1.1.bmp,mem2.1.3.bmp,ACC021,"[0, -3, 3]","[-3, -3, -3]","[0, -3, 3]",match,1.3545027756320973,,0.09289082713575887,0.2459288876825013,1.8112707115457056,3rd,3rd,4th,0.29869061293950444,0.3226610708618323,1.3922977508557823
mem,resp,537,1,mem3.1.2.bmp,mem3.1.1.bmp,mem1.1.2.bmp,ACC021,"[3, -3, 0]","[3, -3, -3]","[-3, -3, 0]",non-match,0.7771525064424715,2,0.34498669845759283,0.08057967754960217,1.7797875406755153,3rd,3rd,4th,0.29869061293950444,0.3226610708618323,1.3922977508557823
mem,resp,766,1,mem2.2.2.bmp,mem3.3.2.bmp,mem1.2.1.bmp,ACC021,"[0, 0, 0]","[3, 3, 0]","[-3, 0, -3]",non-match,0.8846449283495895,2,-0.6482029564448876,-0.08306998113748172,1.6190937372989904,1st,2nd,4th,-1.2482734177317008,-0.28676546385752394,1.3922977508557823
mem,resp,527,0,mem3.3.3.bmp,mem1.1.3.bmp,mem3.3.1.bmp,ACC021,"[3, 3, 3]","[-3, -3, 3]","[3, 3, -3]",non-match,0.42264973081037427,1,1.2522002850075138,0.5564148308720377,1.9177744397980996,4th,3rd,4th,1.2634827095797752,0.3226610708618323,1.3922977508557823
mem,resp,706,1,mem2.1.2.bmp,mem2.3.3.bmp,mem2.3.3.bmp,ACC021,"[0, -3, 0]","[0, 3, 3]","[0, 3, 3]",match,1.3545027756320973,,0.07521266133675378,0.37314561982886807,2.519799698925015,3rd,3rd,4th,0.29869061293950444,0.3226610708618323,1.3922977508557823
mem,resp,688,1,mem2.2.3.bmp,mem2.2.1.bmp,mem3.1.2.bmp,ACC021,"[0, 0, 3]","[0, 0, -3]","[3, -3, 0]",non-match,1.0,3,-0.264491411334187,0.2792271192180083,2.424187945159533,2nd,3rd,4th,-0.3101190109529018,0.3226610708618323,1.3922977508557823
mem,resp,596,1,mem2.3.2.bmp,mem2.3.1.bmp,mem1.3.1.bmp,ACC021,"[0, 3, 0]","[0, 3, -3]","[-3, 3, -3]",non-match,1.3030765749413242,4,0.45471534482370785,0.5246015131408776,1.666246404613965,3rd,3rd,4th,0.29869061293950444,0.3226610708618323,1.3922977508557823
mem,resp,627,1,mem1.3.2.bmp,mem3.2.1.bmp,mem1.3.2.bmp,ACC021,"[-3, 3, 0]","[3, 0, -3]","[-3, 3, 0]",match,1.2928932188134525,,-0.7240851080094162,1.0276112202072147,1.9991564082592395,1st,4th,4th,-1.2482734177317008,1.2395150756953726,1.3922977508557823
mem,resp,559,1,mem1.3.3.bmp,mem1.2.2.bmp,mem1.2.2.bmp,ACC021,"[-3, 3, 3]","[-3, 0, 0]","[-3, 0, 0]",match,1.591751709536137,,-0.009989020016250823,1.303232636232559,1.9976282089976718,3rd,4th,4th,0.29869061293950444,1.2395150756953726,1.3922977508557823
mem,resp,708,1,mem1.2.1.bmp,mem2.3.2.bmp,mem2.3.1.bmp,ACC021,"[-3, 0, -3]","[0, 3, 0]","[0, 3, -3]",non-match,1.3030765749413242,4,0.2856123733163324,0.14207925786030054,2.130746826671092,3rd,3rd,4th,0.29869061293950444,0.3226610708618323,1.3922977508557823
mem,resp,427,1,mem1.1.3.bmp,mem1.1.2.bmp,mem1.1.3.bmp,ACC021,"[-3, -3, 3]","[-3, -3, 0]","[-3, -3, 3]",match,1.7113248654051871,,0.71536960211758,-0.221815528256119,1.999365677594127,4th,2nd,4th,1.2634827095797752,-0.28676546385752394,1.3922977508557823
mem,resp,788,1,mem3.3.2.bmp,mem3.2.2.bmp,mem3.2.2.bmp,ACC021,"[3, 3, 0]","[3, 0, 0]","[3, 0, 0]",match,1.7113248654051871,,-0.1349058772541929,-0.7946527782668255,1.938940510210434,2nd,1st,4th,-0.3101190109529018,-1.2713263653469988,1.3922977508557823
mem,resp,690,1,mem2.1.1.bmp,mem3.1.3.bmp,mem3.1.3.bmp,ACC021,"[0, -3, -3]","[3, -3, 3]","[3, -3, 3]",match,1.3545027756320973,,0.5391472809433917,0.9356820346262417,1.8133056129436027,3rd,4th,4th,0.29869061293950444,1.2395150756953726,1.3922977508557823
mem,resp,491,1,mem1.3.1.bmp,mem1.3.2.bmp,mem1.3.1.bmp,ACC021,"[-3, 3, -3]","[-3, 3, 0]","[-3, 3, -3]",match,1.7113248654051871,,-0.7379233060273985,-0.1286570342333618,1.54991273446873,1st,2nd,4th,-1.2482734177317008,-0.28676546385752394,1.3922977508557823
mem,resp,708,0,mem1.1.1.bmp,mem3.2.3.bmp,mem2.1.3.bmp,ACC021,"[-3, -3, -3]","[3, 0, 3]","[0, -3, 3]",non-match,0.9462544851682343,3,-0.3869171919953058,1.7257185712708405,1.4117965278131384,2nd,4th,4th,-0.3101190109529018,1.2395150756953726,1.3922977508557823
mem,resp,1090,0,mem2.3.1.bmp,mem1.3.3.bmp,mem2.3.1.bmp,ACC021,"[0, 3, -3]","[-3, 3, 3]","[0, 3, -3]",match,1.3545027756320973,,-1.0958457520532645,-1.0556283170432958,1.7108467906691387,1st,1st,4th,-1.2482734177317008,-1.2713263653469988,1.3922977508557823
mem,resp,654,1,mem3.2.1.bmp,mem2.1.1.bmp,mem3.2.1.bmp,ACC021,"[3, 0, -3]","[0, -3, -3]","[3, 0, -3]",match,1.591751709536137,,-0.32496179835342154,-0.13078381257605773,1.9721325036334332,2nd,2nd,4th,-0.3101190109529018,-0.28676546385752394,1.3922977508557823
mem,resp,483,0,mem3.1.1.bmp,mem2.2.2.bmp,mem3.3.2.bmp,ACC021,"[3, -3, -3]","[0, 0, 0]","[3, 3, 0]",non-match,0.9462544851682343,3,0.6614664080040794,-0.5941237002408717,1.6711557981126415,4th,2nd,4th,1.2634827095797752,-0.28676546385752394,1.3922977508557823
mem,resp,550,1,mem3.1.3.bmp,mem2.1.2.bmp,mem3.3.1.bmp,ACC021,"[3, -3, 3]","[0, -3, 0]","[3, 3, -3]",non-match,0.4763966378857265,1,1.9627819466859011,1.9712493068752948,1.7763799747301536,4th,4th,4th,1.2634827095797752,1.2395150756953726,1.3922977508557823
mem,resp,651,1,mem2.3.3.bmp,mem3.3.3.bmp,mem2.3.3.bmp,ACC021,"[0, 3, 3]","[3, 3, 3]","[0, 3, 3]",match,1.7113248654051871,,1.3650779239634538,1.3112257707889534,1.8633088215395457,4th,4th,4th,1.2634827095797752,1.2395150756953726,1.3922977508557823
mem,resp,503,1,mem1.2.3.bmp,mem2.2.3.bmp,mem3.1.2.bmp,ACC021,"[-3, 0, 3]","[0, 0, 3]","[3, -3, 0]",non-match,0.7928932188134524,2,1.4897565474510777,1.0515982638027654,1.8101026132544422,4th,4th,4th,1.2634827095797752,1.2395150756953726,1.3922977508557823
mem,resp,572,0,mem1.2.2.bmp,mem3.3.2.bmp,mem3.3.2.bmp,ACC021,"[-3, 0, 0]","[3, 3, 0]","[3, 3, 0]",match,1.3545027756320973,,1.1446226624425915,0.0724520692168018,1.4954174580453305,4th,3rd,4th,1.2634827095797752,0.3226610708618323,1.3922977508557823
mem,resp,859,1,mem2.2.1.bmp,mem1.3.3.bmp,mem2.2.1.bmp,ACC021,"[0, 0, -3]","[-3, 3, 3]","[0, 0, -3]",match,1.2928932188134525,,-2.66801883622435,-3.3835984183349495,1.6240468882914092,1st,1st,4th,-1.2482734177317008,-1.2713263653469988,1.3922977508557823
mem,resp,610,1,mem3.2.2.bmp,mem2.3.3.bmp,mem1.1.1.bmp,ACC021,"[3, 0, 0]","[0, 3, 3]","[-3, -3, -3]",non-match,0.42686781502901383,1,-0.015272187545743941,-0.9424548491132058,1.9170046899764137,3rd,1st,4th,0.29869061293950444,-1.2713263653469988,1.3922977508557823
mem,resp,891,0,mem3.2.3.bmp,mem1.3.1.bmp,mem2.1.1.bmp,ACC021,"[3, 0, 3]","[-3, 3, -3]","[0, -3, -3]",non-match,0.6473959944455496,1,-0.6830212487034997,-1.1673650082413258,1.7632319408240869,1st,1st,4th,-1.2482734177317008,-1.2713263653469988,1.3922977508557823
mem,resp,500,1,mem1.1.2.bmp,mem1.2.2.bmp,mem2.3.2.bmp,ACC021,"[-3, -3, 0]","[-3, 0, 0]","[0, 3, 0]",non-match,0.9462544851682343,3,2.28381670198327,1.2043986180699073,1.984263893904882,4th,4th,4th,1.2634827095797752,1.2395150756953726,1.3922977508557823
mem,resp,529,1,mem1.3.2.bmp,mem2.1.3.bmp,mem3.1.1.bmp,ACC021,"[-3, 3, 0]","[0, -3, 3]","[3, -3, -3]",non-match,0.4884773718476586,1,0.2418080763078615,-0.26449503575172706,1.8932428214291326,3rd,2nd,4th,0.29869061293950444,-0.28676546385752394,1.3922977508557823
mem,resp,770,0,mem3.2.2.bmp,mem1.2.1.bmp,mem2.1.2.bmp,ACC021,"[3, 0, 0]","[-3, 0, -3]","[0, -3, 0]",non-match,1.091751709536137,4,-0.9926428119817328,1.515572320717777,1.9407061020526464,1st,4th,4th,-1.2482734177317008,1.2395150756953726,1.3922977508557823
mem,resp,590,1,mem1.1.1.bmp,mem2.1.1.bmp,mem2.2.3.bmp,ACC021,"[-3, -3, -3]","[0, -3, -3]","[0, 0, 3]",non-match,0.6473959944455496,1,1.0316779414689463,-0.20317587949920396,2.107136133370471,4th,2nd,4th,1.2634827095797752,-0.28676546385752394,1.3922977508557823
mem,resp,349,1,mem2.2.1.bmp,mem2.3.2.bmp,mem2.2.1.bmp,ACC021,"[0, 0, -3]","[0, 3, 0]","[0, 0, -3]",match,1.591751709536137,,0.4827244008646421,2.1990364795791137,1.219177257964562,3rd,4th,4th,0.29869061293950444,1.2395150756953726,1.3922977508557823
mem,resp,406,1,mem2.3.3.bmp,mem1.1.2.bmp,mem1.1.2.bmp,ACC021,"[0, 3, 3]","[-3, -3, 0]","[-3, -3, 0]",match,1.2928932188134525,,2.835716793890662,0.8935175578189426,1.508365701064326,4th,4th,4th,1.2634827095797752,1.2395150756953726,1.3922977508557823
mem,resp,475,1,mem2.2.2.bmp,mem1.3.2.bmp,mem1.3.2.bmp,ACC021,"[0, 0, 0]","[-3, 3, 0]","[-3, 3, 0]",match,1.591751709536137,,1.2152900702039509,2.2170132263192794,1.6448122074852012,4th,4th,4th,1.2634827095797752,1.2395150756953726,1.3922977508557823
mem,resp,384,1,mem1.1.3.bmp,mem3.2.1.bmp,mem3.2.1.bmp,ACC021,"[-3, -3, 3]","[3, 0, -3]","[3, 0, -3]",match,1.1339745962155614,,0.11072206746969543,0.6380226420173455,1.4908702285877573,3rd,3rd,4th,0.29869061293950444,0.3226610708618323,1.3922977508557823
mem,resp,652,0,mem2.2.3.bmp,mem2.3.1.bmp,mem1.3.1.bmp,ACC021,"[0, 0, 3]","[0, 3, -3]","[-3, 3, -3]",non-match,1.0042180842186395,3,-0.9078058132645801,-1.0819541469382106,1.2819236454151544,1st,1st,4th,-1.2482734177317008,-1.2713263653469988,1.3922977508557823
mem,resp,613,1,mem2.3.2.bmp,mem3.3.3.bmp,mem2.1.1.bmp,ACC021,"[0, 3, 0]","[3, 3, 3]","[0, -3, -3]",non-match,0.4884773718476586,1,1.1106703620465115,0.572259429176337,1.3816652487725964,4th,3rd,4th,1.2634827095797752,0.3226610708618323,1.3922977508557823
mem,resp,582,0,mem3.3.1.bmp,mem3.2.3.bmp,mem3.2.2.bmp,ACC021,"[3, 3, -3]","[3, 0, 3]","[3, 0, 0]",non-match,1.3030765749413242,4,0.14790473198019377,0.24480559705949748,1.9411465038543418,3rd,3rd,4th,0.29869061293950444,0.3226610708618323,1.3922977508557823
mem,resp,601,0,mem2.1.2.bmp,mem3.1.2.bmp,mem2.1.2.bmp,ACC021,"[0, -3, 0]","[3, -3, 0]","[0, -3, 0]",match,1.7113248654051871,,-0.6217554411944707,0.961491422107322,2.9562599752589476,1st,4th,4th,-1.2482734177317008,1.2395150756953726,1.3922977508557823
mem,resp,491,1,mem1.2.1.bmp,mem1.1.3.bmp,mem1.1.3.bmp,ACC021,"[-3, 0, -3]","[-3, -3, 3]","[-3, -3, 3]",match,1.3545027756320973,,1.1865462153864488,1.0867206661627165,2.714279565602087,4th,4th,4th,1.2634827095797752,1.2395150756953726,1.3922977508557823
mem,resp,500,1,mem1.2.2.bmp,mem1.3.2.bmp,mem1.3.2.bmp,ACC021,"[-3, 0, 0]","[-3, 3, 0]","[-3, 3, 0]",match,1.7113248654051871,,1.3296524391282287,1.3975756510128219,2.7855256399518558,4th,4th,4th,1.2634827095797752,1.2395150756953726,1.3922977508557823
