mode,type,rt,acc,item_1,item_2,item_cue,subj_idx,item_1_number,item_2_number,item_cue_number,trial_type,summed_similarity,similarity_bin,ams,pams,slps,ams_quantile,pams_quantile,slps_quantile,ams_bin,pam_bin,slp_bin
mem,resp,320,1,mem3.2.1.bmp,mem3.1.2.bmp,mem1.2.2.bmp,ACC018,"[3, 0, -3]","[3, -3, 0]","[-3, 0, 0]",non-match,0.7090055512641944,2,0.15820633188599093,0.8466893129167807,-0.8888973166566971,3rd,4th,1st,0.3603546607574523,1.2494489388976322,-1.1111156255794852
mem,resp,1479,0,mem2.3.2.bmp,mem3.3.3.bmp,mem3.3.3.bmp,ACC018,"[0, 3, 0]","[3, 3, 3]","[3, 3, 3]",match,1.591751709536137,,-0.7802985578695728,-1.138131065203195,-0.5748565316024828,1st,1st,2nd,-1.2466022467719802,-1.2067840466549895,-0.572612073051716
mem,resp,985,1,mem2.2.3.bmp,mem1.2.1.bmp,mem2.2.3.bmp,ACC018,"[0, 0, 3]","[-3, 0, -3]","[0, 0, 3]",match,1.3545027756320973,,-0.2213947426738796,-0.35726778167942713,-0.8128067928887652,2nd,2nd,1st,-0.29199933511364107,-0.34067824578242084,-1.1111156255794852
mem,resp,1082,1,mem3.2.2.bmp,mem1.3.2.bmp,mem2.2.1.bmp,ACC018,"[3, 0, 0]","[-3, 3, 0]","[0, 0, -3]",non-match,1.091751709536137,4,-1.2488503177840202,-1.310453148721299,-0.7216094090266912,1st,1st,2nd,-1.2466022467719802,-1.2067840466549895,-0.572612073051716
mem,resp,1903,0,mem1.1.2.bmp,mem2.3.3.bmp,mem2.3.3.bmp,ACC018,"[-3, -3, 0]","[0, 3, 3]","[0, 3, 3]",match,1.2928932188134525,,-1.1642119979374,-0.8714108342873266,-0.7854509917138434,1st,1st,2nd,-1.2466022467719802,-1.2067840466549895,-0.572612073051716
mem,resp,1715,0,mem1.1.3.bmp,mem1.2.2.bmp,mem1.1.3.bmp,ACC018,"[-3, -3, 3]","[-3, 0, 0]","[-3, -3, 3]",match,1.591751709536137,,1.5754727551275223,-0.001222060605073192,-0.7926718174630015,4th,2nd,2nd,1.1950928974358983,-0.34067824578242084,-0.572612073051716
mem,resp,1244,1,mem1.2.1.bmp,mem1.2.3.bmp,mem1.2.3.bmp,ACC018,"[-3, 0, -3]","[-3, 0, 3]","[-3, 0, 3]",match,1.4226497308103743,,0.6786251999093963,0.2407794959481637,-0.883448525833123,4th,3rd,1st,1.1950928974358983,0.3143212460621432,-1.1111156255794852
mem,resp,1161,1,mem3.3.2.bmp,mem3.1.3.bmp,mem3.1.3.bmp,ACC018,"[3, 3, 0]","[3, -3, 3]","[3, -3, 3]",match,1.3545027756320973,,-1.6540829642785506,-1.1721058574676342,-0.737572525443553,1st,1st,2nd,-1.2466022467719802,-1.2067840466549895,-0.572612073051716
mem,resp,663,1,mem2.1.2.bmp,mem2.2.2.bmp,mem2.1.2.bmp,ACC018,"[0, -3, 0]","[0, 0, 0]","[0, -3, 0]",match,1.7113248654051871,,-0.8483253844536183,-1.129273718531738,-0.20241247123064574,1st,1st,3rd,-1.2466022467719802,-1.2067840466549895,0.28318162593719604
mem,resp,1685,0,mem2.3.1.bmp,mem3.1.1.bmp,mem2.3.1.bmp,ACC018,"[0, 3, -3]","[3, -3, -3]","[0, 3, -3]",match,1.3545027756320973,,-1.1824404909965807,-1.5509401731368733,-0.35488585638781717,1st,1st,2nd,-1.2466022467719802,-1.2067840466549895,-0.572612073051716
mem,resp,1089,0,mem1.3.1.bmp,mem3.2.2.bmp,mem1.3.1.bmp,ACC018,"[-3, 3, -3]","[3, 0, 0]","[-3, 3, -3]",match,1.2928932188134525,,-0.9719146651649554,-0.7528540551931227,-0.44766933138386433,1st,1st,2nd,-1.2466022467719802,-1.2067840466549895,-0.572612073051716
mem,resp,1841,1,mem2.1.3.bmp,mem3.2.3.bmp,mem1.3.3.bmp,ACC018,"[0, -3, 3]","[3, 0, 3]","[-3, 3, 3]",non-match,0.7090055512641944,2,1.740881976604663,-0.08514742199278831,-0.15503916885102464,4th,2nd,3rd,1.1950928974358983,-0.34067824578242084,0.28318162593719604
mem,resp,1694,0,mem3.1.3.bmp,mem1.1.1.bmp,mem1.2.1.bmp,ACC018,"[3, -3, 3]","[-3, -3, -3]","[-3, 0, -3]",non-match,0.8452994616207485,2,-1.2658621724370704,-0.6954218515673664,0.05929718374127339,1st,2nd,3rd,-1.2466022467719802,-0.34067824578242084,0.28318162593719604
mem,resp,808,1,mem3.1.1.bmp,mem2.1.1.bmp,mem2.1.1.bmp,ACC018,"[3, -3, -3]","[0, -3, -3]","[0, -3, -3]",match,1.7113248654051871,,0.37514033965584204,0.32619004262175066,0.12797848293970793,3rd,3rd,3rd,0.3603546607574523,0.3143212460621432,0.28318162593719604
mem,resp,1355,0,mem3.3.3.bmp,mem2.2.1.bmp,mem2.2.1.bmp,ACC018,"[3, 3, 3]","[0, 0, -3]","[0, 0, -3]",match,1.2928932188134525,,0.24337415763777148,-0.8790803028585562,0.43202958114818285,3rd,1st,3rd,0.3603546607574523,-1.2067840466549895,0.28318162593719604
mem,resp,717,0,mem3.1.2.bmp,mem1.3.3.bmp,mem2.1.2.bmp,ACC018,"[3, -3, 0]","[-3, 3, 3]","[0, -3, 0]",non-match,1.0042180842186395,3,-0.17160517241047957,-0.9341352337731477,0.7280849399232807,2nd,1st,3rd,-0.29199933511364107,-1.2067840466549895,0.28318162593719604
mem,resp,1236,1,mem1.3.2.bmp,mem3.2.2.bmp,mem1.1.1.bmp,ACC018,"[-3, 3, 0]","[3, 0, 0]","[-3, -3, -3]",non-match,0.6473959944455496,1,0.14790055767833762,-1.016263719533079,0.7359772715195171,3rd,1st,3rd,0.3603546607574523,-1.2067840466549895,0.28318162593719604
mem,resp,1565,1,mem3.3.1.bmp,mem2.3.1.bmp,mem3.3.1.bmp,ACC018,"[3, 3, -3]","[0, 3, -3]","[3, 3, -3]",match,1.7113248654051871,,-0.9707624027899681,-0.9678109890819135,0.9177207171669883,1st,1st,4th,-1.2466022467719802,-1.2067840466549895,1.4155611487153492
mem,resp,910,1,mem2.3.3.bmp,mem3.1.3.bmp,mem3.1.3.bmp,ACC018,"[0, 3, 3]","[3, -3, 3]","[3, -3, 3]",match,1.3545027756320973,,-1.9945147320466792,-1.0704414911746816,1.0588577273949507,1st,1st,4th,-1.2466022467719802,-1.2067840466549895,1.4155611487153492
mem,resp,1569,0,mem3.2.3.bmp,mem3.1.1.bmp,mem3.2.3.bmp,ACC018,"[3, 0, 3]","[3, -3, -3]","[3, 0, 3]",match,1.3545027756320973,,-0.18519808877954652,-1.213548469769802,0.8528239972397985,2nd,1st,3rd,-0.29199933511364107,-1.2067840466549895,0.28318162593719604
mem,resp,1971,0,mem2.1.1.bmp,mem3.2.1.bmp,mem1.2.1.bmp,ACC018,"[0, -3, -3]","[3, 0, -3]","[-3, 0, -3]",non-match,1.0144014403465114,3,-0.6965851354149722,-0.31067938788717014,0.8739658858098039,1st,2nd,3rd,-1.2466022467719802,-0.34067824578242084,0.28318162593719604
mem,resp,1068,0,mem1.3.3.bmp,mem1.1.2.bmp,mem1.3.2.bmp,ACC018,"[-3, 3, 3]","[-3, -3, 0]","[-3, 3, 0]",non-match,1.1339745962155614,4,0.9351472164923743,1.10276901752076,0.871923617863482,4th,4th,3rd,1.1950928974358983,1.2494489388976322,0.28318162593719604
mem,resp,1995,1,mem2.2.1.bmp,mem1.3.1.bmp,mem2.2.3.bmp,ACC018,"[0, 0, -3]","[-3, 3, -3]","[0, 0, 3]",non-match,0.7155429496238267,2,3.629576693961265,0.8039768835450736,0.7180796090836282,4th,4th,3rd,1.1950928974358983,1.2494489388976322,0.28318162593719604
mem,resp,1938,0,mem1.1.1.bmp,mem3.3.2.bmp,mem3.2.3.bmp,ACC018,"[-3, -3, -3]","[3, 3, 0]","[3, 0, 3]",non-match,0.7257263057516985,2,-0.8325963518091414,-0.2694147049431756,0.4994822819629644,1st,2nd,3rd,-1.2466022467719802,-0.34067824578242084,0.28318162593719604
mem,resp,802,0,mem2.2.2.bmp,mem2.1.3.bmp,mem2.1.3.bmp,ACC018,"[0, 0, 0]","[0, -3, 3]","[0, -3, 3]",match,1.591751709536137,,0.989436497016527,0.5488499267947959,0.6143071523428258,4th,3rd,3rd,1.1950928974358983,0.3143212460621432,0.28318162593719604
mem,resp,1207,1,mem1.2.2.bmp,mem2.3.2.bmp,mem1.2.2.bmp,ACC018,"[-3, 0, 0]","[0, 3, 0]","[-3, 0, 0]",match,1.591751709536137,,-1.6077979710511472,0.4158867224720449,0.669781039365127,1st,3rd,3rd,-1.2466022467719802,0.3143212460621432,0.28318162593719604
mem,resp,1154,0,mem3.3.3.bmp,mem1.1.3.bmp,mem3.3.3.bmp,ACC018,"[3, 3, 3]","[-3, -3, 3]","[3, 3, 3]",match,1.1835034190722742,,-1.462284810690953,0.3482489704579571,0.9567213357963232,1st,3rd,4th,-1.2466022467719802,0.3143212460621432,1.4155611487153492
mem,resp,898,1,mem3.3.1.bmp,mem3.2.3.bmp,mem3.2.3.bmp,ACC018,"[3, 3, -3]","[3, 0, 3]","[3, 0, 3]",match,1.3545027756320973,,0.8336949668830798,-0.15305501813137737,1.1118775167836443,4th,2nd,4th,1.1950928974358983,-0.34067824578242084,1.4155611487153492
mem,resp,1144,0,mem1.1.2.bmp,mem2.2.1.bmp,mem3.1.3.bmp,ACC018,"[-3, -3, 0]","[0, 0, -3]","[3, -3, 3]",non-match,0.6473959944455496,1,-0.8360564431692944,0.4381593835364746,1.2042638126322913,1st,3rd,4th,-1.2466022467719802,0.3143212460621432,1.4155611487153492
mem,resp,1826,0,mem1.3.2.bmp,mem2.2.3.bmp,mem2.2.3.bmp,ACC018,"[-3, 3, 0]","[0, 0, 3]","[0, 0, 3]",match,1.5,,2.4812049553993694,2.0029352744946047,1.271039718660065,4th,4th,4th,1.1950928974358983,1.2494489388976322,1.4155611487153492
mem,resp,930,1,mem1.1.3.bmp,mem2.1.2.bmp,mem1.1.3.bmp,ACC018,"[-3, -3, 3]","[0, -3, 0]","[-3, -3, 3]",match,1.591751709536137,,0.647851918871166,0.6247221897925529,1.2474832814962957,4th,4th,4th,1.1950928974358983,1.2494489388976322,1.4155611487153492
mem,resp,1055,0,mem3.2.3.bmp,mem1.3.3.bmp,mem2.2.2.bmp,ACC018,"[3, 0, 3]","[-3, 3, 3]","[0, 0, 0]",non-match,1.091751709536137,4,-1.240013045247448,0.09085677322523357,1.1915751558378085,1st,3rd,4th,-1.2466022467719802,0.3143212460621432,1.4155611487153492
mem,resp,2166,0,mem1.2.1.bmp,mem1.2.3.bmp,mem1.2.3.bmp,ACC018,"[-3, 0, -3]","[-3, 0, 3]","[-3, 0, 3]",match,1.4226497308103743,,1.7462887580016053,2.387634612401479,1.0566750572151002,4th,4th,4th,1.1950928974358983,1.2494489388976322,1.4155611487153492
mem,resp,913,1,mem1.3.1.bmp,mem1.3.2.bmp,mem1.3.2.bmp,ACC018,"[-3, 3, -3]","[-3, 3, 0]","[-3, 3, 0]",match,1.7113248654051871,,-0.15211172370077072,0.7031108179681782,1.2826717907766108,2nd,4th,4th,-0.29199933511364107,1.2494489388976322,1.4155611487153492
mem,resp,938,1,mem3.1.2.bmp,mem3.3.3.bmp,mem1.1.2.bmp,ACC018,"[3, -3, 0]","[3, 3, 3]","[-3, -3, 0]",non-match,0.5566243270259357,1,0.439128545263766,1.647791498165161,1.3220427526454284,3rd,4th,4th,0.3603546607574523,1.2494489388976322,1.4155611487153492
mem,resp,917,1,mem1.2.2.bmp,mem1.1.3.bmp,mem1.1.3.bmp,ACC018,"[-3, 0, 0]","[-3, -3, 3]","[-3, -3, 3]",match,1.591751709536137,,-1.2049672387333012,-0.9482090692465576,1.0562595571932496,1st,1st,4th,-1.2466022467719802,-1.2067840466549895,1.4155611487153492
mem,resp,1485,1,mem1.2.3.bmp,mem3.1.2.bmp,mem1.2.3.bmp,ACC018,"[-3, 0, 3]","[3, -3, 0]","[-3, 0, 3]",match,1.2928932188134525,,-0.7259751540747365,-0.5966792801124706,1.0360394495702439,1st,2nd,4th,-1.2466022467719802,-0.34067824578242084,1.4155611487153492
mem,resp,809,1,mem3.2.2.bmp,mem1.2.1.bmp,mem2.3.3.bmp,ACC018,"[3, 0, 0]","[-3, 0, -3]","[0, 3, 3]",non-match,0.7928932188134524,2,-0.8172636658004945,-1.1186674795791882,1.1402190219257278,1st,1st,4th,-1.2466022467719802,-1.2067840466549895,1.4155611487153492
mem,resp,771,0,mem3.2.1.bmp,mem1.1.2.bmp,mem2.1.3.bmp,ACC018,"[3, 0, -3]","[-3, -3, 0]","[0, -3, 3]",non-match,0.8846449283495895,2,0.2546277797099137,-0.8363637030823957,0.9791486083710338,3rd,1st,4th,0.3603546607574523,-1.2067840466549895,1.4155611487153492
mem,resp,1417,1,mem1.3.1.bmp,mem1.3.2.bmp,mem3.2.3.bmp,ACC018,"[-3, 3, -3]","[-3, 3, 0]","[3, 0, 3]",non-match,0.42686781502901383,1,0.041591235845942556,-0.6379830605982131,1.1758135534982994,3rd,2nd,4th,0.3603546607574523,-0.34067824578242084,1.4155611487153492
mem,resp,891,1,mem3.3.2.bmp,mem3.3.1.bmp,mem3.3.2.bmp,ACC018,"[3, 3, 0]","[3, 3, -3]","[3, 3, 0]",match,1.7113248654051871,,-0.43678552522287023,-1.0614311901808098,1.2390297287026948,2nd,1st,4th,-0.29199933511364107,-1.2067840466549895,1.4155611487153492
mem,resp,894,0,mem3.1.3.bmp,mem3.3.3.bmp,mem2.2.3.bmp,ACC018,"[3, -3, 3]","[3, 3, 3]","[0, 0, 3]",non-match,1.1835034190722742,4,-0.7295191644665394,-1.011692482342849,1.6200887906365355,1st,1st,4th,-1.2466022467719802,-1.2067840466549895,1.4155611487153492
mem,resp,1754,1,mem2.2.2.bmp,mem1.2.2.bmp,mem2.2.2.bmp,ACC018,"[0, 0, 0]","[-3, 0, 0]","[0, 0, 0]",match,1.7113248654051871,,1.000418824266805,-0.2598473706090528,1.1767759004379699,4th,2nd,4th,1.1950928974358983,-0.34067824578242084,1.4155611487153492
mem,resp,1614,1,mem2.1.3.bmp,mem1.3.3.bmp,mem2.1.3.bmp,ACC018,"[0, -3, 3]","[-3, 3, 3]","[0, -3, 3]",match,1.3545027756320973,,0.49899634481019467,-1.355131449883061,1.0748080883706168,3rd,1st,4th,0.3603546607574523,-1.2067840466549895,1.4155611487153492
mem,resp,1439,1,mem2.3.1.bmp,mem2.3.2.bmp,mem2.3.1.bmp,ACC018,"[0, 3, -3]","[0, 3, 0]","[0, 3, -3]",match,1.7113248654051871,,-1.7019865054040964,-1.3025445453674493,1.1232993617555187,1st,1st,4th,-1.2466022467719802,-1.2067840466549895,1.4155611487153492
mem,resp,943,1,mem1.3.2.bmp,mem2.3.3.bmp,mem1.3.2.bmp,ACC018,"[-3, 3, 0]","[0, 3, 3]","[-3, 3, 0]",match,1.591751709536137,,-1.7417951090131165,-1.2818903092720733,1.129869489776431,1st,1st,4th,-1.2466022467719802,-1.2067840466549895,1.4155611487153492
mem,resp,979,1,mem3.3.1.bmp,mem2.2.3.bmp,mem2.2.3.bmp,ACC018,"[3, 3, -3]","[0, 0, 3]","[0, 0, 3]",match,1.2928932188134525,,-0.9084438787285816,0.7565083922403268,1.2336316915543264,1st,4th,4th,-1.2466022467719802,1.2494489388976322,1.4155611487153492
mem,resp,923,1,mem1.2.1.bmp,mem2.2.2.bmp,mem1.1.1.bmp,ACC018,"[-3, 0, -3]","[0, 0, 0]","[-3, -3, -3]",non-match,1.2113248654051871,4,-0.7125129911923936,0.6068076487726063,1.0983977959910465,1st,4th,4th,-1.2466022467719802,1.2494489388976322,1.4155611487153492
mem,resp,716,1,mem1.1.3.bmp,mem3.3.2.bmp,mem3.3.2.bmp,ACC018,"[-3, -3, 3]","[3, 3, 0]","[3, 3, 0]",match,1.1339745962155614,,0.7561822892187756,-0.048703442250857036,1.2542638282291094,4th,2nd,4th,1.1950928974358983,-0.34067824578242084,1.4155611487153492
mem,resp,717,1,mem2.1.1.bmp,mem3.2.1.bmp,mem3.2.1.bmp,ACC018,"[0, -3, -3]","[3, 0, -3]","[3, 0, -3]",match,1.591751709536137,,0.3029551268436352,0.549020913377374,1.2015023172961203,3rd,3rd,4th,0.3603546607574523,0.3143212460621432,1.4155611487153492
mem,resp,1050,1,mem3.1.2.bmp,mem1.2.3.bmp,mem1.3.3.bmp,ACC018,"[3, -3, 0]","[-3, 0, 3]","[-3, 3, 3]",non-match,0.8452994616207485,2,-0.394454504032155,0.4691075284645323,1.3493270573541278,2nd,3rd,4th,-0.29199933511364107,0.3143212460621432,1.4155611487153492
mem,resp,1258,1,mem3.3.3.bmp,mem2.3.1.bmp,mem3.3.3.bmp,ACC018,"[3, 3, 3]","[0, 3, -3]","[3, 3, 3]",match,1.3545027756320973,,-0.29619665897562186,0.5136746978258103,1.3866028862517619,2nd,3rd,4th,-0.29199933511364107,0.3143212460621432,1.4155611487153492
mem,resp,881,1,mem3.2.3.bmp,mem3.1.3.bmp,mem3.2.3.bmp,ACC018,"[3, 0, 3]","[3, -3, 3]","[3, 0, 3]",match,1.7113248654051871,,-0.6653035502863424,-0.32734470320956477,1.0790250044645175,1st,2nd,4th,-1.2466022467719802,-0.34067824578242084,1.4155611487153492
mem,resp,915,1,mem2.2.1.bmp,mem3.1.1.bmp,mem1.2.1.bmp,ACC018,"[0, 0, -3]","[3, -3, -3]","[-3, 0, -3]",non-match,1.0658276410372842,3,-1.2918363548568337,0.47930824297497443,1.1684012033319515,1st,3rd,4th,-1.2466022467719802,0.3143212460621432,1.4155611487153492
mem,resp,1784,1,mem1.1.1.bmp,mem2.2.2.bmp,mem1.1.1.bmp,ACC018,"[-3, -3, -3]","[0, 0, 0]","[-3, -3, -3]",match,1.5,,-1.4303590425643171,-1.061176499315671,1.306057707028973,1st,1st,4th,-1.2466022467719802,-1.2067840466549895,1.4155611487153492
mem,resp,759,1,mem1.1.2.bmp,mem1.2.3.bmp,mem1.1.2.bmp,ACC018,"[-3, -3, 0]","[-3, 0, 3]","[-3, -3, 0]",match,1.591751709536137,,0.10866657556090423,0.19751614667000625,1.3345990655331985,3rd,3rd,4th,0.3603546607574523,0.3143212460621432,1.4155611487153492
mem,resp,971,1,mem2.3.2.bmp,mem2.2.3.bmp,mem2.3.2.bmp,ACC018,"[0, 3, 0]","[0, 0, 3]","[0, 3, 0]",match,1.591751709536137,,-0.1939840284903851,0.2519860361871665,1.0486903582513283,2nd,3rd,4th,-0.29199933511364107,0.3143212460621432,1.4155611487153492
mem,resp,745,0,mem1.3.3.bmp,mem2.1.2.bmp,mem1.2.2.bmp,ACC018,"[-3, 3, 3]","[0, -3, 0]","[-3, 0, 0]",non-match,1.1835034190722742,4,-0.619895348969539,0.7495191735045543,1.312617592742966,2nd,4th,4th,-0.29199933511364107,1.2494489388976322,1.4155611487153492
mem,resp,977,1,mem2.3.3.bmp,mem2.3.1.bmp,mem1.1.1.bmp,ACC018,"[0, 3, 3]","[0, 3, -3]","[-3, -3, -3]",non-match,0.4884773718476586,1,-1.2267190279838827,0.6778720989093372,1.2433194224093762,1st,4th,4th,-1.2466022467719802,1.2494489388976322,1.4155611487153492
mem,resp,1153,1,mem2.2.3.bmp,mem2.1.3.bmp,mem2.1.1.bmp,ACC018,"[0, 0, 3]","[0, -3, 3]","[0, -3, -3]",non-match,0.7771525064424715,2,-0.603676748037614,0.17315875728860727,0.7239080674172963,2nd,3rd,3rd,-0.29199933511364107,0.3143212460621432,0.28318162593719604
mem,resp,947,0,mem1.3.2.bmp,mem3.3.3.bmp,mem3.2.3.bmp,ACC018,"[-3, 3, 0]","[3, 3, 3]","[3, 0, 3]",non-match,1.0042180842186395,3,-0.5049213311939815,0.5659813795967474,0.8936074181021281,2nd,4th,3rd,-0.29199933511364107,1.2494489388976322,0.28318162593719604
mem,resp,1545,1,mem2.2.2.bmp,mem3.2.1.bmp,mem1.2.1.bmp,ACC018,"[0, 0, 0]","[3, 0, -3]","[-3, 0, -3]",non-match,1.0144014403465114,3,-0.33992866664880944,0.22595721504829572,1.0232438411869393,2nd,3rd,4th,-0.29199933511364107,0.3143212460621432,1.4155611487153492
mem,resp,669,1,mem3.1.2.bmp,mem3.1.3.bmp,mem3.1.3.bmp,ACC018,"[3, -3, 0]","[3, -3, 3]","[3, -3, 3]",match,1.7113248654051871,,0.54465259294705,-0.3466723004747277,0.6570174329562292,3rd,2nd,3rd,0.3603546607574523,-0.34067824578242084,0.28318162593719604
mem,resp,780,1,mem2.1.2.bmp,mem3.3.2.bmp,mem2.1.2.bmp,ACC018,"[0, -3, 0]","[3, 3, 0]","[0, -3, 0]",match,1.3545027756320973,,-0.31128905123776335,0.3353306213638228,0.6178381204757458,2nd,3rd,3rd,-0.29199933511364107,0.3143212460621432,0.28318162593719604
mem,resp,896,0,mem3.1.1.bmp,mem1.3.3.bmp,mem1.3.2.bmp,ACC018,"[3, -3, -3]","[-3, 3, 3]","[-3, 3, 0]",non-match,0.8452994616207485,2,-0.7060662993200086,1.0128215447117623,0.7435938382281391,1st,4th,3rd,-1.2466022467719802,1.2494489388976322,0.28318162593719604
mem,resp,1090,0,mem3.2.1.bmp,mem2.1.1.bmp,mem3.2.2.bmp,ACC018,"[3, 0, -3]","[0, -3, -3]","[3, 0, 0]",non-match,1.2113248654051871,4,-1.690841510352473,0.360508585212336,0.6782339207138404,1st,3rd,3rd,-1.2466022467719802,0.3143212460621432,0.28318162593719604
mem,resp,1425,1,mem3.1.3.bmp,mem1.2.1.bmp,mem2.3.3.bmp,ACC018,"[3, -3, 3]","[-3, 0, -3]","[0, 3, 3]",non-match,0.6473959944455496,1,-0.5797504076581644,0.04774744456608295,0.4249762118333653,2nd,3rd,3rd,-0.29199933511364107,0.3143212460621432,0.28318162593719604
mem,resp,1271,0,mem3.3.3.bmp,mem1.1.2.bmp,mem3.3.2.bmp,ACC018,"[3, 3, 3]","[-3, -3, 0]","[3, 3, 0]",non-match,0.8948282844774612,2,-0.9378475269621726,-0.35367649475376345,0.044331643253354605,1st,2nd,3rd,-1.2466022467719802,-0.34067824578242084,0.28318162593719604
mem,resp,955,1,mem2.3.2.bmp,mem1.1.3.bmp,mem3.1.1.bmp,ACC018,"[0, 3, 0]","[-3, -3, 3]","[3, -3, -3]",non-match,0.4763966378857265,1,-0.715769481397301,-0.5969930082656495,-0.13169523198420433,1st,2nd,3rd,-1.2466022467719802,-0.34067824578242084,0.28318162593719604
mem,resp,1814,1,mem2.3.2.bmp,mem2.2.1.bmp,mem2.3.2.bmp,ACC018,"[0, 3, 0]","[0, 0, -3]","[0, 3, 0]",match,1.591751709536137,,0.6419024979884298,1.036738435122799,-0.1354123501577261,4th,4th,3rd,1.1950928974358983,1.2494489388976322,0.28318162593719604
mem,resp,1363,1,mem3.2.3.bmp,mem1.2.3.bmp,mem3.2.3.bmp,ACC018,"[3, 0, 3]","[-3, 0, 3]","[3, 0, 3]",match,1.4226497308103743,,0.6313838291652414,0.9411132409966196,-0.32186934160755504,3rd,4th,3rd,0.3603546607574523,1.2494489388976322,0.28318162593719604
mem,resp,805,1,mem1.1.1.bmp,mem2.2.3.bmp,mem1.1.1.bmp,ACC018,"[-3, -3, -3]","[0, 0, 3]","[-3, -3, -3]",match,1.2928932188134525,,0.010507171957600012,0.976183309426042,-0.34821478818981844,2nd,4th,2nd,-0.29199933511364107,1.2494489388976322,-0.572612073051716
mem,resp,1160,0,mem1.3.3.bmp,mem3.2.2.bmp,mem2.2.2.bmp,ACC018,"[-3, 3, 3]","[3, 0, 0]","[0, 0, 0]",non-match,1.2113248654051871,4,-0.3031866760544262,-0.7408809424855787,-0.3421202327891412,2nd,2nd,2nd,-0.29199933511364107,-0.34067824578242084,-0.572612073051716
mem,resp,1096,1,mem1.1.3.bmp,mem2.3.2.bmp,mem2.1.1.bmp,ACC018,"[-3, -3, 3]","[0, 3, 0]","[0, -3, -3]",non-match,0.7090055512641944,2,-0.9904402894146099,1.4885861186029936,-0.33841552499648464,1st,4th,2nd,-1.2466022467719802,1.2494489388976322,-0.572612073051716
mem,resp,1060,1,mem2.1.2.bmp,mem2.3.1.bmp,mem2.3.1.bmp,ACC018,"[0, -3, 0]","[0, 3, -3]","[0, 3, -3]",match,1.3545027756320973,,-0.14871224265697533,0.28593094845151795,-0.2791504850265603,2nd,3rd,3rd,-0.29199933511364107,0.3143212460621432,0.28318162593719604
mem,resp,928,1,mem2.1.3.bmp,mem3.1.3.bmp,mem3.3.3.bmp,ACC018,"[0, -3, 3]","[3, -3, 3]","[3, 3, 3]",non-match,0.7771525064424715,2,-0.469876955224029,-0.6299972099800613,-0.4503059013187309,2nd,2nd,2nd,-0.29199933511364107,-0.34067824578242084,-0.572612073051716
mem,resp,944,1,mem3.1.2.bmp,mem1.1.1.bmp,mem1.2.3.bmp,ACC018,"[3, -3, 0]","[-3, -3, -3]","[-3, 0, 3]",non-match,0.6473959944455496,1,-0.6567231435623345,0.5155355986401419,-0.5470313671349563,2nd,3rd,2nd,-0.29199933511364107,0.3143212460621432,-0.572612073051716
mem,resp,753,0,mem1.1.2.bmp,mem3.2.1.bmp,mem2.2.1.bmp,ACC018,"[-3, -3, 0]","[3, 0, -3]","[0, 0, -3]",non-match,1.2113248654051871,4,1.2557506682313067,0.7327292199581632,-0.4143835248348214,4th,4th,2nd,1.1950928974358983,1.2494489388976322,-0.572612073051716
mem,resp,959,0,mem2.2.2.bmp,mem1.3.3.bmp,mem1.3.3.bmp,ACC018,"[0, 0, 0]","[-3, 3, 3]","[-3, 3, 3]",match,1.5,,-0.24721816397642307,1.4072316693877553,-0.42892300709067,2nd,4th,2nd,-0.29199933511364107,1.2494489388976322,-0.572612073051716
mem,resp,1374,1,mem1.3.1.bmp,mem1.1.3.bmp,mem2.1.1.bmp,ACC018,"[-3, 3, -3]","[-3, -3, 3]","[0, -3, -3]",non-match,0.7090055512641944,2,-2.009675604507713,-0.8989305394749723,-0.4727476964991999,1st,1st,2nd,-1.2466022467719802,-1.2067840466549895,-0.572612073051716
mem,resp,1352,0,mem2.2.3.bmp,mem3.3.1.bmp,mem2.3.2.bmp,ACC018,"[0, 0, 3]","[3, 3, -3]","[0, 3, 0]",non-match,1.1835034190722742,4,0.7900418929869579,1.0868872643259586,-0.5926857492220194,4th,4th,2nd,1.1950928974358983,1.2494489388976322,-0.572612073051716
mem,resp,693,1,mem1.2.2.bmp,mem1.2.1.bmp,mem1.2.1.bmp,ACC018,"[-3, 0, 0]","[-3, 0, -3]","[-3, 0, -3]",match,1.7113248654051871,,0.6132656451040017,-0.4884105570674264,-0.5657754586911046,3rd,2nd,2nd,0.3603546607574523,-0.34067824578242084,-0.572612073051716
mem,resp,913,0,mem3.2.2.bmp,mem1.1.2.bmp,mem3.2.3.bmp,ACC018,"[3, 0, 0]","[-3, -3, 0]","[3, 0, 3]",non-match,1.0042180842186395,3,-0.8361379076285493,-0.8214090355366206,-0.4738012240580983,1st,1st,2nd,-1.2466022467719802,-1.2067840466549895,-0.572612073051716
mem,resp,824,1,mem1.3.2.bmp,mem2.3.3.bmp,mem3.3.2.bmp,ACC018,"[-3, 3, 0]","[0, 3, 3]","[3, 3, 0]",non-match,1.0144014403465114,3,-0.009240638157712757,0.45599369166165726,-0.3006116168837903,2nd,3rd,3rd,-0.29199933511364107,0.3143212460621432,0.28318162593719604
mem,resp,857,1,mem3.3.1.bmp,mem1.3.1.bmp,mem1.3.1.bmp,ACC018,"[3, 3, -3]","[-3, 3, -3]","[-3, 3, -3]",match,1.4226497308103743,,0.8277228376481941,0.747227394084679,-0.2885016777930102,4th,4th,3rd,1.1950928974358983,1.2494489388976322,0.28318162593719604
mem,resp,1281,1,mem3.3.3.bmp,mem3.1.2.bmp,mem3.1.2.bmp,ACC018,"[3, 3, 3]","[3, -3, 0]","[3, -3, 0]",match,1.3545027756320973,,-0.29522670345428936,0.16937752739648784,-0.41978196665468565,2nd,3rd,2nd,-0.29199933511364107,0.3143212460621432,-0.572612073051716
mem,resp,905,1,mem3.1.1.bmp,mem2.1.2.bmp,mem1.1.3.bmp,ACC018,"[3, -3, -3]","[0, -3, 0]","[-3, -3, 3]",non-match,0.7752551286084112,2,0.2184158337973876,0.26102344480998313,-0.37118057331441573,3rd,3rd,2nd,0.3603546607574523,0.3143212460621432,-0.572612073051716
mem,resp,747,1,mem2.2.1.bmp,mem2.2.2.bmp,mem2.2.1.bmp,ACC018,"[0, 0, -3]","[0, 0, 0]","[0, 0, -3]",match,1.7113248654051871,,1.1151450399868366,0.3241620412835362,-0.6659447716700055,4th,3rd,2nd,1.1950928974358983,0.3143212460621432,-0.572612073051716
mem,resp,771,1,mem3.2.1.bmp,mem3.3.2.bmp,mem3.2.1.bmp,ACC018,"[3, 0, -3]","[3, 3, 0]","[3, 0, -3]",match,1.591751709536137,,-0.2081889195418958,1.3761948559741084,-0.8666254084713564,2nd,4th,1st,-0.29199933511364107,1.2494489388976322,-1.1111156255794852
mem,resp,964,1,mem2.3.1.bmp,mem3.2.3.bmp,mem2.1.3.bmp,ACC018,"[0, 3, -3]","[3, 0, 3]","[0, -3, 3]",non-match,0.7752551286084112,2,-1.0588286675933893,0.1466399136264935,-0.8774463826304163,1st,3rd,1st,-1.2466022467719802,0.3143212460621432,-1.1111156255794852
mem,resp,796,1,mem1.2.3.bmp,mem2.1.1.bmp,mem2.1.1.bmp,ACC018,"[-3, 0, 3]","[0, -3, -3]","[0, -3, -3]",match,1.2928932188134525,,-0.35363500218088717,0.11568494440023956,-0.9537967879018538,2nd,3rd,1st,-0.29199933511364107,0.3143212460621432,-1.1111156255794852
mem,resp,849,1,mem1.2.1.bmp,mem1.3.2.bmp,mem1.2.1.bmp,ACC018,"[-3, 0, -3]","[-3, 3, 0]","[-3, 0, -3]",match,1.591751709536137,,-0.3010591245676866,-0.16521335840488754,-1.2987422975304606,2nd,2nd,1st,-0.29199933511364107,-0.34067824578242084,-1.1111156255794852
mem,resp,873,0,mem2.3.3.bmp,mem1.3.1.bmp,mem2.2.3.bmp,ACC018,"[0, 3, 3]","[-3, 3, -3]","[0, 0, 3]",non-match,1.0042180842186395,3,-0.24626255928179305,-0.8589020141713939,-1.5329494320079742,2nd,1st,1st,-0.29199933511364107,-1.2067840466549895,-1.1111156255794852
mem,resp,1268,1,mem3.3.2.bmp,mem2.2.1.bmp,mem3.3.3.bmp,ACC018,"[3, 3, 0]","[0, 0, -3]","[3, 3, 3]",non-match,1.0042180842186395,3,-0.6311844993985533,0.3860207501086145,-1.6329700891444312,2nd,3rd,1st,-0.29199933511364107,0.3143212460621432,-1.1111156255794852
mem,resp,961,1,mem2.1.1.bmp,mem1.1.3.bmp,mem1.2.3.bmp,ACC018,"[0, -3, -3]","[-3, -3, 3]","[-3, 0, 3]",non-match,1.0042180842186395,3,-0.22887292814434873,-0.6620254896614809,-1.4847509877611968,2nd,2nd,1st,-0.29199933511364107,-0.34067824578242084,-1.1111156255794852
mem,resp,995,1,mem3.1.3.bmp,mem3.1.1.bmp,mem3.1.3.bmp,ACC018,"[3, -3, 3]","[3, -3, -3]","[3, -3, 3]",match,1.4226497308103743,,-0.3203362066760181,1.078143490089409,-1.2494153736957727,2nd,4th,1st,-0.29199933511364107,1.2494489388976322,-1.1111156255794852
mem,resp,1375,1,mem3.2.2.bmp,mem2.2.2.bmp,mem2.2.3.bmp,ACC018,"[3, 0, 0]","[0, 0, 0]","[0, 0, 3]",non-match,1.3030765749413242,4,-1.8337041215688528,-0.2383498834723494,-1.147209957717517,1st,2nd,1st,-1.2466022467719802,-0.34067824578242084,-1.1111156255794852
mem,resp,785,1,mem2.2.1.bmp,mem3.2.3.bmp,mem1.2.2.bmp,ACC018,"[0, 0, -3]","[3, 0, 3]","[-3, 0, 0]",non-match,0.9462544851682343,3,-0.1724795069622173,-0.5089258665644577,-1.146410513436926,2nd,2nd,1st,-0.29199933511364107,-0.34067824578242084,-1.1111156255794852
mem,resp,1016,1,mem2.1.3.bmp,mem2.3.1.bmp,mem2.3.1.bmp,ACC018,"[0, -3, 3]","[0, 3, -3]","[0, 3, -3]",match,1.1835034190722742,,-1.2258242180353498,1.3450888043683478,-1.2150723203442164,1st,4th,1st,-1.2466022467719802,1.2494489388976322,-1.1111156255794852
mem,resp,1001,0,mem2.1.1.bmp,mem2.3.2.bmp,mem3.1.3.bmp,ACC018,"[0, -3, -3]","[0, 3, 0]","[3, -3, 3]",non-match,0.6473959944455496,1,0.18977659736479172,0.7164944988955545,-1.1656398785032753,3rd,4th,1st,0.3603546607574523,1.2494489388976322,-1.1111156255794852
mem,resp,1056,1,mem3.2.1.bmp,mem2.1.2.bmp,mem2.1.2.bmp,ACC018,"[3, 0, -3]","[0, -3, 0]","[0, -3, 0]",match,1.5,,-0.4094278609493577,1.4039845356113954,-1.2426214510063334,2nd,4th,1st,-0.29199933511364107,1.2494489388976322,-1.1111156255794852
mem,resp,898,1,mem3.1.1.bmp,mem2.2.3.bmp,mem2.2.3.bmp,ACC018,"[3, -3, -3]","[0, 0, 3]","[0, 0, 3]",match,1.2928932188134525,,0.3358646544260619,1.6828430841203028,-1.243487998598158,3rd,4th,1st,0.3603546607574523,1.2494489388976322,-1.1111156255794852
mem,resp,1351,1,mem3.1.2.bmp,mem1.2.2.bmp,mem3.1.2.bmp,ACC018,"[3, -3, 0]","[-3, 0, 0]","[3, -3, 0]",match,1.3545027756320973,,-0.6697819287444785,-0.21229343340397683,-1.5972042079583277,1st,2nd,1st,-1.2466022467719802,-0.34067824578242084,-1.1111156255794852
mem,resp,947,0,mem2.3.2.bmp,mem3.2.2.bmp,mem2.3.2.bmp,ACC018,"[0, 3, 0]","[3, 0, 0]","[0, 3, 0]",match,1.591751709536137,,-0.17395471213958613,0.4204804703681297,-1.4120526659816381,2nd,3rd,1st,-0.29199933511364107,0.3143212460621432,-1.1111156255794852
mem,resp,891,0,mem1.3.3.bmp,mem3.2.1.bmp,mem2.2.1.bmp,ACC018,"[-3, 3, 3]","[3, 0, -3]","[0, 0, -3]",non-match,1.0042180842186395,3,0.48436250360422484,0.8857115978209019,-1.4211436634339598,3rd,4th,1st,0.3603546607574523,1.2494489388976322,-1.1111156255794852
mem,resp,842,1,mem2.2.3.bmp,mem1.1.2.bmp,mem1.1.2.bmp,ACC018,"[0, 0, 3]","[-3, -3, 0]","[-3, -3, 0]",match,1.5,,0.35494113039594855,2.3238305520718927,-1.3729279965435086,3rd,4th,1st,0.3603546607574523,1.2494489388976322,-1.1111156255794852
mem,resp,1027,0,mem1.1.3.bmp,mem2.3.3.bmp,mem1.2.3.bmp,ACC018,"[-3, -3, 3]","[0, 3, 3]","[-3, 0, 3]",non-match,1.3030765749413242,4,0.7480984741375399,0.3466323226498926,-1.2203525145879868,4th,3rd,1st,1.1950928974358983,0.3143212460621432,-1.1111156255794852
mem,resp,633,0,mem1.1.1.bmp,mem1.2.3.bmp,mem2.1.3.bmp,ACC018,"[-3, -3, -3]","[-3, 0, 3]","[0, -3, 3]",non-match,0.9462544851682343,3,0.2931622760594085,0.5904763449341398,-0.9912215406373944,3rd,4th,1st,0.3603546607574523,1.2494489388976322,-1.1111156255794852
mem,resp,836,0,mem2.3.2.bmp,mem1.3.3.bmp,mem2.2.3.bmp,ACC018,"[0, 3, 0]","[-3, 3, 3]","[0, 0, 3]",non-match,1.1835034190722742,4,0.3871522018014343,0.24355196187222236,-1.613185855555095,3rd,3rd,1st,0.3603546607574523,0.3143212460621432,-1.1111156255794852
mem,resp,811,1,mem2.1.2.bmp,mem1.2.1.bmp,mem3.3.1.bmp,ACC018,"[0, -3, 0]","[-3, 0, -3]","[3, 3, -3]",non-match,0.6473959944455496,1,1.0930954708788743,0.14966430989228877,-1.6582754498623815,4th,3rd,1st,1.1950928974358983,0.3143212460621432,-1.1111156255794852
mem,resp,905,1,mem3.2.2.bmp,mem1.1.1.bmp,mem1.1.1.bmp,ACC018,"[3, 0, 0]","[-3, -3, -3]","[-3, -3, -3]",match,1.2928932188134525,,0.6417415830027537,-0.24105424858732646,-1.39342570306941,3rd,2nd,1st,0.3603546607574523,-0.34067824578242084,-1.1111156255794852
mem,resp,696,0,mem3.3.2.bmp,mem2.2.3.bmp,mem2.3.1.bmp,ACC018,"[3, 3, 0]","[0, 0, 3]","[0, 3, -3]",non-match,0.9462544851682343,3,-0.170112074145028,-0.6037084968182249,-1.3232842969812735,2nd,2nd,1st,-0.29199933511364107,-0.34067824578242084,-1.1111156255794852
mem,resp,1261,1,mem1.2.2.bmp,mem2.3.2.bmp,mem1.3.1.bmp,ACC018,"[-3, 0, 0]","[0, 3, 0]","[-3, 3, -3]",non-match,1.1835034190722742,4,-0.7226431182616894,-1.5130801633670043,-1.2863126914579674,1st,1st,1st,-1.2466022467719802,-1.2067840466549895,-1.1111156255794852
mem,resp,885,0,mem3.2.3.bmp,mem2.1.1.bmp,mem2.2.2.bmp,ACC018,"[3, 0, 3]","[0, -3, -3]","[0, 0, 0]",non-match,1.1835034190722742,4,0.3224106597348743,-0.88816633460602,-1.0112459758830572,3rd,1st,1st,0.3603546607574523,-1.2067840466549895,-1.1111156255794852
mem,resp,956,0,mem3.3.3.bmp,mem3.2.1.bmp,mem3.1.2.bmp,ACC018,"[3, 3, 3]","[3, 0, -3]","[3, -3, 0]",non-match,0.9462544851682343,3,0.13871611614910256,-0.4600194387606544,-0.5972699546687874,3rd,2nd,2nd,0.3603546607574523,-0.34067824578242084,-0.572612073051716
mem,resp,1161,1,mem1.3.2.bmp,mem2.3.1.bmp,mem2.3.3.bmp,ACC018,"[-3, 3, 0]","[0, 3, -3]","[0, 3, 3]",non-match,1.0144014403465114,3,-0.3131644893649177,-0.9899137298603574,-0.9347371160236093,2nd,1st,1st,-0.29199933511364107,-1.2067840466549895,-1.1111156255794852
mem,resp,675,1,mem1.1.2.bmp,mem3.1.3.bmp,mem1.1.2.bmp,ACC018,"[-3, -3, 0]","[3, -3, 3]","[-3, -3, 0]",match,1.3545027756320973,,0.4168898275064833,-0.9440321248409875,-1.295797744410637,3rd,1st,1st,0.3603546607574523,-1.2067840466549895,-1.1111156255794852
mem,resp,986,1,mem1.2.3.bmp,mem3.2.2.bmp,mem3.2.2.bmp,ACC018,"[-3, 0, 3]","[3, 0, 0]","[3, 0, 0]",match,1.3545027756320973,,-0.0009144134212377013,0.09076113826856921,-1.0900088469731364,2nd,3rd,1st,-0.29199933511364107,0.3143212460621432,-1.1111156255794852
mem,resp,992,1,mem3.1.2.bmp,mem3.1.1.bmp,mem3.3.1.bmp,ACC018,"[3, -3, 0]","[3, -3, -3]","[3, 3, -3]",non-match,0.7771525064424715,2,0.6511548408711362,0.3483036122344855,-0.7403210542582223,4th,3rd,2nd,1.1950928974358983,0.3143212460621432,-0.572612073051716
mem,resp,1056,1,mem2.2.3.bmp,mem2.3.3.bmp,mem2.3.3.bmp,ACC018,"[0, 0, 3]","[0, 3, 3]","[0, 3, 3]",match,1.7113248654051871,,0.28864869344727606,-0.22901154225547105,-0.6299989887123659,3rd,2nd,2nd,0.3603546607574523,-0.34067824578242084,-0.572612073051716
mem,resp,938,1,mem2.2.1.bmp,mem2.1.3.bmp,mem2.2.1.bmp,ACC018,"[0, 0, -3]","[0, -3, 3]","[0, 0, -3]",match,1.3545027756320973,,-0.29227975325689265,-0.1426635550081637,-0.9528782095091118,2nd,2nd,1st,-0.29199933511364107,-0.34067824578242084,-1.1111156255794852
mem,resp,1436,1,mem1.3.1.bmp,mem1.2.2.bmp,mem2.2.2.bmp,ACC018,"[-3, 3, -3]","[-3, 0, 0]","[0, 0, 0]",non-match,1.2113248654051871,4,-1.6478763410620287,-1.0433961339503601,-0.7452449048128393,1st,1st,2nd,-1.2466022467719802,-1.2067840466549895,-0.572612073051716
mem,resp,1364,1,mem1.3.3.bmp,mem2.1.2.bmp,mem3.1.3.bmp,ACC018,"[-3, 3, 3]","[0, -3, 0]","[3, -3, 3]",non-match,0.7752551286084112,2,-1.2316798324169194,-1.1435606711508948,-0.7528669452641107,1st,1st,2nd,-1.2466022467719802,-1.2067840466549895,-0.572612073051716
mem,resp,838,1,mem2.3.1.bmp,mem3.2.3.bmp,mem2.1.1.bmp,ACC018,"[0, 3, -3]","[3, 0, 3]","[0, -3, -3]",non-match,0.7155429496238267,2,0.4317356981700871,-0.6151261163917079,-0.8726687991610217,3rd,2nd,1st,0.3603546607574523,-0.34067824578242084,-1.1111156255794852
mem,resp,1081,1,mem3.3.1.bmp,mem3.3.3.bmp,mem1.2.3.bmp,ACC018,"[3, 3, -3]","[3, 3, 3]","[-3, 0, 3]",non-match,0.4884773718476586,1,-0.6411540403649231,-0.7446023886820432,-0.9750233958254854,2nd,1st,1st,-0.29199933511364107,-1.2067840466549895,-1.1111156255794852
mem,resp,905,0,mem3.1.1.bmp,mem2.2.1.bmp,mem3.2.1.bmp,ACC018,"[3, -3, -3]","[0, 0, -3]","[3, 0, -3]",non-match,1.4226497308103743,4,-1.9648961784041452,-1.5543665987614985,-0.8818012918817092,1st,1st,1st,-1.2466022467719802,-1.2067840466549895,-1.1111156255794852
mem,resp,818,1,mem1.2.1.bmp,mem3.1.2.bmp,mem3.3.2.bmp,ACC018,"[-3, 0, -3]","[3, -3, 0]","[3, 3, 0]",non-match,0.7155429496238267,2,-1.044088977751459,-0.6146938634483323,-0.901171844900923,1st,2nd,1st,-1.2466022467719802,-0.34067824578242084,-1.1111156255794852
mem,resp,799,1,mem2.1.3.bmp,mem1.3.1.bmp,mem2.1.3.bmp,ACC018,"[0, -3, 3]","[-3, 3, -3]","[0, -3, 3]",match,1.1339745962155614,,0.15116549977475394,-1.1543472564005628,-0.963332967306465,3rd,1st,1st,0.3603546607574523,-1.2067840466549895,-1.1111156255794852
mem,resp,883,1,mem2.1.1.bmp,mem1.3.2.bmp,mem1.1.2.bmp,ACC018,"[0, -3, -3]","[-3, 3, 0]","[-3, -3, 0]",non-match,1.0144014403465114,3,-0.7138441705218179,-0.35575771613971524,-1.1289207876061342,1st,2nd,1st,-1.2466022467719802,-0.34067824578242084,-1.1111156255794852
mem,resp,704,1,mem3.2.1.bmp,mem3.3.3.bmp,mem1.1.1.bmp,ACC018,"[3, 0, -3]","[3, 3, 3]","[-3, -3, -3]",non-match,0.3545027756320972,1,-1.1392963741440087,-1.5758241827101391,-0.9353717675696821,1st,1st,1st,-1.2466022467719802,-1.2067840466549895,-1.1111156255794852
mem,resp,1210,1,mem3.1.3.bmp,mem3.3.2.bmp,mem3.3.2.bmp,ACC018,"[3, -3, 3]","[3, 3, 0]","[3, 3, 0]",match,1.3545027756320973,,-0.6643122818236359,-0.3651949622894763,-1.0523262946894019,2nd,2nd,1st,-0.29199933511364107,-0.34067824578242084,-1.1111156255794852
mem,resp,611,0,mem2.3.3.bmp,mem3.2.2.bmp,mem3.2.3.bmp,ACC018,"[0, 3, 3]","[3, 0, 0]","[3, 0, 3]",non-match,1.3030765749413242,4,0.5033628186669699,-0.24623436482771416,-1.1865808260035384,3rd,2nd,1st,0.3603546607574523,-0.34067824578242084,-1.1111156255794852
mem,resp,647,1,mem2.2.2.bmp,mem1.1.2.bmp,mem1.1.2.bmp,ACC018,"[0, 0, 0]","[-3, -3, 0]","[-3, -3, 0]",match,1.591751709536137,,0.3166190620532678,0.7381359597678103,-0.9968354813204813,3rd,4th,1st,0.3603546607574523,1.2494489388976322,-1.1111156255794852
mem,resp,585,1,mem1.2.2.bmp,mem2.2.3.bmp,mem2.2.3.bmp,ACC018,"[-3, 0, 0]","[0, 0, 3]","[0, 0, 3]",match,1.591751709536137,,-0.3794215446643996,-0.7719200543607709,-1.041421716960623,2nd,1st,1st,-0.29199933511364107,-1.2067840466549895,-1.1111156255794852
mem,resp,647,1,mem1.3.3.bmp,mem1.3.1.bmp,mem3.2.1.bmp,ACC018,"[-3, 3, 3]","[-3, 3, -3]","[3, 0, -3]",non-match,0.4884773718476586,1,0.46768137369105667,-0.9007077597022225,-1.3200907803008126,3rd,1st,1st,0.3603546607574523,-1.2067840466549895,-1.1111156255794852
mem,resp,857,1,mem2.3.3.bmp,mem2.3.2.bmp,mem1.3.2.bmp,ACC018,"[0, 3, 3]","[0, 3, 0]","[-3, 3, 0]",non-match,1.3030765749413242,4,-0.6451587971545255,-1.1725903115531129,-1.3021593120570567,2nd,1st,1st,-0.29199933511364107,-1.2067840466549895,-1.1111156255794852
mem,resp,969,1,mem2.2.2.bmp,mem2.1.3.bmp,mem2.2.2.bmp,ACC018,"[0, 0, 0]","[0, -3, 3]","[0, 0, 0]",match,1.591751709536137,,-0.604386223448622,-0.15693510556541998,-1.117828767277409,2nd,2nd,1st,-0.29199933511364107,-0.34067824578242084,-1.1111156255794852
mem,resp,1648,1,mem1.1.1.bmp,mem3.2.3.bmp,mem2.1.2.bmp,ACC018,"[-3, -3, -3]","[3, 0, 3]","[0, -3, 0]",non-match,1.091751709536137,4,-1.1418933275139445,0.352075363934666,-1.1835999096592351,1st,3rd,1st,-1.2466022467719802,0.3143212460621432,-1.1111156255794852
mem,resp,722,1,mem2.2.3.bmp,mem3.1.3.bmp,mem3.1.3.bmp,ACC018,"[0, 0, 3]","[3, -3, 3]","[3, -3, 3]",match,1.591751709536137,,-0.7896151054987123,-0.3478990154664247,-1.175076236713116,1st,2nd,1st,-1.2466022467719802,-0.34067824578242084,-1.1111156255794852
mem,resp,1257,1,mem3.2.2.bmp,mem1.3.2.bmp,mem1.3.3.bmp,ACC018,"[3, 0, 0]","[-3, 3, 0]","[-3, 3, 3]",non-match,1.0042180842186395,3,-1.0775158372286358,-0.13067705435450627,-0.745257859207048,1st,2nd,2nd,-1.2466022467719802,-0.34067824578242084,-0.572612073051716
mem,resp,699,1,mem3.1.2.bmp,mem2.3.1.bmp,mem3.1.2.bmp,ACC018,"[3, -3, 0]","[0, 3, -3]","[3, -3, 0]",match,1.2928932188134525,,1.3473131805915828,-0.835209022349435,-0.4249544765652058,4th,1st,2nd,1.1950928974358983,-1.2067840466549895,-0.572612073051716
mem,resp,995,1,mem1.2.3.bmp,mem3.1.1.bmp,mem1.3.1.bmp,ACC018,"[-3, 0, 3]","[3, -3, -3]","[-3, 3, -3]",non-match,0.5380061947043713,1,-0.614263231052118,-0.07621252001579079,-0.3164492777681541,2nd,2nd,3rd,-0.29199933511364107,-0.34067824578242084,0.28318162593719604
mem,resp,1428,1,mem3.3.2.bmp,mem1.1.3.bmp,mem2.1.1.bmp,ACC018,"[3, 3, 0]","[-3, -3, 3]","[0, -3, -3]",non-match,0.6473959944455496,1,-0.022690095619907653,0.2351359909038822,-0.2504958879145272,2nd,3rd,3rd,-0.29199933511364107,0.3143212460621432,0.28318162593719604
mem,resp,1454,0,mem1.2.1.bmp,mem2.1.2.bmp,mem2.2.3.bmp,ACC018,"[-3, 0, -3]","[0, -3, 0]","[0, 0, 3]",non-match,0.9462544851682343,3,-0.8277157726317563,-0.2022049406860917,-0.36800686658988707,1st,2nd,2nd,-1.2466022467719802,-0.34067824578242084,-0.572612073051716
mem,resp,827,0,mem2.3.1.bmp,mem3.1.1.bmp,mem2.2.1.bmp,ACC018,"[0, 3, -3]","[3, -3, -3]","[0, 0, -3]",non-match,1.3030765749413242,4,0.03231558497481837,-1.1160081832668804,-0.0914095908081094,2nd,1st,3rd,-0.29199933511364107,-1.2067840466549895,0.28318162593719604
mem,resp,881,1,mem1.2.1.bmp,mem3.1.2.bmp,mem3.1.2.bmp,ACC018,"[-3, 0, -3]","[3, -3, 0]","[3, -3, 0]",match,1.2928932188134525,,0.5568122793219307,0.893058950039087,-0.4318477341497963,3rd,4th,2nd,0.3603546607574523,1.2494489388976322,-0.572612073051716
mem,resp,1438,1,mem1.2.3.bmp,mem3.3.3.bmp,mem3.2.1.bmp,ACC018,"[-3, 0, 3]","[3, 3, 3]","[3, 0, -3]",non-match,0.5380061947043713,1,-0.8874000477307921,-0.214704969779001,-0.35255620435124585,1st,2nd,2nd,-1.2466022467719802,-0.34067824578242084,-0.572612073051716
mem,resp,620,1,mem1.1.2.bmp,mem1.2.2.bmp,mem1.1.2.bmp,ACC018,"[-3, -3, 0]","[-3, 0, 0]","[-3, -3, 0]",match,1.7113248654051871,,0.1602052974604922,0.41952540035740266,-0.6226914881227733,3rd,3rd,2nd,0.3603546607574523,0.3143212460621432,-0.572612073051716
mem,resp,1004,1,mem3.2.2.bmp,mem1.3.2.bmp,mem1.3.2.bmp,ACC018,"[3, 0, 0]","[-3, 3, 0]","[-3, 3, 0]",match,1.3545027756320973,,1.7316349516035954,-0.3219025623530256,-0.7525534568330208,4th,2nd,2nd,1.1950928974358983,-0.34067824578242084,-0.572612073051716
mem,resp,897,1,mem2.1.2.bmp,mem1.1.3.bmp,mem3.1.1.bmp,ACC018,"[0, -3, 0]","[-3, -3, 3]","[3, -3, -3]",non-match,0.7752551286084112,2,0.3767372034025495,-0.3332117040197665,-0.6523658849376178,3rd,2nd,2nd,0.3603546607574523,-0.34067824578242084,-0.572612073051716
mem,resp,870,1,mem2.2.3.bmp,mem2.3.3.bmp,mem3.1.3.bmp,ACC018,"[0, 0, 3]","[0, 3, 3]","[3, -3, 3]",non-match,0.9462544851682343,3,-0.36124491792297614,1.4294177471688232,-0.6428136948103521,2nd,4th,2nd,-0.29199933511364107,1.2494489388976322,-0.572612073051716
mem,resp,1153,1,mem3.2.1.bmp,mem3.3.1.bmp,mem3.3.3.bmp,ACC018,"[3, 0, -3]","[3, 3, -3]","[3, 3, 3]",non-match,0.7771525064424715,2,-0.34082860627022504,0.23628233082793704,-0.5846417779278644,2nd,3rd,2nd,-0.29199933511364107,0.3143212460621432,-0.572612073051716
mem,resp,1603,0,mem2.1.1.bmp,mem1.2.1.bmp,mem2.2.2.bmp,ACC018,"[0, -3, -3]","[-3, 0, -3]","[0, 0, 0]",non-match,1.1835034190722742,4,0.4918246087571794,-0.32803533166519544,-0.6494949192766519,3rd,2nd,2nd,0.3603546607574523,-0.34067824578242084,-0.572612073051716
mem,resp,1129,0,mem2.3.2.bmp,mem1.3.3.bmp,mem1.3.3.bmp,ACC018,"[0, 3, 0]","[-3, 3, 3]","[-3, 3, 3]",match,1.591751709536137,,1.2926183989001025,0.4447092406849174,-0.4707866313902178,4th,3rd,2nd,1.1950928974358983,0.3143212460621432,-0.572612073051716
mem,resp,1367,0,mem1.3.2.bmp,mem3.1.3.bmp,mem3.1.3.bmp,ACC018,"[-3, 3, 0]","[3, -3, 3]","[3, -3, 3]",match,1.1339745962155614,,0.3098283735548958,-0.11361777798416978,-0.47106456600842955,3rd,2nd,2nd,0.3603546607574523,-0.34067824578242084,-0.572612073051716
mem,resp,899,0,mem3.1.2.bmp,mem2.1.3.bmp,mem3.2.2.bmp,ACC018,"[3, -3, 0]","[0, -3, 3]","[3, 0, 0]",non-match,1.2113248654051871,4,1.5200645691534445,1.3114488529296313,-0.4948403913991452,4th,4th,2nd,1.1950928974358983,1.2494489388976322,-0.572612073051716
mem,resp,568,1,mem1.1.1.bmp,mem2.1.2.bmp,mem1.1.1.bmp,ACC018,"[-3, -3, -3]","[0, -3, 0]","[-3, -3, -3]",match,1.591751709536137,,1.870061986340581,0.37873784959561435,-0.7477689576406074,4th,3rd,2nd,1.1950928974358983,0.3143212460621432,-0.572612073051716
mem,resp,949,1,mem3.3.1.bmp,mem2.3.1.bmp,mem2.3.1.bmp,ACC018,"[3, 3, -3]","[0, 3, -3]","[0, 3, -3]",match,1.7113248654051871,,0.8381589909381834,2.0025514077210786,-0.8571946087846696,4th,4th,1st,1.1950928974358983,1.2494489388976322,-1.1111156255794852
mem,resp,1066,1,mem3.1.3.bmp,mem1.2.3.bmp,mem3.1.3.bmp,ACC018,"[3, -3, 3]","[-3, 0, 3]","[3, -3, 3]",match,1.3545027756320973,,0.3299557118628276,0.5682063377634529,-0.49332865795893943,3rd,4th,2nd,0.3603546607574523,1.2494489388976322,-0.572612073051716
mem,resp,886,1,mem3.3.3.bmp,mem3.3.2.bmp,mem2.3.3.bmp,ACC018,"[3, 3, 3]","[3, 3, 0]","[0, 3, 3]",non-match,1.3030765749413242,4,0.4381153999405181,-0.4302987196886889,0.055011115523229875,3rd,2nd,3rd,0.3603546607574523,-0.34067824578242084,0.28318162593719604
mem,resp,778,1,mem2.1.3.bmp,mem2.2.1.bmp,mem1.3.3.bmp,ACC018,"[0, -3, 3]","[0, 0, -3]","[-3, 3, 3]",non-match,0.6473959944455496,1,-1.190652928359536,0.2517342954092685,0.19341924562711718,1st,3rd,3rd,-1.2466022467719802,0.3143212460621432,0.28318162593719604
mem,resp,1000,0,mem3.2.3.bmp,mem1.1.2.bmp,mem3.1.2.bmp,ACC018,"[3, 0, 3]","[-3, -3, 0]","[3, -3, 0]",non-match,1.0144014403465114,3,-0.5554518049104268,1.0659164803153005,0.1408253818277498,2nd,4th,3rd,-0.29199933511364107,1.2494489388976322,0.28318162593719604
mem,resp,772,1,mem3.1.1.bmp,mem2.1.1.bmp,mem2.1.1.bmp,ACC018,"[3, -3, -3]","[0, -3, -3]","[0, -3, -3]",match,1.7113248654051871,,-0.2118334239730002,-0.15064722564216915,0.23674396265672112,2nd,2nd,3rd,-0.29199933511364107,-0.34067824578242084,0.28318162593719604
mem,resp,1327,1,mem1.3.1.bmp,mem3.3.2.bmp,mem3.1.3.bmp,ACC018,"[-3, 3, -3]","[3, 3, 0]","[3, -3, 3]",non-match,0.3545027756320972,1,-1.5109310404427339,-1.1731286491597648,0.34590882313347215,1st,1st,3rd,-1.2466022467719802,-1.2067840466549895,0.28318162593719604
mem,resp,1101,1,mem2.2.1.bmp,mem2.3.1.bmp,mem3.2.1.bmp,ACC018,"[0, 0, -3]","[0, 3, -3]","[3, 0, -3]",non-match,1.3030765749413242,4,-0.17894659391665163,-0.34576177796611357,0.3350764588582971,2nd,2nd,3rd,-0.29199933511364107,-0.34067824578242084,0.28318162593719604
mem,resp,887,1,mem2.2.2.bmp,mem2.3.3.bmp,mem3.3.1.bmp,ACC018,"[0, 0, 0]","[0, 3, 3]","[3, 3, -3]",non-match,0.8545027756320972,2,-0.39330327232611334,-0.22259447457609266,-0.39705397645881796,2nd,2nd,2nd,-0.29199933511364107,-0.34067824578242084,-0.572612073051716
mem,resp,1050,0,mem1.2.2.bmp,mem3.2.2.bmp,mem2.3.2.bmp,ACC018,"[-3, 0, 0]","[3, 0, 0]","[0, 3, 0]",non-match,1.1835034190722742,4,0.46983275113424433,-0.5636583019983266,-0.39021686259689575,3rd,2nd,2nd,0.3603546607574523,-0.34067824578242084,-0.572612073051716
mem,resp,1560,0,mem1.3.3.bmp,mem2.1.3.bmp,mem1.1.2.bmp,ACC018,"[-3, 3, 3]","[0, -3, 3]","[-3, -3, 0]",non-match,0.9462544851682343,3,-0.243760258177477,0.6125052742928594,-0.032615208280492136,2nd,4th,3rd,-0.29199933511364107,1.2494489388976322,0.28318162593719604
mem,resp,869,1,mem3.3.2.bmp,mem3.1.2.bmp,mem1.1.1.bmp,ACC018,"[3, 3, 0]","[3, -3, 0]","[-3, -3, -3]",non-match,0.4884773718476586,1,0.7932176726209768,0.27310321087232015,-0.32855287597250427,4th,3rd,2nd,1.1950928974358983,0.3143212460621432,-0.572612073051716
mem,resp,1084,1,mem1.1.3.bmp,mem2.2.3.bmp,mem1.1.3.bmp,ACC018,"[-3, -3, 3]","[0, 0, 3]","[-3, -3, 3]",match,1.591751709536137,,2.4852269281819095,0.6150487470996733,-0.2076741597643565,4th,4th,3rd,1.1950928974358983,1.2494489388976322,0.28318162593719604
mem,resp,786,1,mem2.3.3.bmp,mem1.3.2.bmp,mem3.2.2.bmp,ACC018,"[0, 3, 3]","[-3, 3, 0]","[3, 0, 0]",non-match,0.8545027756320972,2,-0.12956615770137833,-1.3059202271219819,-0.25318060215007454,2nd,1st,3rd,-0.29199933511364107,-1.2067840466549895,0.28318162593719604
mem,resp,899,1,mem3.2.1.bmp,mem1.2.3.bmp,mem3.2.1.bmp,ACC018,"[3, 0, -3]","[-3, 0, 3]","[3, 0, -3]",match,1.1835034190722742,,1.2051132278755368,-0.6559867440133453,0.12430981583278598,4th,2nd,3rd,1.1950928974358983,-0.34067824578242084,0.28318162593719604
mem,resp,1265,1,mem2.1.1.bmp,mem2.3.2.bmp,mem2.1.2.bmp,ACC018,"[0, -3, -3]","[0, 3, 0]","[0, -3, 0]",non-match,1.1339745962155614,4,-1.4667841823848697,-0.3314930708664391,0.3780177354705449,1st,2nd,3rd,-1.2466022467719802,-0.34067824578242084,0.28318162593719604
mem,resp,1383,1,mem3.3.3.bmp,mem1.1.3.bmp,mem3.3.3.bmp,ACC018,"[3, 3, 3]","[-3, -3, 3]","[3, 3, 3]",match,1.1835034190722742,,-1.27495131751077,-0.35869064785329996,0.28526958495045324,1st,2nd,3rd,-1.2466022467719802,-0.34067824578242084,0.28318162593719604
mem,resp,532,0,mem1.3.3.bmp,mem3.3.1.bmp,mem3.2.2.bmp,ACC018,"[-3, 3, 3]","[3, 3, -3]","[3, 0, 0]",non-match,0.8846449283495895,2,0.5943799818503144,0.6065946737997377,0.31746515801299985,3rd,4th,3rd,0.3603546607574523,1.2494489388976322,0.28318162593719604
mem,resp,823,1,mem3.1.1.bmp,mem2.2.2.bmp,mem1.2.1.bmp,ACC018,"[3, -3, -3]","[0, 0, 0]","[-3, 0, -3]",non-match,0.9462544851682343,3,-0.3735818745506531,-1.9448616229700395,0.7167257437892198,2nd,1st,3rd,-0.29199933511364107,-1.2067840466549895,0.28318162593719604
mem,resp,532,1,mem1.3.1.bmp,mem1.2.2.bmp,mem1.2.2.bmp,ACC018,"[-3, 3, -3]","[-3, 0, 0]","[-3, 0, 0]",match,1.591751709536137,,0.4867594790715424,-0.6404361588448889,0.6358260025399863,3rd,2nd,3rd,0.3603546607574523,-0.34067824578242084,0.28318162593719604
mem,resp,776,1,mem2.3.2.bmp,mem3.3.3.bmp,mem2.3.2.bmp,ACC018,"[0, 3, 0]","[3, 3, 3]","[0, 3, 0]",match,1.591751709536137,,1.0216205290905778,0.032086959762095066,0.7330655288573555,4th,3rd,3rd,1.1950928974358983,0.3143212460621432,0.28318162593719604
mem,resp,595,1,mem3.3.1.bmp,mem3.1.3.bmp,mem3.1.3.bmp,ACC018,"[3, 3, -3]","[3, -3, 3]","[3, -3, 3]",match,1.1835034190722742,,-0.19000958389757788,-0.7801825260106602,0.7510382352278148,2nd,1st,3rd,-0.29199933511364107,-1.2067840466549895,0.28318162593719604
mem,resp,694,1,mem2.2.2.bmp,mem2.1.2.bmp,mem2.1.2.bmp,ACC018,"[0, 0, 0]","[0, -3, 0]","[0, -3, 0]",match,1.7113248654051871,,0.9713739255476797,-0.6010417364297657,1.0415677777868988,4th,2nd,4th,1.1950928974358983,-0.34067824578242084,1.4155611487153492
mem,resp,618,1,mem1.1.3.bmp,mem1.1.1.bmp,mem1.1.3.bmp,ACC018,"[-3, -3, 3]","[-3, -3, -3]","[-3, -3, 3]",match,1.4226497308103743,,0.7824373305442672,-0.09521364095961761,0.9089938469489152,4th,2nd,4th,1.1950928974358983,-0.34067824578242084,1.4155611487153492
mem,resp,648,1,mem2.2.1.bmp,mem2.1.1.bmp,mem2.2.1.bmp,ACC018,"[0, 0, -3]","[0, -3, -3]","[0, 0, -3]",match,1.7113248654051871,,0.45299259270875664,0.013609366750015957,1.1170871353200131,3rd,2nd,4th,0.3603546607574523,-0.34067824578242084,1.4155611487153492
mem,resp,706,1,mem2.1.3.bmp,mem1.1.1.bmp,mem2.1.3.bmp,ACC018,"[0, -3, 3]","[-3, -3, -3]","[0, -3, 3]",match,1.3545027756320973,,0.18443256710647296,-1.5461079420838644,1.1617527422965703,3rd,1st,4th,0.3603546607574523,-1.2067840466549895,1.4155611487153492
mem,resp,767,1,mem3.1.2.bmp,mem3.1.1.bmp,mem1.1.2.bmp,ACC018,"[3, -3, 0]","[3, -3, -3]","[-3, -3, 0]",non-match,0.7771525064424715,2,-0.1261839343295635,-0.804623252394682,1.0559011521190327,2nd,1st,4th,-0.29199933511364107,-1.2067840466549895,1.4155611487153492
mem,resp,526,0,mem2.2.2.bmp,mem3.3.2.bmp,mem1.2.1.bmp,ACC018,"[0, 0, 0]","[3, 3, 0]","[-3, 0, -3]",non-match,0.8846449283495895,2,0.9882141103506771,-0.2089129414670353,1.05380384606289,4th,2nd,4th,1.1950928974358983,-0.34067824578242084,1.4155611487153492
mem,resp,1031,0,mem3.3.3.bmp,mem1.1.3.bmp,mem3.3.1.bmp,ACC018,"[3, 3, 3]","[-3, -3, 3]","[3, 3, -3]",non-match,0.42264973081037427,1,-0.6737174843752619,-0.4265782450068976,1.6332036890456498,1st,2nd,4th,-1.2466022467719802,-0.34067824578242084,1.4155611487153492
mem,resp,1284,0,mem2.1.2.bmp,mem2.3.3.bmp,mem2.3.3.bmp,ACC018,"[0, -3, 0]","[0, 3, 3]","[0, 3, 3]",match,1.3545027756320973,,1.9027696177513738,1.7059123398262401,1.8038247454139882,4th,4th,4th,1.1950928974358983,1.2494489388976322,1.4155611487153492
mem,resp,978,1,mem2.2.3.bmp,mem2.2.1.bmp,mem3.1.2.bmp,ACC018,"[0, 0, 3]","[0, 0, -3]","[3, -3, 0]",non-match,1.0,3,1.473932639299924,1.796559208418413,1.7013032040644585,4th,4th,4th,1.1950928974358983,1.2494489388976322,1.4155611487153492
mem,resp,1174,1,mem2.3.2.bmp,mem2.3.1.bmp,mem1.3.1.bmp,ACC018,"[0, 3, 0]","[0, 3, -3]","[-3, 3, -3]",non-match,1.3030765749413242,4,1.32717549451554,1.3613517230519745,1.8646670022908314,4th,4th,4th,1.1950928974358983,1.2494489388976322,1.4155611487153492
mem,resp,706,1,mem1.3.2.bmp,mem3.2.1.bmp,mem1.3.2.bmp,ACC018,"[-3, 3, 0]","[3, 0, -3]","[-3, 3, 0]",match,1.2928932188134525,,1.260160141182183,0.4849271521111755,1.6538199767283501,4th,3rd,4th,1.1950928974358983,0.3143212460621432,1.4155611487153492
mem,resp,926,1,mem3.3.1.bmp,mem2.1.3.bmp,mem1.1.1.bmp,ACC018,"[3, 3, -3]","[0, -3, 3]","[-3, -3, -3]",non-match,0.5380061947043713,1,0.41971669747144497,1.3573417843883684,1.589987326596117,3rd,4th,4th,0.3603546607574523,1.2494489388976322,1.4155611487153492
mem,resp,832,1,mem1.3.3.bmp,mem1.2.2.bmp,mem1.2.2.bmp,ACC018,"[-3, 3, 3]","[-3, 0, 0]","[-3, 0, 0]",match,1.591751709536137,,0.2105084216475604,0.5436868712998985,1.6890577386840795,3rd,3rd,4th,0.3603546607574523,0.3143212460621432,1.4155611487153492
mem,resp,1183,0,mem1.2.1.bmp,mem2.3.2.bmp,mem2.3.1.bmp,ACC018,"[-3, 0, -3]","[0, 3, 0]","[0, 3, -3]",non-match,1.3030765749413242,4,0.49268496539294765,0.6417488611826193,1.509628574404847,3rd,4th,4th,0.3603546607574523,1.2494489388976322,1.4155611487153492
mem,resp,919,1,mem1.1.3.bmp,mem1.1.2.bmp,mem1.1.3.bmp,ACC018,"[-3, -3, 3]","[-3, -3, 0]","[-3, -3, 3]",match,1.7113248654051871,,0.6354951151706532,0.07922641563368162,1.6098992014825757,3rd,3rd,4th,0.3603546607574523,0.3143212460621432,1.4155611487153492
mem,resp,890,1,mem3.3.2.bmp,mem3.2.2.bmp,mem3.2.2.bmp,ACC018,"[3, 3, 0]","[3, 0, 0]","[3, 0, 0]",match,1.7113248654051871,,0.7955160952063827,0.5986719005489399,1.7404256096714936,4th,4th,4th,1.1950928974358983,1.2494489388976322,1.4155611487153492
mem,resp,684,1,mem2.1.1.bmp,mem3.1.3.bmp,mem3.1.3.bmp,ACC018,"[0, -3, -3]","[3, -3, 3]","[3, -3, 3]",match,1.3545027756320973,,-0.08140026588179879,0.41359347393241863,1.6257722260337297,2nd,3rd,4th,-0.29199933511364107,0.3143212460621432,1.4155611487153492
mem,resp,1260,1,mem1.3.1.bmp,mem1.3.2.bmp,mem1.3.1.bmp,ACC018,"[-3, 3, -3]","[-3, 3, 0]","[-3, 3, -3]",match,1.7113248654051871,,-0.6984334072612547,0.5112649623072555,1.8909973545454015,1st,3rd,4th,-1.2466022467719802,0.3143212460621432,1.4155611487153492
mem,resp,1406,1,mem1.1.1.bmp,mem3.2.3.bmp,mem2.1.3.bmp,ACC018,"[-3, -3, -3]","[3, 0, 3]","[0, -3, 3]",non-match,0.9462544851682343,3,-0.7135759475506742,0.9589180245539131,1.6679200209456866,1st,4th,4th,-1.2466022467719802,1.2494489388976322,1.4155611487153492
mem,resp,930,1,mem2.3.1.bmp,mem1.3.3.bmp,mem2.3.1.bmp,ACC018,"[0, 3, -3]","[-3, 3, 3]","[0, 3, -3]",match,1.3545027756320973,,0.0920670929835132,1.3828796351848016,1.8204221998114682,3rd,4th,4th,0.3603546607574523,1.2494489388976322,1.4155611487153492
mem,resp,712,1,mem3.2.1.bmp,mem2.1.1.bmp,mem3.2.1.bmp,ACC018,"[3, 0, -3]","[0, -3, -3]","[3, 0, -3]",match,1.591751709536137,,-1.9840515975234188,0.22254134575994233,2.052564710775592,1st,3rd,4th,-1.2466022467719802,0.3143212460621432,1.4155611487153492
mem,resp,993,0,mem3.1.1.bmp,mem2.2.2.bmp,mem3.3.2.bmp,ACC018,"[3, -3, -3]","[0, 0, 0]","[3, 3, 0]",non-match,0.9462544851682343,3,-0.15026865825153146,4.638405497469962,1.9933944572079163,2nd,4th,4th,-0.29199933511364107,1.2494489388976322,1.4155611487153492
mem,resp,855,1,mem3.1.3.bmp,mem2.1.2.bmp,mem3.3.1.bmp,ACC018,"[3, -3, 3]","[0, -3, 0]","[3, 3, -3]",non-match,0.4763966378857265,1,0.39528649790930415,1.30256731317325,2.213219161694408,3rd,4th,4th,0.3603546607574523,1.2494489388976322,1.4155611487153492
mem,resp,877,0,mem2.3.3.bmp,mem3.3.3.bmp,mem2.3.3.bmp,ACC018,"[0, 3, 3]","[3, 3, 3]","[0, 3, 3]",match,1.7113248654051871,,0.5815707026713534,0.11383470655183961,2.296135670964997,3rd,3rd,4th,0.3603546607574523,0.3143212460621432,1.4155611487153492
mem,resp,749,1,mem1.2.3.bmp,mem2.2.3.bmp,mem3.1.2.bmp,ACC018,"[-3, 0, 3]","[0, 0, 3]","[3, -3, 0]",non-match,0.7928932188134524,2,0.5294578100478254,-0.1345364793301215,2.18315276660112,3rd,2nd,4th,0.3603546607574523,-0.34067824578242084,1.4155611487153492
mem,resp,1424,1,mem1.2.2.bmp,mem3.3.2.bmp,mem3.3.2.bmp,ACC018,"[-3, 0, 0]","[3, 3, 0]","[3, 3, 0]",match,1.3545027756320973,,-0.2748710195601639,-0.2788776843840513,2.0164669217167392,2nd,2nd,4th,-0.29199933511364107,-0.34067824578242084,1.4155611487153492
mem,resp,968,1,mem2.2.1.bmp,mem1.3.3.bmp,mem2.2.1.bmp,ACC018,"[0, 0, -3]","[-3, 3, 3]","[0, 0, -3]",match,1.2928932188134525,,-0.13704261893476857,-0.6631091076503798,2.0043063883988834,2nd,2nd,4th,-0.29199933511364107,-0.34067824578242084,1.4155611487153492
mem,resp,795,1,mem3.2.2.bmp,mem2.3.3.bmp,mem1.1.1.bmp,ACC018,"[3, 0, 0]","[0, 3, 3]","[-3, -3, -3]",non-match,0.42686781502901383,1,0.6989053760506827,0.5629251839969972,1.9984403947719205,4th,3rd,4th,1.1950928974358983,0.3143212460621432,1.4155611487153492
mem,resp,1433,1,mem3.2.3.bmp,mem1.3.1.bmp,mem2.1.1.bmp,ACC018,"[3, 0, 3]","[-3, 3, -3]","[0, -3, -3]",non-match,0.6473959944455496,1,-1.0373740516991807,-0.7551898134235944,2.1899482449455383,1st,1st,4th,-1.2466022467719802,-1.2067840466549895,1.4155611487153492
mem,resp,675,1,mem1.1.2.bmp,mem1.2.2.bmp,mem2.3.2.bmp,ACC018,"[-3, -3, 0]","[-3, 0, 0]","[0, 3, 0]",non-match,0.9462544851682343,3,0.90947511246175,1.0265099495099752,2.003800424619809,4th,4th,4th,1.1950928974358983,1.2494489388976322,1.4155611487153492
mem,resp,693,0,mem1.3.2.bmp,mem2.1.3.bmp,mem3.1.1.bmp,ACC018,"[-3, 3, 0]","[0, -3, 3]","[3, -3, -3]",non-match,0.4884773718476586,1,-0.12301875993553534,2.3272806139376665,1.7322638369112089,2nd,4th,4th,-0.29199933511364107,1.2494489388976322,1.4155611487153492
mem,resp,1206,0,mem3.2.2.bmp,mem1.2.1.bmp,mem2.1.2.bmp,ACC018,"[3, 0, 0]","[-3, 0, -3]","[0, -3, 0]",non-match,1.091751709536137,4,0.852008907650297,2.9904796560066407,1.7076299515046902,4th,4th,4th,1.1950928974358983,1.2494489388976322,1.4155611487153492
mem,resp,1434,1,mem1.1.1.bmp,mem2.1.1.bmp,mem2.2.3.bmp,ACC018,"[-3, -3, -3]","[0, -3, -3]","[0, 0, 3]",non-match,0.6473959944455496,1,1.9158143138957082,2.17107403952306,1.7549482029035817,4th,4th,4th,1.1950928974358983,1.2494489388976322,1.4155611487153492
mem,resp,826,1,mem2.2.1.bmp,mem2.3.2.bmp,mem2.2.1.bmp,ACC018,"[0, 0, -3]","[0, 3, 0]","[0, 0, -3]",match,1.591751709536137,,0.42435797733321934,2.2764943763266157,1.4746386388773136,3rd,4th,4th,0.3603546607574523,1.2494489388976322,1.4155611487153492
mem,resp,908,1,mem2.3.3.bmp,mem1.1.2.bmp,mem1.1.2.bmp,ACC018,"[0, 3, 3]","[-3, -3, 0]","[-3, -3, 0]",match,1.2928932188134525,,0.6240307049758392,0.440228851964422,1.1781555729772255,3rd,3rd,4th,0.3603546607574523,0.3143212460621432,1.4155611487153492
mem,resp,1756,1,mem2.2.2.bmp,mem1.3.2.bmp,mem1.3.2.bmp,ACC018,"[0, 0, 0]","[-3, 3, 0]","[-3, 3, 0]",match,1.591751709536137,,-0.9647787289630347,0.044535427490856844,0.8469494203414349,1st,3rd,3rd,-1.2466022467719802,0.3143212460621432,0.28318162593719604
mem,resp,1090,0,mem1.1.3.bmp,mem3.2.1.bmp,mem3.2.1.bmp,ACC018,"[-3, -3, 3]","[3, 0, -3]","[3, 0, -3]",match,1.1339745962155614,,-0.05609091221692908,0.6209761239925264,1.0380918667415748,2nd,4th,4th,-0.29199933511364107,1.2494489388976322,1.4155611487153492
mem,resp,1258,0,mem2.2.3.bmp,mem2.3.1.bmp,mem1.3.1.bmp,ACC018,"[0, 0, 3]","[0, 3, -3]","[-3, 3, -3]",non-match,1.0042180842186395,3,1.7493674773700163,0.42797923670253957,1.1652448894320275,4th,3rd,4th,1.1950928974358983,0.3143212460621432,1.4155611487153492
mem,resp,940,1,mem2.3.2.bmp,mem3.3.3.bmp,mem2.1.1.bmp,ACC018,"[0, 3, 0]","[3, 3, 3]","[0, -3, -3]",non-match,0.4884773718476586,1,-0.7181823330912306,0.9684571612670176,1.1971273453687288,1st,4th,4th,-1.2466022467719802,1.2494489388976322,1.4155611487153492
mem,resp,651,0,mem3.3.1.bmp,mem3.2.3.bmp,mem3.2.2.bmp,ACC018,"[3, 3, -3]","[3, 0, 3]","[3, 0, 0]",non-match,1.3030765749413242,4,0.512652374001522,0.5504045398366204,0.6810023744443449,3rd,3rd,3rd,0.3603546607574523,0.3143212460621432,0.28318162593719604
mem,resp,591,1,mem2.1.2.bmp,mem3.1.2.bmp,mem2.1.2.bmp,ACC018,"[0, -3, 0]","[3, -3, 0]","[0, -3, 0]",match,1.7113248654051871,,1.5796287478837312,2.148092931002154,0.5142409128157324,4th,4th,3rd,1.1950928974358983,1.2494489388976322,0.28318162593719604
mem,resp,1489,1,mem2.1.3.bmp,mem3.1.1.bmp,mem3.1.1.bmp,ACC018,"[0, -3, 3]","[3, -3, -3]","[3, -3, -3]",match,1.3545027756320973,,0.7198218814166499,-1.1535453776670492,0.3643274756632453,4th,1st,3rd,1.1950928974358983,-1.2067840466549895,0.28318162593719604
mem,resp,651,1,mem3.1.2.bmp,mem2.1.1.bmp,mem2.1.1.bmp,ACC018,"[3, -3, 0]","[0, -3, -3]","[0, -3, -3]",match,1.591751709536137,,0.5003250993887167,-0.8607744546844108,0.15801647171473432,3rd,1st,3rd,0.3603546607574523,-1.2067840466549895,0.28318162593719604
mem,resp,881,1,mem3.2.1.bmp,mem1.2.2.bmp,mem1.1.2.bmp,ACC018,"[3, 0, -3]","[-3, 0, 0]","[-3, -3, 0]",non-match,1.0042180842186395,3,0.30275513963892875,-0.9635067288631233,-0.025349300703338427,3rd,1st,3rd,0.3603546607574523,-1.2067840466549895,0.28318162593719604
mem,resp,1025,1,mem2.1.2.bmp,mem1.3.3.bmp,mem2.1.2.bmp,ACC018,"[0, -3, 0]","[-3, 3, 3]","[0, -3, 0]",match,1.2928932188134525,,0.2047823823776368,-1.5915622228196677,-0.5888847825781013,3rd,1st,2nd,0.3603546607574523,-1.2067840466549895,-0.572612073051716
mem,resp,1662,1,mem3.2.2.bmp,mem3.1.3.bmp,mem3.1.1.bmp,ACC018,"[3, 0, 0]","[3, -3, 3]","[3, -3, -3]",non-match,1.0144014403465114,3,0.9684403026232818,-1.4196109024747352,-0.5891557782931728,4th,1st,2nd,1.1950928974358983,-1.2067840466549895,-0.572612073051716
mem,resp,644,1,mem1.3.2.bmp,mem1.2.3.bmp,mem1.2.3.bmp,ACC018,"[-3, 3, 0]","[-3, 0, 3]","[-3, 0, 3]",match,1.591751709536137,,-0.4324312041675795,-1.2312863609874867,-0.40291946736687556,2nd,1st,2nd,-0.29199933511364107,-1.2067840466549895,-0.572612073051716
mem,resp,1158,0,mem2.1.1.bmp,mem3.3.2.bmp,mem3.3.2.bmp,ACC018,"[0, -3, -3]","[3, 3, 0]","[3, 3, 0]",match,1.2928932188134525,,-0.8276086042430749,-0.44361804369279956,-0.5251313151458336,1st,2nd,2nd,-1.2466022467719802,-0.34067824578242084,-0.572612073051716
mem,resp,941,1,mem2.3.2.bmp,mem3.2.3.bmp,mem3.1.2.bmp,ACC018,"[0, 3, 0]","[3, 0, 3]","[3, -3, 0]",non-match,0.9462544851682343,3,-1.7560912673615767,-1.2738627783048702,-0.4651816561832904,1st,1st,2nd,-1.2466022467719802,-1.2067840466549895,-0.572612073051716
mem,resp,854,1,mem1.1.2.bmp,mem1.1.3.bmp,mem1.1.3.bmp,ACC018,"[-3, -3, 0]","[-3, -3, 3]","[-3, -3, 3]",match,1.7113248654051871,,1.0945856812133903,-1.3664157112959627,-0.7085856589611987,4th,1st,2nd,1.1950928974358983,-1.2067840466549895,-0.572612073051716
mem,resp,1120,1,mem2.3.3.bmp,mem2.1.3.bmp,mem2.3.3.bmp,ACC018,"[0, 3, 3]","[0, -3, 3]","[0, 3, 3]",match,1.4226497308103743,,-0.4290638971889507,-1.886139618099428,-0.5884416805387394,2nd,1st,2nd,-0.29199933511364107,-1.2067840466549895,-0.572612073051716
mem,resp,944,0,mem3.3.2.bmp,mem1.3.2.bmp,mem1.2.1.bmp,ACC018,"[3, 3, 0]","[-3, 3, 0]","[-3, 0, -3]",non-match,0.8846449283495895,2,0.4878824587843867,-0.6005300799334219,-0.7325007208179696,3rd,2nd,2nd,0.3603546607574523,-0.34067824578242084,-0.572612073051716
mem,resp,825,1,mem2.2.2.bmp,mem2.2.3.bmp,mem2.2.3.bmp,ACC018,"[0, 0, 0]","[0, 0, 3]","[0, 0, 3]",match,1.7113248654051871,,0.992456130882848,-1.2837863978739776,-0.7082643477255932,4th,1st,2nd,1.1950928974358983,-1.2067840466549895,-0.572612073051716
mem,resp,1181,1,mem1.2.2.bmp,mem3.2.1.bmp,mem1.2.2.bmp,ACC018,"[-3, 0, 0]","[3, 0, -3]","[-3, 0, 0]",match,1.3545027756320973,,-2.1980339385101777,-2.882772377211432,-0.8458118951343099,1st,1st,1st,-1.2466022467719802,-1.2067840466549895,-1.1111156255794852
mem,resp,884,0,mem3.3.1.bmp,mem1.3.1.bmp,mem1.3.1.bmp,ACC018,"[3, 3, -3]","[-3, 3, -3]","[-3, 3, -3]",match,1.4226497308103743,,0.6499622751843743,-1.0574261801770122,-0.7765132526211561,4th,1st,2nd,1.1950928974358983,-1.2067840466549895,-0.572612073051716
mem,resp,898,1,mem3.2.3.bmp,mem3.1.2.bmp,mem3.2.3.bmp,ACC018,"[3, 0, 3]","[3, -3, 0]","[3, 0, 3]",match,1.591751709536137,,1.5653584233591364,0.15101855395652444,-0.7152599322772589,4th,3rd,2nd,1.1950928974358983,0.3143212460621432,-0.572612073051716
mem,resp,998,1,mem3.1.1.bmp,mem3.3.3.bmp,mem3.1.1.bmp,ACC018,"[3, -3, -3]","[3, 3, 3]","[3, -3, -3]",match,1.1835034190722742,,1.2436102225492862,1.1315286953210781,-0.7619511042392686,4th,4th,2nd,1.1950928974358983,1.2494489388976322,-0.572612073051716
mem,resp,1114,1,mem1.2.1.bmp,mem1.1.1.bmp,mem1.2.3.bmp,ACC018,"[-3, 0, -3]","[-3, -3, -3]","[-3, 0, 3]",non-match,0.7771525064424715,2,0.659955903388517,-0.35941260173328854,-1.377505575286888,4th,2nd,1st,1.1950928974358983,-0.34067824578242084,-1.1111156255794852
mem,resp,1258,1,mem2.3.1.bmp,mem1.1.2.bmp,mem1.1.2.bmp,ACC018,"[0, 3, -3]","[-3, -3, 0]","[-3, -3, 0]",match,1.2928932188134525,,-4.198392271582594,-2.78179399506006,-1.50942572139237,1st,1st,1st,-1.2466022467719802,-1.2067840466549895,-1.1111156255794852
mem,resp,952,1,mem3.1.3.bmp,mem3.3.1.bmp,mem3.1.3.bmp,ACC018,"[3, -3, 3]","[3, 3, -3]","[3, -3, 3]",match,1.1835034190722742,,0.7283367395240565,0.5684440982082418,-1.265222185316946,4th,4th,1st,1.1950928974358983,1.2494489388976322,-1.1111156255794852
mem,resp,1407,1,mem2.2.1.bmp,mem2.3.3.bmp,mem1.3.1.bmp,ACC018,"[0, 0, -3]","[0, 3, 3]","[-3, 3, -3]",non-match,0.9462544851682343,3,-1.6502180050813282,0.17509173975263384,-1.3119188287593877,1st,3rd,1st,-1.2466022467719802,0.3143212460621432,-1.1111156255794852
mem,resp,933,1,mem3.3.3.bmp,mem2.2.2.bmp,mem3.3.3.bmp,ACC018,"[3, 3, 3]","[0, 0, 0]","[3, 3, 3]",match,1.5,,-0.38707116036170447,-0.07060242559809367,-0.8525171298262645,2nd,2nd,1st,-0.29199933511364107,-0.34067824578242084,-1.1111156255794852
mem,resp,844,1,mem1.1.1.bmp,mem1.2.1.bmp,mem3.2.3.bmp,ACC018,"[-3, -3, -3]","[-3, 0, -3]","[3, 0, 3]",non-match,0.3174780152878355,1,0.10773669045138062,-0.1392754805176712,-0.9739016099798905,3rd,2nd,1st,0.3603546607574523,-0.34067824578242084,-1.1111156255794852
mem,resp,2125,0,mem1.2.3.bmp,mem3.3.1.bmp,mem3.3.1.bmp,ACC018,"[-3, 0, 3]","[3, 3, -3]","[3, 3, -3]",match,1.1339745962155614,,0.3591947097748577,-1.0217972775508692,-1.0544581547584955,3rd,1st,1st,0.3603546607574523,-1.2067840466549895,-1.1111156255794852
mem,resp,728,1,mem1.1.3.bmp,mem3.3.2.bmp,mem1.1.3.bmp,ACC018,"[-3, -3, 3]","[3, 3, 0]","[-3, -3, 3]",match,1.1339745962155614,,1.263212641234873,-1.4089852806196703,-0.8639350090539396,4th,1st,1st,1.1950928974358983,-1.2067840466549895,-1.1111156255794852
mem,resp,745,1,mem1.3.1.bmp,mem1.2.2.bmp,mem1.2.2.bmp,ACC018,"[-3, 3, -3]","[-3, 0, 0]","[-3, 0, 0]",match,1.591751709536137,,0.6845333900740042,-0.865157075855056,-0.8527109792133123,4th,1st,1st,1.1950928974358983,-1.2067840466549895,-1.1111156255794852
mem,resp,747,1,mem2.2.3.bmp,mem2.1.1.bmp,mem2.2.3.bmp,ACC018,"[0, 0, 3]","[0, -3, -3]","[0, 0, 3]",match,1.3545027756320973,,0.03988246876615517,-0.9183985916969303,-0.696801683292184,2nd,1st,2nd,-0.29199933511364107,-1.2067840466549895,-0.572612073051716
mem,resp,1121,0,mem1.3.3.bmp,mem2.3.1.bmp,mem1.3.2.bmp,ACC018,"[-3, 3, 3]","[0, 3, -3]","[-3, 3, 0]",non-match,1.3030765749413242,4,-0.29012362778283196,0.07271323908804248,-0.9283889499302399,2nd,3rd,1st,-0.29199933511364107,0.3143212460621432,-1.1111156255794852
mem,resp,1167,1,mem1.3.3.bmp,mem1.1.1.bmp,mem1.1.1.bmp,ACC018,"[-3, 3, 3]","[-3, -3, -3]","[-3, -3, -3]",match,1.1835034190722742,,-0.03480022194855221,-0.20345734157794265,-0.7295335809081903,2nd,2nd,2nd,-0.29199933511364107,-0.34067824578242084,-0.572612073051716
mem,resp,1322,0,mem2.3.2.bmp,mem3.2.1.bmp,mem2.3.3.bmp,ACC018,"[0, 3, 0]","[3, 0, -3]","[0, 3, 3]",non-match,1.0042180842186395,3,-0.03043288653373561,0.13648355705432533,-0.7064829299044283,2nd,3rd,2nd,-0.29199933511364107,0.3143212460621432,-0.572612073051716
mem,resp,1922,0,mem1.3.1.bmp,mem3.1.1.bmp,mem1.1.3.bmp,ACC018,"[-3, 3, -3]","[3, -3, -3]","[-3, -3, 3]",non-match,0.36700683814454815,1,0.25788692016367804,-0.013018239164596861,-0.5673014024983635,3rd,2nd,2nd,0.3603546607574523,-0.34067824578242084,-0.572612073051716
mem,resp,815,1,mem2.2.1.bmp,mem2.1.2.bmp,mem3.3.1.bmp,ACC018,"[0, 0, -3]","[0, -3, 0]","[3, 3, -3]",non-match,0.8846449283495895,2,1.4876774454837038,1.255167443978141,-0.743667348570256,4th,4th,2nd,1.1950928974358983,1.2494489388976322,-0.572612073051716
mem,resp,1230,0,mem3.2.2.bmp,mem1.1.2.bmp,mem2.3.1.bmp,ACC018,"[3, 0, 0]","[-3, -3, 0]","[0, 3, -3]",non-match,0.7928932188134524,2,0.968873327727986,0.29112466589733793,-0.6141405988891087,4th,3rd,2nd,1.1950928974358983,0.3143212460621432,-0.572612073051716
mem,resp,762,1,mem3.3.2.bmp,mem1.2.3.bmp,mem1.2.3.bmp,ACC018,"[3, 3, 0]","[-3, 0, 3]","[-3, 0, 3]",match,1.2928932188134525,,1.780583773696835,0.8824240869468822,-0.9837449843665925,4th,4th,1st,1.1950928974358983,1.2494489388976322,-1.1111156255794852
mem,resp,752,1,mem2.2.2.bmp,mem3.3.3.bmp,mem2.2.2.bmp,ACC018,"[0, 0, 0]","[3, 3, 3]","[0, 0, 0]",match,1.5,,0.1315212557574339,-1.4176096296377885,-0.9914872974166858,3rd,1st,1st,0.3603546607574523,-1.2067840466549895,-1.1111156255794852
mem,resp,1672,1,mem1.2.1.bmp,mem2.1.3.bmp,mem1.1.1.bmp,ACC018,"[-3, 0, -3]","[0, -3, 3]","[-3, -3, -3]",non-match,1.0658276410372842,3,-1.2004244210795547,0.30734227882349624,-0.9352333218071784,1st,3rd,1st,-1.2466022467719802,0.3143212460621432,-1.1111156255794852
mem,resp,794,1,mem3.2.3.bmp,mem3.1.2.bmp,mem1.3.1.bmp,ACC018,"[3, 0, 3]","[3, -3, 0]","[-3, 3, -3]",non-match,0.2679491924311228,1,0.4602401895746211,-0.6583599411019757,-0.9858149077181557,3rd,2nd,1st,0.3603546607574523,-0.34067824578242084,-1.1111156255794852
mem,resp,937,1,mem3.2.1.bmp,mem3.1.3.bmp,mem3.1.3.bmp,ACC018,"[3, 0, -3]","[3, -3, 3]","[3, -3, 3]",match,1.3545027756320973,,0.7267886126985384,0.4339945238256261,-1.0997874395180904,4th,3rd,1st,1.1950928974358983,0.3143212460621432,-1.1111156255794852
mem,resp,1353,1,mem1.2.2.bmp,mem2.2.3.bmp,mem2.2.1.bmp,ACC018,"[-3, 0, 0]","[0, 0, 3]","[0, 0, -3]",non-match,1.0144014403465114,3,-0.38032460217307745,0.2397331983400249,-0.9329187223989099,2nd,3rd,1st,-0.29199933511364107,0.3143212460621432,-1.1111156255794852
mem,resp,772,1,mem1.1.3.bmp,mem1.1.1.bmp,mem1.3.3.bmp,ACC018,"[-3, -3, 3]","[-3, -3, -3]","[-3, 3, 3]",non-match,0.6061531498826483,1,0.7935160364315862,-0.12708562525596342,-0.9815113660873186,4th,2nd,1st,1.1950928974358983,-0.34067824578242084,-1.1111156255794852
mem,resp,914,1,mem2.3.3.bmp,mem1.3.1.bmp,mem3.1.3.bmp,ACC018,"[0, 3, 3]","[-3, 3, -3]","[3, -3, 3]",non-match,0.3545027756320972,1,0.3463335667286144,-1.1669897190228344,-0.757737766088358,3rd,1st,2nd,0.3603546607574523,-1.2067840466549895,-0.572612073051716
mem,resp,1351,1,mem2.1.2.bmp,mem2.2.2.bmp,mem1.2.1.bmp,ACC018,"[0, -3, 0]","[0, 0, 0]","[-3, 0, -3]",non-match,1.091751709536137,4,-0.4288244046501022,-0.7494467399729942,-0.6631956715634303,2nd,1st,2nd,-0.29199933511364107,-1.2067840466549895,-0.572612073051716
mem,resp,743,1,mem2.3.2.bmp,mem2.2.1.bmp,mem1.2.3.bmp,ACC018,"[0, 3, 0]","[0, 0, -3]","[-3, 0, 3]",non-match,0.8545027756320972,2,0.1007942675708617,-1.4694500080608097,-0.7971694361980315,3rd,1st,2nd,0.3603546607574523,-1.2067840466549895,-0.572612073051716
mem,resp,1642,1,mem3.3.2.bmp,mem1.3.3.bmp,mem3.2.1.bmp,ACC018,"[3, 3, 0]","[-3, 3, 3]","[3, 0, -3]",non-match,0.7257263057516985,2,-0.7650351616708573,-1.2568465803168962,-1.020281921182185,1st,1st,1st,-1.2466022467719802,-1.2067840466549895,-1.1111156255794852
mem,resp,1446,0,mem1.2.2.bmp,mem3.3.1.bmp,mem2.1.3.bmp,ACC018,"[-3, 0, 0]","[3, 3, -3]","[0, -3, 3]",non-match,0.6339745962155614,1,-0.25183892380883405,-1.5460820429243916,-0.8176771267325731,2nd,1st,1st,-0.29199933511364107,-1.2067840466549895,-1.1111156255794852
mem,resp,808,1,mem1.1.1.bmp,mem3.1.2.bmp,mem3.1.2.bmp,ACC018,"[-3, -3, -3]","[3, -3, 0]","[3, -3, 0]",match,1.3545027756320973,,0.8080421638050105,-0.8431430746486401,-0.885281921141074,4th,1st,1st,1.1950928974358983,-1.2067840466549895,-1.1111156255794852
mem,resp,839,0,mem1.3.1.bmp,mem2.2.3.bmp,mem2.2.2.bmp,ACC018,"[-3, 3, -3]","[0, 0, 3]","[0, 0, 0]",non-match,1.2113248654051871,4,-0.3469434684904191,-1.3285428704237565,-0.8689580042003269,2nd,1st,1st,-0.29199933511364107,-1.2067840466549895,-1.1111156255794852
mem,resp,1387,1,mem3.2.3.bmp,mem1.2.3.bmp,mem1.2.3.bmp,ACC018,"[3, 0, 3]","[-3, 0, 3]","[-3, 0, 3]",match,1.4226497308103743,,-0.9139345890148171,-1.460241968287612,-1.041114445284601,1st,1st,1st,-1.2466022467719802,-1.2067840466549895,-1.1111156255794852
mem,resp,995,1,mem2.1.3.bmp,mem3.2.2.bmp,mem2.1.3.bmp,ACC018,"[0, -3, 3]","[3, 0, 0]","[0, -3, 3]",match,1.5,,1.7766702710498616,0.22379268035520095,-0.802189392447288,4th,3rd,2nd,1.1950928974358983,0.3143212460621432,-0.572612073051716
mem,resp,977,0,mem1.3.3.bmp,mem2.3.1.bmp,mem3.1.2.bmp,ACC018,"[-3, 3, 3]","[0, 3, -3]","[3, -3, 0]",non-match,0.42686781502901383,1,-0.12261696515337081,-0.19741816941116966,-0.8161321545652119,2nd,2nd,1st,-0.29199933511364107,-0.34067824578242084,-1.1111156255794852
mem,resp,969,1,mem2.1.1.bmp,mem1.2.1.bmp,mem2.1.1.bmp,ACC018,"[0, -3, -3]","[-3, 0, -3]","[0, -3, -3]",match,1.591751709536137,,0.9709896804870702,0.4331877401277835,-0.6711394368119025,4th,3rd,2nd,1.1950928974358983,0.3143212460621432,-0.572612073051716
mem,resp,1048,1,mem2.2.2.bmp,mem3.2.1.bmp,mem2.2.2.bmp,ACC018,"[0, 0, 0]","[3, 0, -3]","[0, 0, 0]",match,1.591751709536137,,0.158115861636601,-0.8195760243020693,-0.4488983895576478,3rd,1st,2nd,0.3603546607574523,-1.2067840466549895,-0.572612073051716
mem,resp,778,1,mem1.2.3.bmp,mem1.1.2.bmp,mem1.3.2.bmp,ACC018,"[-3, 0, 3]","[-3, -3, 0]","[-3, 3, 0]",non-match,1.0144014403465114,3,0.2678426633733436,0.9478161235539163,-0.5367384399572787,3rd,4th,2nd,0.3603546607574523,1.2494489388976322,-0.572612073051716
mem,resp,591,1,mem2.2.1.bmp,mem1.2.2.bmp,mem1.2.2.bmp,ACC018,"[0, 0, -3]","[-3, 0, 0]","[-3, 0, 0]",match,1.591751709536137,,1.2783606831307024,0.2680310986290774,-0.39461941629719344,4th,3rd,2nd,1.1950928974358983,0.3143212460621432,-0.572612073051716
mem,resp,813,1,mem3.3.3.bmp,mem3.1.3.bmp,mem3.1.3.bmp,ACC018,"[3, 3, 3]","[3, -3, 3]","[3, -3, 3]",match,1.4226497308103743,,0.38169892971196384,-0.11376464256826381,-0.4102584411913786,3rd,2nd,2nd,0.3603546607574523,-0.34067824578242084,-0.572612073051716
mem,resp,884,1,mem2.2.3.bmp,mem3.1.1.bmp,mem3.1.1.bmp,ACC018,"[0, 0, 3]","[3, -3, -3]","[3, -3, -3]",match,1.2928932188134525,,0.9761901490395978,0.9547090438595894,0.058983546036001214,4th,4th,3rd,1.1950928974358983,1.2494489388976322,0.28318162593719604
mem,resp,655,1,mem3.2.1.bmp,mem3.3.2.bmp,mem1.2.3.bmp,ACC018,"[3, 0, -3]","[3, 3, 0]","[-3, 0, 3]",non-match,0.4763966378857265,1,0.12436887229781624,1.4919922490491289,0.1591952688291818,3rd,4th,3rd,0.3603546607574523,1.2494489388976322,0.28318162593719604
mem,resp,896,1,mem1.2.1.bmp,mem2.1.2.bmp,mem2.3.2.bmp,ACC018,"[-3, 0, -3]","[0, -3, 0]","[0, 3, 0]",non-match,0.9226497308103743,3,-1.6814116552072043,0.5467721175579422,0.02963574961990637,1st,3rd,3rd,-1.2466022467719802,0.3143212460621432,0.28318162593719604
mem,resp,718,1,mem1.3.2.bmp,mem2.1.1.bmp,mem2.1.1.bmp,ACC018,"[-3, 3, 0]","[0, -3, -3]","[0, -3, -3]",match,1.2928932188134525,,1.2226580471127908,0.5645689868249666,-0.027166844873621032,4th,3rd,3rd,1.1950928974358983,0.3143212460621432,0.28318162593719604
mem,resp,881,1,mem3.1.2.bmp,mem3.2.3.bmp,mem3.1.2.bmp,ACC018,"[3, -3, 0]","[3, 0, 3]","[3, -3, 0]",match,1.591751709536137,,0.7499674467309038,0.8755503125889252,0.04687025585314551,4th,4th,3rd,1.1950928974358983,1.2494489388976322,0.28318162593719604
mem,resp,723,1,mem1.1.2.bmp,mem2.1.3.bmp,mem2.1.3.bmp,ACC018,"[-3, -3, 0]","[0, -3, 3]","[0, -3, 3]",match,1.591751709536137,,0.5507111979964451,0.19439891151416822,0.3021576323476881,3rd,3rd,3rd,0.3603546607574523,0.3143212460621432,0.28318162593719604
mem,resp,663,1,mem3.2.2.bmp,mem3.3.3.bmp,mem3.2.2.bmp,ACC018,"[3, 0, 0]","[3, 3, 3]","[3, 0, 0]",match,1.591751709536137,,1.2128043768878156,0.396868777737527,0.2525849494128964,4th,3rd,3rd,1.1950928974358983,0.3143212460621432,0.28318162593719604
mem,resp,896,1,mem3.1.3.bmp,mem1.2.1.bmp,mem3.2.1.bmp,ACC018,"[3, -3, 3]","[-3, 0, -3]","[3, 0, -3]",non-match,0.7771525064424715,2,-0.09414721381576309,0.8196467043681216,0.17534425046252047,2nd,4th,3rd,-0.29199933511364107,1.2494489388976322,0.28318162593719604
mem,resp,1050,1,mem3.1.1.bmp,mem1.2.2.bmp,mem3.3.2.bmp,ACC018,"[3, -3, -3]","[-3, 0, 0]","[3, 3, 0]",non-match,0.7090055512641944,2,-4.475219009428717,-3.2635171853723883,0.2171570867715157,1st,1st,3rd,-1.2466022467719802,-1.2067840466549895,0.28318162593719604
mem,resp,1465,1,mem3.3.1.bmp,mem1.1.2.bmp,mem2.3.2.bmp,ACC018,"[3, 3, -3]","[-3, -3, 0]","[0, 3, 0]",non-match,0.9462544851682343,3,-0.8133764269695286,0.5566447444544179,0.18611378603959292,1st,3rd,3rd,-1.2466022467719802,0.3143212460621432,0.28318162593719604
mem,resp,869,0,mem2.3.1.bmp,mem1.3.3.bmp,mem2.1.3.bmp,ACC018,"[0, 3, -3]","[-3, 3, 3]","[0, -3, 3]",non-match,0.5380061947043713,1,0.39487847161431117,0.07823878803364427,0.23199810599017132,3rd,3rd,3rd,0.3603546607574523,0.3143212460621432,0.28318162593719604
mem,resp,1111,1,mem2.3.3.bmp,mem3.1.2.bmp,mem1.3.1.bmp,ACC018,"[0, 3, 3]","[3, -3, 0]","[-3, 3, -3]",non-match,0.4884773718476586,1,1.533449527090782,0.2962354491636914,0.2370089881204765,4th,3rd,3rd,1.1950928974358983,0.3143212460621432,0.28318162593719604
mem,resp,630,0,mem1.3.2.bmp,mem2.2.2.bmp,mem2.2.3.bmp,ACC018,"[-3, 3, 0]","[0, 0, 0]","[0, 0, 3]",non-match,1.2113248654051871,4,1.4020132975005977,1.3396521608631329,0.30707400254133493,4th,4th,3rd,1.1950928974358983,1.2494489388976322,0.28318162593719604
mem,resp,913,1,mem3.1.3.bmp,mem3.2.3.bmp,mem3.2.3.bmp,ACC018,"[3, -3, 3]","[3, 0, 3]","[3, 0, 3]",match,1.7113248654051871,,-2.2954565865143173,-0.33762228585663223,0.7047532966642098,1st,2nd,3rd,-1.2466022467719802,-0.34067824578242084,0.28318162593719604
mem,resp,934,1,mem3.2.2.bmp,mem2.1.3.bmp,mem3.2.2.bmp,ACC018,"[3, 0, 0]","[0, -3, 3]","[3, 0, 0]",match,1.5,,0.11178972990189041,0.16655771790369403,0.7135565536792298,3rd,3rd,3rd,0.3603546607574523,0.3143212460621432,0.28318162593719604
mem,resp,776,1,mem3.3.3.bmp,mem1.3.1.bmp,mem3.3.3.bmp,ACC018,"[3, 3, 3]","[-3, 3, -3]","[3, 3, 3]",match,1.1835034190722742,,2.101607518830241,2.6380981091539604,0.4177603126620664,4th,4th,3rd,1.1950928974358983,1.2494489388976322,0.28318162593719604
mem,resp,937,1,mem1.2.3.bmp,mem3.3.1.bmp,mem3.3.1.bmp,ACC018,"[-3, 0, 3]","[3, 3, -3]","[3, 3, -3]",match,1.1339745962155614,,1.124998903023285,1.925236374346376,0.34339125920781177,4th,4th,3rd,1.1950928974358983,1.2494489388976322,0.28318162593719604
mem,resp,559,1,mem2.2.1.bmp,mem3.2.1.bmp,mem2.2.1.bmp,ACC018,"[0, 0, -3]","[3, 0, -3]","[0, 0, -3]",match,1.7113248654051871,,0.7878280993130604,0.43638444992302916,0.018881126880176683,4th,3rd,3rd,1.1950928974358983,0.3143212460621432,0.28318162593719604
mem,resp,768,1,mem1.3.3.bmp,mem2.3.3.bmp,mem2.1.1.bmp,ACC018,"[-3, 3, 3]","[0, 3, 3]","[0, -3, -3]",non-match,0.3174780152878355,1,0.5753449892100577,0.5777901167605908,-0.0444360678315489,3rd,4th,3rd,0.3603546607574523,1.2494489388976322,0.28318162593719604
mem,resp,696,0,mem2.3.2.bmp,mem3.1.1.bmp,mem3.2.2.bmp,ACC018,"[0, 3, 0]","[3, -3, -3]","[3, 0, 0]",non-match,1.1835034190722742,4,0.47484129594445645,1.0475435739331878,-0.1640337113436108,3rd,4th,3rd,0.3603546607574523,1.2494489388976322,0.28318162593719604
mem,resp,604,1,mem1.2.2.bmp,mem2.2.3.bmp,mem1.2.2.bmp,ACC018,"[-3, 0, 0]","[0, 0, 3]","[-3, 0, 0]",match,1.591751709536137,,0.2949600066220886,-0.35671520308938687,-0.4376356166330604,3rd,2nd,2nd,0.3603546607574523,-0.34067824578242084,-0.572612073051716
mem,resp,695,1,mem3.1.2.bmp,mem1.1.1.bmp,mem1.1.1.bmp,ACC018,"[3, -3, 0]","[-3, -3, -3]","[-3, -3, -3]",match,1.3545027756320973,,0.714077959277167,1.5784125549009314,-0.5004667788716752,4th,4th,2nd,1.1950928974358983,1.2494489388976322,-0.572612073051716
mem,resp,1410,0,mem2.2.2.bmp,mem1.3.2.bmp,mem1.3.2.bmp,ACC018,"[0, 0, 0]","[-3, 3, 0]","[-3, 3, 0]",match,1.591751709536137,,-0.7098717871359826,-0.7100126039336464,-1.0301814863757053,1st,2nd,1st,-1.2466022467719802,-0.34067824578242084,-1.1111156255794852
