mode,type,rt,acc,item_1,item_2,item_cue,subj_idx,item_1_number,item_2_number,item_cue_number,trial_type,summed_similarity,similarity_bin,ams,pams,slps,ams_quantile,pams_quantile,slps_quantile,ams_bin,pam_bin,slp_bin
mem,resp,1508,0,mem1.1.1.bmp,mem1.2.3.bmp,mem2.1.3.bmp,ACC024,"[-3, -3, -3]","[-3, 0, 3]","[0, -3, 3]",non-match,0.9462544851682343,3,0.6770625482598195,-0.35629972120217107,2.412940133843092,3rd,2nd,4th,0.4396593820171105,-0.2966574841532553,1.2412590635819143
mem,resp,1495,1,mem2.3.2.bmp,mem1.3.3.bmp,mem2.2.3.bmp,ACC024,"[0, 3, 0]","[-3, 3, 3]","[0, 0, 3]",non-match,1.1835034190722742,4,-0.118042037910483,0.15073613889844234,2.1254004034661094,2nd,3rd,4th,-0.2770833061315177,0.29999398128577703,1.2412590635819143
mem,resp,1077,0,mem1.1.3.bmp,mem2.2.2.bmp,mem2.2.2.bmp,ACC024,"[-3, -3, 3]","[0, 0, 0]","[0, 0, 0]",match,1.5,,-0.04854484870764349,1.1000884059320066,2.131944636320628,2nd,4th,4th,-0.2770833061315177,1.2783081038341009,1.2412590635819143
mem,resp,837,0,mem2.1.2.bmp,mem1.2.1.bmp,mem3.3.1.bmp,ACC024,"[0, -3, 0]","[-3, 0, -3]","[3, 3, -3]",non-match,0.6473959944455496,1,-0.19094201634331975,0.14459915299564005,2.0349801011431934,2nd,3rd,4th,-0.2770833061315177,0.29999398128577703,1.2412590635819143
mem,resp,1471,1,mem3.2.2.bmp,mem1.1.1.bmp,mem1.1.1.bmp,ACC024,"[3, 0, 0]","[-3, -3, -3]","[-3, -3, -3]",match,1.2928932188134525,,1.1439226684596386,2.121466770542715,2.2814281450450853,4th,4th,4th,1.1794548858335405,1.2783081038341009,1.2412590635819143
mem,resp,1614,0,mem3.3.2.bmp,mem2.2.3.bmp,mem2.3.1.bmp,ACC024,"[3, 3, 0]","[0, 0, 3]","[0, 3, -3]",non-match,0.9462544851682343,3,-0.11459412485237899,0.9598999506918532,2.5213741718206846,2nd,4th,4th,-0.2770833061315177,1.2783081038341009,1.2412590635819143
mem,resp,1842,1,mem1.2.2.bmp,mem2.3.2.bmp,mem1.3.1.bmp,ACC024,"[-3, 0, 0]","[0, 3, 0]","[-3, 3, -3]",non-match,1.1835034190722742,4,0.1493531842673477,-0.07068265462164865,2.2679458970051503,3rd,2nd,4th,0.4396593820171105,-0.2966574841532553,1.2412590635819143
mem,resp,1889,0,mem3.2.3.bmp,mem2.1.1.bmp,mem2.2.2.bmp,ACC024,"[3, 0, 3]","[0, -3, -3]","[0, 0, 0]",non-match,1.1835034190722742,4,-0.788195910974089,0.056841375724863044,2.344563962450279,1st,3rd,4th,-1.342030961719133,0.29999398128577703,1.2412590635819143
mem,resp,1820,0,mem3.3.3.bmp,mem3.2.1.bmp,mem3.1.2.bmp,ACC024,"[3, 3, 3]","[3, 0, -3]","[3, -3, 0]",non-match,0.9462544851682343,3,-2.099115315490677,-0.07629890261415126,2.183863687094619,1st,2nd,4th,-1.342030961719133,-0.2966574841532553,1.2412590635819143
mem,resp,2020,1,mem1.3.2.bmp,mem2.3.1.bmp,mem2.3.3.bmp,ACC024,"[-3, 3, 0]","[0, 3, -3]","[0, 3, 3]",non-match,1.0144014403465114,3,-2.050980240792824,-0.6465786999623432,2.1836835806128487,1st,1st,4th,-1.342030961719133,-1.2816446009666231,1.2412590635819143
mem,resp,1343,1,mem1.1.2.bmp,mem3.1.3.bmp,mem1.1.2.bmp,ACC024,"[-3, -3, 0]","[3, -3, 3]","[-3, -3, 0]",match,1.3545027756320973,,-1.6321829164785149,-1.233135705154786,1.7681948417691036,1st,1st,4th,-1.342030961719133,-1.2816446009666231,1.2412590635819143
mem,resp,1355,1,mem1.2.3.bmp,mem3.2.2.bmp,mem3.2.2.bmp,ACC024,"[-3, 0, 3]","[3, 0, 0]","[3, 0, 0]",match,1.3545027756320973,,-1.5594047257005008,-0.7528170571477333,1.9572349782676628,1st,1st,4th,-1.342030961719133,-1.2816446009666231,1.2412590635819143
mem,resp,1304,1,mem3.1.2.bmp,mem3.1.1.bmp,mem3.3.1.bmp,ACC024,"[3, -3, 0]","[3, -3, -3]","[3, 3, -3]",non-match,0.7771525064424715,2,-0.9562362695901312,-0.45109933495038346,1.8902644895247627,1st,2nd,4th,-1.342030961719133,-0.2966574841532553,1.2412590635819143
mem,resp,1970,1,mem2.2.3.bmp,mem2.3.3.bmp,mem2.3.3.bmp,ACC024,"[0, 0, 3]","[0, 3, 3]","[0, 3, 3]",match,1.7113248654051871,,-2.5853135846202466,-0.4659209937667923,1.9805826344785773,1st,2nd,4th,-1.342030961719133,-0.2966574841532553,1.2412590635819143
mem,resp,1211,1,mem2.2.1.bmp,mem2.1.3.bmp,mem2.2.1.bmp,ACC024,"[0, 0, -3]","[0, -3, 3]","[0, 0, -3]",match,1.3545027756320973,,-0.9850039660201616,-1.627844127401773,2.0568193555626126,1st,1st,4th,-1.342030961719133,-1.2816446009666231,1.2412590635819143
mem,resp,1317,0,mem1.3.3.bmp,mem2.1.2.bmp,mem3.1.3.bmp,ACC024,"[-3, 3, 3]","[0, -3, 0]","[3, -3, 3]",non-match,0.7752551286084112,2,-0.4844234061621269,-0.363870425210428,2.1276661106980637,2nd,2nd,4th,-0.2770833061315177,-0.2966574841532553,1.2412590635819143
mem,resp,1529,1,mem2.3.1.bmp,mem3.2.3.bmp,mem2.1.1.bmp,ACC024,"[0, 3, -3]","[3, 0, 3]","[0, -3, -3]",non-match,0.7155429496238267,2,-2.2741635158097777,-1.487950993382739,2.1747540607856917,1st,1st,4th,-1.342030961719133,-1.2816446009666231,1.2412590635819143
mem,resp,1046,1,mem3.3.1.bmp,mem3.3.3.bmp,mem1.2.3.bmp,ACC024,"[3, 3, -3]","[3, 3, 3]","[-3, 0, 3]",non-match,0.4884773718476586,1,0.3789196219495693,1.4017462274526278,2.1628561022135857,3rd,4th,4th,0.4396593820171105,1.2783081038341009,1.2412590635819143
mem,resp,1256,0,mem3.1.1.bmp,mem2.2.1.bmp,mem3.2.1.bmp,ACC024,"[3, -3, -3]","[0, 0, -3]","[3, 0, -3]",non-match,1.4226497308103743,4,-1.2989190547841187,-1.2548967332149126,1.9399507135903178,1st,1st,4th,-1.342030961719133,-1.2816446009666231,1.2412590635819143
mem,resp,1627,1,mem1.2.1.bmp,mem3.1.2.bmp,mem3.3.2.bmp,ACC024,"[-3, 0, -3]","[3, -3, 0]","[3, 3, 0]",non-match,0.7155429496238267,2,-1.1960024150336788,-0.5236456670136278,2.0544130597733896,1st,2nd,4th,-1.342030961719133,-0.2966574841532553,1.2412590635819143
mem,resp,1338,1,mem2.1.3.bmp,mem1.3.1.bmp,mem2.1.3.bmp,ACC024,"[0, -3, 3]","[-3, 3, -3]","[0, -3, 3]",match,1.1339745962155614,,-1.567071391586838,-1.3602377452682137,1.809172435226098,1st,1st,4th,-1.342030961719133,-1.2816446009666231,1.2412590635819143
mem,resp,1632,1,mem2.1.1.bmp,mem1.3.2.bmp,mem1.1.2.bmp,ACC024,"[0, -3, -3]","[-3, 3, 0]","[-3, -3, 0]",non-match,1.0144014403465114,3,-1.9649410978421558,-2.3489141347749274,1.7412748344623437,1st,1st,4th,-1.342030961719133,-1.2816446009666231,1.2412590635819143
mem,resp,1432,1,mem3.2.1.bmp,mem3.3.3.bmp,mem1.1.1.bmp,ACC024,"[3, 0, -3]","[3, 3, 3]","[-3, -3, -3]",non-match,0.3545027756320972,1,-0.6205411576732717,-0.6072565350609966,1.6441019232119125,2nd,2nd,4th,-0.2770833061315177,-0.2966574841532553,1.2412590635819143
mem,resp,1280,1,mem3.1.3.bmp,mem3.3.2.bmp,mem3.3.2.bmp,ACC024,"[3, -3, 3]","[3, 3, 0]","[3, 3, 0]",match,1.3545027756320973,,-1.132769407655873,-1.2743680655604959,1.6291387345706296,1st,1st,4th,-1.342030961719133,-1.2816446009666231,1.2412590635819143
mem,resp,1008,1,mem2.2.2.bmp,mem1.1.2.bmp,mem1.1.2.bmp,ACC024,"[0, 0, 0]","[-3, -3, 0]","[-3, -3, 0]",match,1.591751709536137,,-0.8941946013379932,-1.030150605068443,1.4865487002481927,1st,1st,4th,-1.342030961719133,-1.2816446009666231,1.2412590635819143
mem,resp,1218,0,mem1.2.2.bmp,mem2.2.3.bmp,mem2.2.3.bmp,ACC024,"[-3, 0, 0]","[0, 0, 3]","[0, 0, 3]",match,1.591751709536137,,-1.582805079949273,-2.3863132192336116,1.4971977409908592,1st,1st,4th,-1.342030961719133,-1.2816446009666231,1.2412590635819143
mem,resp,1011,1,mem1.3.3.bmp,mem1.3.1.bmp,mem3.2.1.bmp,ACC024,"[-3, 3, 3]","[-3, 3, -3]","[3, 0, -3]",non-match,0.4884773718476586,1,0.8042476714141699,-0.5799328192613927,1.2337232031232441,4th,2nd,4th,1.1794548858335405,-0.2966574841532553,1.2412590635819143
mem,resp,1059,1,mem2.3.3.bmp,mem2.3.2.bmp,mem1.3.2.bmp,ACC024,"[0, 3, 3]","[0, 3, 0]","[-3, 3, 0]",non-match,1.3030765749413242,4,-1.6253371931476255,-1.4717849844608584,0.8486637554409214,1st,1st,4th,-1.342030961719133,-1.2816446009666231,1.2412590635819143
mem,resp,1115,1,mem2.2.2.bmp,mem2.1.3.bmp,mem2.2.2.bmp,ACC024,"[0, 0, 0]","[0, -3, 3]","[0, 0, 0]",match,1.591751709536137,,-1.9096699325227027,-2.1832692865462064,0.7336071281564656,1st,1st,4th,-1.342030961719133,-1.2816446009666231,1.2412590635819143
mem,resp,1656,0,mem1.1.1.bmp,mem3.2.3.bmp,mem2.1.2.bmp,ACC024,"[-3, -3, -3]","[3, 0, 3]","[0, -3, 0]",non-match,1.091751709536137,4,-1.546775198895209,-1.7617594085878165,0.5231967684734052,1st,1st,3rd,-1.342030961719133,-1.2816446009666231,0.40041658431231786
mem,resp,993,1,mem2.2.3.bmp,mem3.1.3.bmp,mem3.1.3.bmp,ACC024,"[0, 0, 3]","[3, -3, 3]","[3, -3, 3]",match,1.591751709536137,,-0.3485961025715877,-0.0776975442983436,0.6757033184074612,2nd,2nd,4th,-0.2770833061315177,-0.2966574841532553,1.2412590635819143
mem,resp,1241,1,mem3.2.2.bmp,mem1.3.2.bmp,mem1.3.3.bmp,ACC024,"[3, 0, 0]","[-3, 3, 0]","[-3, 3, 3]",non-match,1.0042180842186395,3,0.604779849671009,0.3085471895503516,0.7288917837352636,3rd,3rd,4th,0.4396593820171105,0.29999398128577703,1.2412590635819143
mem,resp,1621,1,mem3.1.2.bmp,mem2.3.1.bmp,mem3.1.2.bmp,ACC024,"[3, -3, 0]","[0, 3, -3]","[3, -3, 0]",match,1.2928932188134525,,-2.429859595506795,-0.8400691107948132,0.6711439937018959,1st,1st,4th,-1.342030961719133,-1.2816446009666231,1.2412590635819143
mem,resp,1199,1,mem2.1.3.bmp,mem1.1.1.bmp,mem2.1.3.bmp,ACC024,"[0, -3, 3]","[-3, -3, -3]","[0, -3, 3]",match,1.3545027756320973,,-1.7700845378928716,-0.8881227194391256,0.6008202576270463,1st,1st,3rd,-1.342030961719133,-1.2816446009666231,0.40041658431231786
mem,resp,864,1,mem3.1.2.bmp,mem3.1.1.bmp,mem1.1.2.bmp,ACC024,"[3, -3, 0]","[3, -3, -3]","[-3, -3, 0]",non-match,0.7771525064424715,2,-0.3749785225176798,-0.046925155034186664,0.886794849576084,2nd,2nd,4th,-0.2770833061315177,-0.2966574841532553,1.2412590635819143
mem,resp,900,1,mem2.2.2.bmp,mem3.3.2.bmp,mem1.2.1.bmp,ACC024,"[0, 0, 0]","[3, 3, 0]","[-3, 0, -3]",non-match,0.8846449283495895,2,-1.376623510990685,-1.537942676347228,0.8743132327751252,1st,1st,4th,-1.342030961719133,-1.2816446009666231,1.2412590635819143
mem,resp,1170,1,mem3.3.3.bmp,mem1.1.3.bmp,mem3.3.1.bmp,ACC024,"[3, 3, 3]","[-3, -3, 3]","[3, 3, -3]",non-match,0.42264973081037427,1,-2.052090804675113,-2.4824044630084416,0.49468189862474504,1st,1st,3rd,-1.342030961719133,-1.2816446009666231,0.40041658431231786
mem,resp,1425,0,mem2.1.2.bmp,mem2.3.3.bmp,mem2.3.3.bmp,ACC024,"[0, -3, 0]","[0, 3, 3]","[0, 3, 3]",match,1.3545027756320973,,-2.321355565587027,-1.8438264855087807,0.23209965793159115,1st,1st,3rd,-1.342030961719133,-1.2816446009666231,0.40041658431231786
mem,resp,891,1,mem2.2.3.bmp,mem2.2.1.bmp,mem3.1.2.bmp,ACC024,"[0, 0, 3]","[0, 0, -3]","[3, -3, 0]",non-match,1.0,3,0.5382340026512676,-1.2100686994783516,0.06647419955065209,3rd,1st,3rd,0.4396593820171105,-1.2816446009666231,0.40041658431231786
mem,resp,736,1,mem2.3.2.bmp,mem2.3.1.bmp,mem1.3.1.bmp,ACC024,"[0, 3, 0]","[0, 3, -3]","[-3, 3, -3]",non-match,1.3030765749413242,4,-1.22052722049322,-0.05307558372372554,0.4428982589633214,1st,2nd,3rd,-1.342030961719133,-0.2966574841532553,0.40041658431231786
mem,resp,939,1,mem1.3.2.bmp,mem3.2.1.bmp,mem1.3.2.bmp,ACC024,"[-3, 3, 0]","[3, 0, -3]","[-3, 3, 0]",match,1.2928932188134525,,-1.617596708007179,-0.8472628521229779,0.6547351416098802,1st,1st,4th,-1.342030961719133,-1.2816446009666231,1.2412590635819143
mem,resp,824,1,mem3.3.1.bmp,mem2.1.3.bmp,mem1.1.1.bmp,ACC024,"[3, 3, -3]","[0, -3, 3]","[-3, -3, -3]",non-match,0.5380061947043713,1,-0.7049302508065248,-1.5031882833001968,0.6550599436161018,1st,1st,4th,-1.342030961719133,-1.2816446009666231,1.2412590635819143
mem,resp,1022,1,mem1.3.3.bmp,mem1.2.2.bmp,mem1.2.2.bmp,ACC024,"[-3, 3, 3]","[-3, 0, 0]","[-3, 0, 0]",match,1.591751709536137,,-1.2779323066629025,-1.5927417066608278,0.2832115507160455,1st,1st,3rd,-1.342030961719133,-1.2816446009666231,0.40041658431231786
mem,resp,733,1,mem1.2.1.bmp,mem2.3.2.bmp,mem2.3.1.bmp,ACC024,"[-3, 0, -3]","[0, 3, 0]","[0, 3, -3]",non-match,1.3030765749413242,4,-0.28334209978072583,-1.0488863122038032,0.3051589145127805,2nd,1st,3rd,-0.2770833061315177,-1.2816446009666231,0.40041658431231786
mem,resp,1231,1,mem1.1.3.bmp,mem1.1.2.bmp,mem1.1.3.bmp,ACC024,"[-3, -3, 3]","[-3, -3, 0]","[-3, -3, 3]",match,1.7113248654051871,,-1.1522611631747495,-0.18271107040598522,0.12620867752052303,1st,2nd,3rd,-1.342030961719133,-0.2966574841532553,0.40041658431231786
mem,resp,567,1,mem3.3.2.bmp,mem3.2.2.bmp,mem3.2.2.bmp,ACC024,"[3, 3, 0]","[3, 0, 0]","[3, 0, 0]",match,1.7113248654051871,,-0.609101088777737,-0.7311602242908749,0.04192638609299809,2nd,1st,2nd,-0.2770833061315177,-1.2816446009666231,-0.39046149414803755
mem,resp,882,1,mem2.1.1.bmp,mem3.1.3.bmp,mem3.1.3.bmp,ACC024,"[0, -3, -3]","[3, -3, 3]","[3, -3, 3]",match,1.3545027756320973,,-0.8541686922036631,-0.6879122214200638,0.051456716635941646,1st,1st,2nd,-1.342030961719133,-1.2816446009666231,-0.39046149414803755
mem,resp,604,1,mem1.3.1.bmp,mem1.3.2.bmp,mem1.3.1.bmp,ACC024,"[-3, 3, -3]","[-3, 3, 0]","[-3, 3, -3]",match,1.7113248654051871,,-0.8501596266609598,-0.1334323721687952,0.14705840616300342,1st,2nd,3rd,-1.342030961719133,-0.2966574841532553,0.40041658431231786
mem,resp,860,1,mem1.1.1.bmp,mem3.2.3.bmp,mem2.1.3.bmp,ACC024,"[-3, -3, -3]","[3, 0, 3]","[0, -3, 3]",non-match,0.9462544851682343,3,-1.7120917962246813,-2.3619842362363728,0.1027509612204805,1st,1st,3rd,-1.342030961719133,-1.2816446009666231,0.40041658431231786
mem,resp,1307,1,mem2.3.1.bmp,mem1.3.3.bmp,mem2.3.1.bmp,ACC024,"[0, 3, -3]","[-3, 3, 3]","[0, 3, -3]",match,1.3545027756320973,,-2.6512252886906205,-1.6766812426802709,0.22951748392956234,1st,1st,3rd,-1.342030961719133,-1.2816446009666231,0.40041658431231786
mem,resp,863,1,mem3.2.1.bmp,mem2.1.1.bmp,mem3.2.1.bmp,ACC024,"[3, 0, -3]","[0, -3, -3]","[3, 0, -3]",match,1.591751709536137,,-1.7195135931391485,-2.2782240586941143,0.20466312872704331,1st,1st,3rd,-1.342030961719133,-1.2816446009666231,0.40041658431231786
mem,resp,859,1,mem3.1.1.bmp,mem2.2.2.bmp,mem3.3.2.bmp,ACC024,"[3, -3, -3]","[0, 0, 0]","[3, 3, 0]",non-match,0.9462544851682343,3,-1.9969598748833213,-2.0556427073296204,0.31538080148962655,1st,1st,3rd,-1.342030961719133,-1.2816446009666231,0.40041658431231786
mem,resp,580,1,mem3.1.3.bmp,mem2.1.2.bmp,mem3.3.1.bmp,ACC024,"[3, -3, 3]","[0, -3, 0]","[3, 3, -3]",non-match,0.4763966378857265,1,0.08432497070983322,-0.8271819955261535,0.48111239865797584,2nd,1st,3rd,-0.2770833061315177,-1.2816446009666231,0.40041658431231786
mem,resp,705,0,mem2.3.3.bmp,mem3.3.3.bmp,mem2.3.3.bmp,ACC024,"[0, 3, 3]","[3, 3, 3]","[0, 3, 3]",match,1.7113248654051871,,-0.02449590484970288,-1.753760834828036,0.382103137867411,2nd,1st,3rd,-0.2770833061315177,-1.2816446009666231,0.40041658431231786
mem,resp,587,1,mem1.2.3.bmp,mem2.2.3.bmp,mem3.1.2.bmp,ACC024,"[-3, 0, 3]","[0, 0, 3]","[3, -3, 0]",non-match,0.7928932188134524,2,0.3266217895812445,-0.6202412329880319,0.23707981185905397,3rd,2nd,3rd,0.4396593820171105,-0.2966574841532553,0.40041658431231786
mem,resp,1006,1,mem1.2.2.bmp,mem3.3.2.bmp,mem3.3.2.bmp,ACC024,"[-3, 0, 0]","[3, 3, 0]","[3, 3, 0]",match,1.3545027756320973,,-1.3535311930755496,-2.3921616537802493,-0.030459358844107,1st,1st,2nd,-1.342030961719133,-1.2816446009666231,-0.39046149414803755
mem,resp,690,0,mem2.2.1.bmp,mem1.3.3.bmp,mem2.2.1.bmp,ACC024,"[0, 0, -3]","[-3, 3, 3]","[0, 0, -3]",match,1.2928932188134525,,-0.36952913873369136,-1.2194161847750349,-0.2950786368716237,2nd,1st,2nd,-0.2770833061315177,-1.2816446009666231,-0.39046149414803755
mem,resp,691,1,mem3.2.2.bmp,mem2.3.3.bmp,mem1.1.1.bmp,ACC024,"[3, 0, 0]","[0, 3, 3]","[-3, -3, -3]",non-match,0.42686781502901383,1,-0.06631997862955896,-1.1330607704457096,-0.2913879726190382,2nd,1st,2nd,-0.2770833061315177,-1.2816446009666231,-0.39046149414803755
mem,resp,1421,1,mem3.2.3.bmp,mem1.3.1.bmp,mem2.1.1.bmp,ACC024,"[3, 0, 3]","[-3, 3, -3]","[0, -3, -3]",non-match,0.6473959944455496,1,-2.528863395186869,-0.6552164795920552,-0.4881898222306074,1st,1st,2nd,-1.342030961719133,-1.2816446009666231,-0.39046149414803755
mem,resp,725,1,mem1.1.2.bmp,mem1.2.2.bmp,mem2.3.2.bmp,ACC024,"[-3, -3, 0]","[-3, 0, 0]","[0, 3, 0]",non-match,0.9462544851682343,3,0.03912330393736677,-0.166921837080879,-0.32457783251037253,2nd,2nd,2nd,-0.2770833061315177,-0.2966574841532553,-0.39046149414803755
mem,resp,576,0,mem1.3.2.bmp,mem2.1.3.bmp,mem3.1.1.bmp,ACC024,"[-3, 3, 0]","[0, -3, 3]","[3, -3, -3]",non-match,0.4884773718476586,1,-0.753927229556689,0.5227183685498858,-0.36839499299697115,1st,3rd,2nd,-1.342030961719133,0.29999398128577703,-0.39046149414803755
mem,resp,1201,0,mem3.2.2.bmp,mem1.2.1.bmp,mem2.1.2.bmp,ACC024,"[3, 0, 0]","[-3, 0, -3]","[0, -3, 0]",non-match,1.091751709536137,4,-1.5204248666798894,-2.1029574321124707,-0.07709204863873724,1st,1st,2nd,-1.342030961719133,-1.2816446009666231,-0.39046149414803755
mem,resp,1078,1,mem1.1.1.bmp,mem2.1.1.bmp,mem2.2.3.bmp,ACC024,"[-3, -3, -3]","[0, -3, -3]","[0, 0, 3]",non-match,0.6473959944455496,1,-0.5782606907120271,-0.9067973897917929,-0.3384753234016959,2nd,1st,2nd,-0.2770833061315177,-1.2816446009666231,-0.39046149414803755
mem,resp,1507,1,mem2.2.1.bmp,mem2.3.2.bmp,mem2.2.1.bmp,ACC024,"[0, 0, -3]","[0, 3, 0]","[0, 0, -3]",match,1.591751709536137,,-2.436882985705174,-2.0039326334808343,-0.4451531010449617,1st,1st,2nd,-1.342030961719133,-1.2816446009666231,-0.39046149414803755
mem,resp,1083,1,mem2.3.3.bmp,mem1.1.2.bmp,mem1.1.2.bmp,ACC024,"[0, 3, 3]","[-3, -3, 0]","[-3, -3, 0]",match,1.2928932188134525,,-0.028529469416620275,-0.9671011052134347,-0.6584539679263071,2nd,1st,2nd,-0.2770833061315177,-1.2816446009666231,-0.39046149414803755
mem,resp,1673,0,mem2.2.2.bmp,mem1.3.2.bmp,mem1.3.2.bmp,ACC024,"[0, 0, 0]","[-3, 3, 0]","[-3, 3, 0]",match,1.591751709536137,,-2.2291262946731507,-1.6453883944300325,-0.8502803598702587,1st,1st,1st,-1.342030961719133,-1.2816446009666231,-1.2512141537461927
mem,resp,959,1,mem1.1.3.bmp,mem3.2.1.bmp,mem3.2.1.bmp,ACC024,"[-3, -3, 3]","[3, 0, -3]","[3, 0, -3]",match,1.1339745962155614,,-1.3092877102649556,0.024950405101202562,-0.9611556831732964,1st,3rd,1st,-1.342030961719133,0.29999398128577703,-1.2512141537461927
mem,resp,913,1,mem2.2.3.bmp,mem2.3.1.bmp,mem1.3.1.bmp,ACC024,"[0, 0, 3]","[0, 3, -3]","[-3, 3, -3]",non-match,1.0042180842186395,3,-1.4893295072566808,-1.4523910127677924,-1.1745994979272771,1st,1st,1st,-1.342030961719133,-1.2816446009666231,-1.2512141537461927
mem,resp,718,1,mem2.3.2.bmp,mem3.3.3.bmp,mem2.1.1.bmp,ACC024,"[0, 3, 0]","[3, 3, 3]","[0, -3, -3]",non-match,0.4884773718476586,1,1.1225707628833992,0.35455813409549514,-1.0784097385837252,4th,3rd,1st,1.1794548858335405,0.29999398128577703,-1.2512141537461927
mem,resp,924,0,mem3.3.1.bmp,mem3.2.3.bmp,mem3.2.2.bmp,ACC024,"[3, 3, -3]","[3, 0, 3]","[3, 0, 0]",non-match,1.3030765749413242,4,-1.3096681839384006,-1.7490594234074237,-0.724692970299982,1st,1st,2nd,-1.342030961719133,-1.2816446009666231,-0.39046149414803755
mem,resp,1450,1,mem2.1.2.bmp,mem3.1.2.bmp,mem2.1.2.bmp,ACC024,"[0, -3, 0]","[3, -3, 0]","[0, -3, 0]",match,1.7113248654051871,,-1.242582861278868,-0.8373654507215041,-0.7149459387516142,1st,1st,2nd,-1.342030961719133,-1.2816446009666231,-0.39046149414803755
mem,resp,1091,1,mem3.2.1.bmp,mem3.1.2.bmp,mem1.2.2.bmp,ACC024,"[3, 0, -3]","[3, -3, 0]","[-3, 0, 0]",non-match,0.7090055512641944,1,-0.2873257452301053,-0.8468898028857356,-0.3997741211679217,2nd,1st,2nd,-0.2770833061315177,-1.2816446009666231,-0.39046149414803755
mem,resp,904,1,mem2.3.2.bmp,mem3.3.3.bmp,mem3.3.3.bmp,ACC024,"[0, 3, 0]","[3, 3, 3]","[3, 3, 3]",match,1.591751709536137,,1.7565334132037105,1.8720318352515493,-0.38094432476114454,4th,4th,2nd,1.1794548858335405,1.2783081038341009,-0.39046149414803755
mem,resp,1342,1,mem2.2.3.bmp,mem1.2.1.bmp,mem2.2.3.bmp,ACC024,"[0, 0, 3]","[-3, 0, -3]","[0, 0, 3]",match,1.3545027756320973,,-1.2581573839174092,-0.36003035303670644,-0.41337556320155316,1st,2nd,2nd,-1.342030961719133,-0.2966574841532553,-0.39046149414803755
mem,resp,1531,0,mem3.2.2.bmp,mem1.3.2.bmp,mem2.2.1.bmp,ACC024,"[3, 0, 0]","[-3, 3, 0]","[0, 0, -3]",non-match,1.091751709536137,4,-1.092010345443891,0.6258576939834389,-0.3966908403402534,1st,3rd,2nd,-1.342030961719133,0.29999398128577703,-0.39046149414803755
mem,resp,927,1,mem1.1.2.bmp,mem2.3.3.bmp,mem2.3.3.bmp,ACC024,"[-3, -3, 0]","[0, 3, 3]","[0, 3, 3]",match,1.2928932188134525,,-0.5674193058049031,0.9688380432657453,-0.44480107168529043,2nd,4th,2nd,-0.2770833061315177,1.2783081038341009,-0.39046149414803755
mem,resp,1012,1,mem1.1.3.bmp,mem1.2.2.bmp,mem1.1.3.bmp,ACC024,"[-3, -3, 3]","[-3, 0, 0]","[-3, -3, 3]",match,1.591751709536137,,-0.32325264111861157,0.6651780084607003,-0.3253535328685622,2nd,3rd,2nd,-0.2770833061315177,0.29999398128577703,-0.39046149414803755
mem,resp,544,1,mem1.2.1.bmp,mem1.2.3.bmp,mem1.2.3.bmp,ACC024,"[-3, 0, -3]","[-3, 0, 3]","[-3, 0, 3]",match,1.4226497308103743,,0.4465216044275943,1.8069948166563234,-0.4519152905090537,3rd,4th,2nd,0.4396593820171105,1.2783081038341009,-0.39046149414803755
mem,resp,593,1,mem3.3.2.bmp,mem3.1.3.bmp,mem3.1.3.bmp,ACC024,"[3, 3, 0]","[3, -3, 3]","[3, -3, 3]",match,1.3545027756320973,,-0.19527393609690633,1.1837511402779988,-0.38287288051000795,2nd,4th,2nd,-0.2770833061315177,1.2783081038341009,-0.39046149414803755
mem,resp,505,1,mem2.1.2.bmp,mem2.2.2.bmp,mem2.1.2.bmp,ACC024,"[0, -3, 0]","[0, 0, 0]","[0, -3, 0]",match,1.7113248654051871,,0.5550626673029073,1.0833474015362539,-0.40409067683908273,3rd,4th,2nd,0.4396593820171105,1.2783081038341009,-0.39046149414803755
mem,resp,917,0,mem2.3.1.bmp,mem3.1.1.bmp,mem2.3.1.bmp,ACC024,"[0, 3, -3]","[3, -3, -3]","[0, 3, -3]",match,1.3545027756320973,,0.6011478977005464,0.2623118402666993,-0.2853281719302777,3rd,3rd,2nd,0.4396593820171105,0.29999398128577703,-0.39046149414803755
mem,resp,701,1,mem1.3.1.bmp,mem3.2.2.bmp,mem1.3.1.bmp,ACC024,"[-3, 3, -3]","[3, 0, 0]","[-3, 3, -3]",match,1.2928932188134525,,-0.2026930668025053,0.5341113003848953,-0.4625429652986822,2nd,3rd,2nd,-0.2770833061315177,0.29999398128577703,-0.39046149414803755
mem,resp,1113,1,mem2.1.3.bmp,mem3.2.3.bmp,mem1.3.3.bmp,ACC024,"[0, -3, 3]","[3, 0, 3]","[-3, 3, 3]",non-match,0.7090055512641944,1,0.43367472402214496,1.184809310733544,-0.42655712225625153,3rd,4th,2nd,0.4396593820171105,1.2783081038341009,-0.39046149414803755
mem,resp,991,0,mem3.1.3.bmp,mem1.1.1.bmp,mem1.2.1.bmp,ACC024,"[3, -3, 3]","[-3, -3, -3]","[-3, 0, -3]",non-match,0.8452994616207485,2,-0.49482470712229754,0.8880861348542478,-0.33867692203415783,2nd,4th,2nd,-0.2770833061315177,1.2783081038341009,-0.39046149414803755
mem,resp,742,1,mem3.1.1.bmp,mem2.1.1.bmp,mem2.1.1.bmp,ACC024,"[3, -3, -3]","[0, -3, -3]","[0, -3, -3]",match,1.7113248654051871,,2.0401769532934635,1.6982558970470343,-0.6220723507534134,4th,4th,2nd,1.1794548858335405,1.2783081038341009,-0.39046149414803755
mem,resp,726,1,mem3.3.3.bmp,mem2.2.1.bmp,mem2.2.1.bmp,ACC024,"[3, 3, 3]","[0, 0, -3]","[0, 0, -3]",match,1.2928932188134525,,1.1027495418511681,-0.3956995120741947,-0.7303778344458964,4th,2nd,2nd,1.1794548858335405,-0.2966574841532553,-0.39046149414803755
mem,resp,709,0,mem3.1.2.bmp,mem1.3.3.bmp,mem2.1.2.bmp,ACC024,"[3, -3, 0]","[-3, 3, 3]","[0, -3, 0]",non-match,1.0042180842186395,3,1.8779858352759484,1.8797251910827182,-0.8985605655772366,4th,4th,1st,1.1794548858335405,1.2783081038341009,-1.2512141537461927
mem,resp,934,1,mem1.3.2.bmp,mem3.2.2.bmp,mem1.1.1.bmp,ACC024,"[-3, 3, 0]","[3, 0, 0]","[-3, -3, -3]",non-match,0.6473959944455496,1,0.7513421740545989,-0.08963401429147912,-0.5324857068051594,4th,2nd,2nd,1.1794548858335405,-0.2966574841532553,-0.39046149414803755
mem,resp,938,1,mem3.3.1.bmp,mem2.3.1.bmp,mem3.3.1.bmp,ACC024,"[3, 3, -3]","[0, 3, -3]","[3, 3, -3]",match,1.7113248654051871,,-0.8409912568534845,0.3798482746436431,-0.561026261545309,1st,3rd,2nd,-1.342030961719133,0.29999398128577703,-0.39046149414803755
mem,resp,933,1,mem2.3.3.bmp,mem3.1.3.bmp,mem3.1.3.bmp,ACC024,"[0, 3, 3]","[3, -3, 3]","[3, -3, 3]",match,1.3545027756320973,,-1.058675249254496,1.454695350711287,-0.5265461390587636,1st,4th,2nd,-1.342030961719133,1.2783081038341009,-0.39046149414803755
mem,resp,1116,0,mem3.2.3.bmp,mem3.1.1.bmp,mem3.2.3.bmp,ACC024,"[3, 0, 3]","[3, -3, -3]","[3, 0, 3]",match,1.3545027756320973,,-0.8307984777687814,-0.601049273861135,-0.9287972755716162,1st,2nd,1st,-1.342030961719133,-0.2966574841532553,-1.2512141537461927
mem,resp,842,1,mem2.1.1.bmp,mem3.2.1.bmp,mem1.2.1.bmp,ACC024,"[0, -3, -3]","[3, 0, -3]","[-3, 0, -3]",non-match,1.0144014403465114,3,-1.0160857840715676,-1.5727943050981186,-1.2160874592060191,1st,1st,1st,-1.342030961719133,-1.2816446009666231,-1.2512141537461927
mem,resp,1529,0,mem1.3.3.bmp,mem1.1.2.bmp,mem1.3.2.bmp,ACC024,"[-3, 3, 3]","[-3, -3, 0]","[-3, 3, 0]",non-match,1.1339745962155614,4,0.9558034187077961,2.618927760881116,-1.1016483011051479,4th,4th,1st,1.1794548858335405,1.2783081038341009,-1.2512141537461927
mem,resp,873,0,mem1.2.3.bmp,mem3.3.1.bmp,mem1.1.3.bmp,ACC024,"[-3, 0, 3]","[3, 3, -3]","[-3, -3, 3]",non-match,0.7113248654051871,2,0.4333069496351298,0.5876184625658366,-1.00234792142403,3rd,3rd,1st,0.4396593820171105,0.29999398128577703,-1.2512141537461927
mem,resp,939,1,mem2.2.1.bmp,mem1.3.1.bmp,mem2.2.3.bmp,ACC024,"[0, 0, -3]","[-3, 3, -3]","[0, 0, 3]",non-match,0.7155429496238267,2,0.32309624252371677,0.9237416844307713,-0.6450523405454722,3rd,4th,2nd,0.4396593820171105,1.2783081038341009,-0.39046149414803755
mem,resp,1044,1,mem1.1.1.bmp,mem3.3.2.bmp,mem3.2.3.bmp,ACC024,"[-3, -3, -3]","[3, 3, 0]","[3, 0, 3]",non-match,0.7257263057516985,2,0.44100344775268446,1.0963365078265508,-0.37800700531585124,3rd,4th,2nd,0.4396593820171105,1.2783081038341009,-0.39046149414803755
mem,resp,1098,1,mem2.2.2.bmp,mem2.1.3.bmp,mem2.1.3.bmp,ACC024,"[0, 0, 0]","[0, -3, 3]","[0, -3, 3]",match,1.591751709536137,,0.622676925442918,1.2263660259904825,-0.5025409303166511,3rd,4th,2nd,0.4396593820171105,1.2783081038341009,-0.39046149414803755
mem,resp,1002,1,mem1.2.2.bmp,mem2.3.2.bmp,mem1.2.2.bmp,ACC024,"[-3, 0, 0]","[0, 3, 0]","[-3, 0, 0]",match,1.591751709536137,,0.46973571791029595,1.1897509226773075,-0.44569470999844074,3rd,4th,2nd,0.4396593820171105,1.2783081038341009,-0.39046149414803755
mem,resp,888,1,mem3.3.3.bmp,mem1.1.3.bmp,mem3.3.3.bmp,ACC024,"[3, 3, 3]","[-3, -3, 3]","[3, 3, 3]",match,1.1835034190722742,,-0.7303466098295686,0.16635448011685683,-0.4423579472347554,1st,3rd,2nd,-1.342030961719133,0.29999398128577703,-0.39046149414803755
mem,resp,1022,0,mem3.3.1.bmp,mem3.2.3.bmp,mem3.2.3.bmp,ACC024,"[3, 3, -3]","[3, 0, 3]","[3, 0, 3]",match,1.3545027756320973,,0.4364785790925607,0.8101169105093448,-0.4754093180736972,3rd,4th,2nd,0.4396593820171105,1.2783081038341009,-0.39046149414803755
mem,resp,1249,1,mem1.1.2.bmp,mem2.2.1.bmp,mem3.1.3.bmp,ACC024,"[-3, -3, 0]","[0, 0, -3]","[3, -3, 3]",non-match,0.6473959944455496,1,-1.789087081132266,-0.45760481546202764,-0.6829613649204691,1st,2nd,2nd,-1.342030961719133,-0.2966574841532553,-0.39046149414803755
mem,resp,1045,1,mem1.3.2.bmp,mem2.2.3.bmp,mem2.2.3.bmp,ACC024,"[-3, 3, 0]","[0, 0, 3]","[0, 0, 3]",match,1.5,,0.8974714423228062,1.383890070424353,-0.42421467928624423,4th,4th,2nd,1.1794548858335405,1.2783081038341009,-0.39046149414803755
mem,resp,791,1,mem1.1.3.bmp,mem2.1.2.bmp,mem1.1.3.bmp,ACC024,"[-3, -3, 3]","[0, -3, 0]","[-3, -3, 3]",match,1.591751709536137,,1.1355794467763072,0.08733086780093571,-0.13917543660260479,4th,3rd,2nd,1.1794548858335405,0.29999398128577703,-0.39046149414803755
mem,resp,1828,1,mem3.2.3.bmp,mem1.3.3.bmp,mem2.2.2.bmp,ACC024,"[3, 0, 3]","[-3, 3, 3]","[0, 0, 0]",non-match,1.091751709536137,4,-0.19562962905289588,0.10899293899068226,-0.30996607615071387,2nd,3rd,2nd,-0.2770833061315177,0.29999398128577703,-0.39046149414803755
mem,resp,1329,1,mem1.2.1.bmp,mem1.2.3.bmp,mem1.2.3.bmp,ACC024,"[-3, 0, -3]","[-3, 0, 3]","[-3, 0, 3]",match,1.4226497308103743,,-0.7604006588332527,-0.7308878769011367,-0.08419109898227092,1st,1st,2nd,-1.342030961719133,-1.2816446009666231,-0.39046149414803755
mem,resp,882,1,mem1.3.1.bmp,mem1.3.2.bmp,mem1.3.2.bmp,ACC024,"[-3, 3, -3]","[-3, 3, 0]","[-3, 3, 0]",match,1.7113248654051871,,0.9228711368230038,1.644133441645645,0.13737064320506787,4th,4th,3rd,1.1794548858335405,1.2783081038341009,0.40041658431231786
mem,resp,593,1,mem3.1.2.bmp,mem3.3.3.bmp,mem1.1.2.bmp,ACC024,"[3, -3, 0]","[3, 3, 3]","[-3, -3, 0]",non-match,0.5566243270259357,1,1.524262461194465,0.47841593008684863,0.404021840347595,4th,3rd,3rd,1.1794548858335405,0.29999398128577703,0.40041658431231786
mem,resp,936,1,mem3.2.1.bmp,mem3.2.2.bmp,mem3.2.2.bmp,ACC024,"[3, 0, -3]","[3, 0, 0]","[3, 0, 0]",match,1.7113248654051871,,0.44549269631462846,-0.6773494428933068,0.6163917821773404,3rd,1st,3rd,0.4396593820171105,-1.2816446009666231,0.40041658431231786
mem,resp,650,1,mem2.1.1.bmp,mem2.1.3.bmp,mem2.3.1.bmp,ACC024,"[0, -3, -3]","[0, -3, 3]","[0, 3, -3]",non-match,0.6061531498826483,1,0.8616621856117849,-0.6426547194325883,0.5042290459386715,4th,2nd,3rd,1.1794548858335405,-0.2966574841532553,0.40041658431231786
mem,resp,545,1,mem2.1.2.bmp,mem2.1.1.bmp,mem2.1.1.bmp,ACC024,"[0, -3, 0]","[0, -3, -3]","[0, -3, -3]",match,1.7113248654051871,,-0.10850422412819538,0.20244858020157264,0.7626658838620676,2nd,3rd,4th,-0.2770833061315177,0.29999398128577703,1.2412590635819143
mem,resp,766,1,mem1.2.2.bmp,mem1.1.3.bmp,mem1.1.3.bmp,ACC024,"[-3, 0, 0]","[-3, -3, 3]","[-3, -3, 3]",match,1.591751709536137,,-0.16880830913511655,0.14401201071219424,0.5634916248799561,2nd,3rd,3rd,-0.2770833061315177,0.29999398128577703,0.40041658431231786
mem,resp,1213,0,mem1.2.3.bmp,mem3.1.2.bmp,mem1.2.3.bmp,ACC024,"[-3, 0, 3]","[3, -3, 0]","[-3, 0, 3]",match,1.2928932188134525,,-0.697596648125326,-0.15516756232202614,0.6587372380659902,1st,2nd,4th,-1.342030961719133,-0.2966574841532553,1.2412590635819143
mem,resp,767,1,mem3.2.2.bmp,mem1.2.1.bmp,mem2.3.3.bmp,ACC024,"[3, 0, 0]","[-3, 0, -3]","[0, 3, 3]",non-match,0.7928932188134524,2,1.165681279679281,0.5026380902105878,0.5890699164850121,4th,3rd,3rd,1.1794548858335405,0.29999398128577703,0.40041658431231786
mem,resp,791,1,mem3.2.1.bmp,mem1.1.2.bmp,mem2.1.3.bmp,ACC024,"[3, 0, -3]","[-3, -3, 0]","[0, -3, 3]",non-match,0.8846449283495895,2,1.130744769629154,-0.1490727143853403,0.9570081358775165,4th,2nd,4th,1.1794548858335405,-0.2966574841532553,1.2412590635819143
mem,resp,552,1,mem1.3.1.bmp,mem1.3.2.bmp,mem3.2.3.bmp,ACC024,"[-3, 3, -3]","[-3, 3, 0]","[3, 0, 3]",non-match,0.42686781502901383,1,1.8610669448013077,0.7741857293804835,0.9622185573465184,4th,4th,4th,1.1794548858335405,1.2783081038341009,1.2412590635819143
mem,resp,877,1,mem3.3.2.bmp,mem3.3.1.bmp,mem3.3.2.bmp,ACC024,"[3, 3, 0]","[3, 3, -3]","[3, 3, 0]",match,1.7113248654051871,,0.6032628130508815,1.2433781719389545,1.0449286955963193,3rd,4th,4th,0.4396593820171105,1.2783081038341009,1.2412590635819143
mem,resp,526,1,mem3.1.3.bmp,mem3.3.3.bmp,mem2.2.3.bmp,ACC024,"[3, -3, 3]","[3, 3, 3]","[0, 0, 3]",non-match,1.1835034190722742,4,1.5499528500287052,0.40969169659279214,0.8781543535842595,4th,3rd,4th,1.1794548858335405,0.29999398128577703,1.2412590635819143
mem,resp,1555,1,mem2.2.2.bmp,mem1.2.2.bmp,mem2.2.2.bmp,ACC024,"[0, 0, 0]","[-3, 0, 0]","[0, 0, 0]",match,1.7113248654051871,,-0.5829620508152932,-0.6358017756659026,0.8150088806407133,2nd,2nd,4th,-0.2770833061315177,-0.2966574841532553,1.2412590635819143
mem,resp,1695,0,mem2.1.3.bmp,mem1.3.3.bmp,mem2.1.3.bmp,ACC024,"[0, -3, 3]","[-3, 3, 3]","[0, -3, 3]",match,1.3545027756320973,,-0.27302343127535683,0.10469908432521426,0.8934283869562111,2nd,3rd,4th,-0.2770833061315177,0.29999398128577703,1.2412590635819143
mem,resp,728,1,mem2.3.1.bmp,mem2.3.2.bmp,mem2.3.1.bmp,ACC024,"[0, 3, -3]","[0, 3, 0]","[0, 3, -3]",match,1.7113248654051871,,0.44363340928818923,-0.08363448030905277,0.7213895335552092,3rd,2nd,4th,0.4396593820171105,-0.2966574841532553,1.2412590635819143
mem,resp,750,1,mem1.3.2.bmp,mem2.3.3.bmp,mem1.3.2.bmp,ACC024,"[-3, 3, 0]","[0, 3, 3]","[-3, 3, 0]",match,1.591751709536137,,0.9997216607075086,0.9649236343862189,0.5737191463841437,4th,4th,3rd,1.1794548858335405,1.2783081038341009,0.40041658431231786
mem,resp,1258,1,mem3.3.1.bmp,mem2.2.3.bmp,mem2.2.3.bmp,ACC024,"[3, 3, -3]","[0, 0, 3]","[0, 0, 3]",match,1.2928932188134525,,-0.3932235851575022,-0.3295345613551085,0.49491869866026794,2nd,2nd,3rd,-0.2770833061315177,-0.2966574841532553,0.40041658431231786
mem,resp,611,1,mem1.2.1.bmp,mem2.2.2.bmp,mem1.1.1.bmp,ACC024,"[-3, 0, -3]","[0, 0, 0]","[-3, -3, -3]",non-match,1.2113248654051871,4,2.104325195356666,-0.17120780023186605,0.31758094215170857,4th,2nd,3rd,1.1794548858335405,-0.2966574841532553,0.40041658431231786
mem,resp,794,1,mem1.1.3.bmp,mem3.3.2.bmp,mem3.3.2.bmp,ACC024,"[-3, -3, 3]","[3, 3, 0]","[3, 3, 0]",match,1.1339745962155614,,0.5713827855624187,-0.281482884771238,0.3861021327465492,3rd,2nd,3rd,0.4396593820171105,-0.2966574841532553,0.40041658431231786
mem,resp,635,1,mem2.1.1.bmp,mem3.2.1.bmp,mem3.2.1.bmp,ACC024,"[0, -3, -3]","[3, 0, -3]","[3, 0, -3]",match,1.591751709536137,,0.8351674387505841,0.6911944540683482,0.4323162214762325,4th,4th,3rd,1.1794548858335405,1.2783081038341009,0.40041658431231786
mem,resp,689,0,mem3.1.2.bmp,mem1.2.3.bmp,mem1.3.3.bmp,ACC024,"[3, -3, 0]","[-3, 0, 3]","[-3, 3, 3]",non-match,0.8452994616207485,2,0.22933202808268582,1.2062914281810044,0.23685543907097337,3rd,4th,3rd,0.4396593820171105,1.2783081038341009,0.40041658431231786
mem,resp,700,1,mem3.3.3.bmp,mem2.3.1.bmp,mem3.3.3.bmp,ACC024,"[3, 3, 3]","[0, 3, -3]","[3, 3, 3]",match,1.3545027756320973,,1.83029672454499,1.4165609403756874,0.5709043809005346,4th,4th,3rd,1.1794548858335405,1.2783081038341009,0.40041658431231786
mem,resp,561,1,mem3.2.3.bmp,mem3.1.3.bmp,mem3.2.3.bmp,ACC024,"[3, 0, 3]","[3, -3, 3]","[3, 0, 3]",match,1.7113248654051871,,0.6873629347123447,0.6536576490759117,0.36029848673944764,3rd,3rd,3rd,0.4396593820171105,0.29999398128577703,0.40041658431231786
mem,resp,634,1,mem2.2.1.bmp,mem3.1.1.bmp,mem1.2.1.bmp,ACC024,"[0, 0, -3]","[3, -3, -3]","[-3, 0, -3]",non-match,1.0658276410372842,3,1.3415903017207407,-0.17286028336418702,0.3686172033956678,4th,2nd,3rd,1.1794548858335405,-0.2966574841532553,0.40041658431231786
mem,resp,805,1,mem1.1.1.bmp,mem2.2.2.bmp,mem1.1.1.bmp,ACC024,"[-3, -3, -3]","[0, 0, 0]","[-3, -3, -3]",match,1.5,,0.7966920692673369,-0.19501267611833328,0.20155123434431857,4th,2nd,3rd,1.1794548858335405,-0.2966574841532553,0.40041658431231786
mem,resp,636,1,mem1.1.2.bmp,mem1.2.3.bmp,mem1.1.2.bmp,ACC024,"[-3, -3, 0]","[-3, 0, 3]","[-3, -3, 0]",match,1.591751709536137,,1.5547240573996897,1.1941732185439835,0.29101950694160894,4th,4th,3rd,1.1794548858335405,1.2783081038341009,0.40041658431231786
mem,resp,1321,0,mem2.3.2.bmp,mem2.2.3.bmp,mem2.3.2.bmp,ACC024,"[0, 3, 0]","[0, 0, 3]","[0, 3, 0]",match,1.591751709536137,,-1.0970059816475182,-0.35166974924708,0.03342504698000876,1st,2nd,2nd,-1.342030961719133,-0.2966574841532553,-0.39046149414803755
mem,resp,787,0,mem1.3.3.bmp,mem2.1.2.bmp,mem1.2.2.bmp,ACC024,"[-3, 3, 3]","[0, -3, 0]","[-3, 0, 0]",non-match,1.1835034190722742,4,0.7696955430547007,1.1517350483316364,-0.008983478435715639,4th,4th,2nd,1.1794548858335405,1.2783081038341009,-0.39046149414803755
mem,resp,811,1,mem3.1.1.bmp,mem3.2.2.bmp,mem3.1.1.bmp,ACC024,"[3, -3, -3]","[3, 0, 0]","[3, -3, -3]",match,1.591751709536137,,0.9123443856527823,-0.1312871864116709,-0.028819786272609896,4th,2nd,2nd,1.1794548858335405,-0.2966574841532553,-0.39046149414803755
mem,resp,1128,1,mem2.3.3.bmp,mem2.3.1.bmp,mem1.1.1.bmp,ACC024,"[0, 3, 3]","[0, 3, -3]","[-3, -3, -3]",non-match,0.4884773718476586,1,0.6541945884840598,0.5535353380678308,0.23861707958012257,3rd,3rd,3rd,0.4396593820171105,0.29999398128577703,0.40041658431231786
mem,resp,780,1,mem2.2.3.bmp,mem2.1.3.bmp,mem2.1.1.bmp,ACC024,"[0, 0, 3]","[0, -3, 3]","[0, -3, -3]",non-match,0.7771525064424715,2,0.786287025488679,-1.0573585537112167,0.4349724804773857,4th,1st,3rd,1.1794548858335405,-1.2816446009666231,0.40041658431231786
mem,resp,1097,1,mem1.3.2.bmp,mem3.3.3.bmp,mem3.2.3.bmp,ACC024,"[-3, 3, 0]","[3, 3, 3]","[3, 0, 3]",non-match,1.0042180842186395,3,-0.6511814646174078,-0.2577801767851809,0.5565701148205819,2nd,2nd,3rd,-0.2770833061315177,-0.2966574841532553,0.40041658431231786
mem,resp,658,1,mem2.2.2.bmp,mem3.2.1.bmp,mem1.2.1.bmp,ACC024,"[0, 0, 0]","[3, 0, -3]","[-3, 0, -3]",non-match,1.0144014403465114,3,0.7468162403903541,-0.11792206306241383,0.5472638912854736,4th,2nd,3rd,1.1794548858335405,-0.2966574841532553,0.40041658431231786
mem,resp,1627,1,mem3.1.2.bmp,mem3.1.3.bmp,mem3.1.3.bmp,ACC024,"[3, -3, 0]","[3, -3, 3]","[3, -3, 3]",match,1.7113248654051871,,0.3160859987715785,1.1011310110555408,0.39678654153125886,3rd,4th,3rd,0.4396593820171105,1.2783081038341009,0.40041658431231786
mem,resp,924,1,mem2.1.2.bmp,mem3.3.2.bmp,mem2.1.2.bmp,ACC024,"[0, -3, 0]","[3, 3, 0]","[0, -3, 0]",match,1.3545027756320973,,0.2837223828467234,0.09955233382312305,0.45053095654002606,3rd,3rd,3rd,0.4396593820171105,0.29999398128577703,0.40041658431231786
mem,resp,697,0,mem3.1.1.bmp,mem1.3.3.bmp,mem1.3.2.bmp,ACC024,"[3, -3, -3]","[-3, 3, 3]","[-3, 3, 0]",non-match,0.8452994616207485,2,1.1479757074365322,1.0001620766042427,0.29534193338365955,4th,4th,3rd,1.1794548858335405,1.2783081038341009,0.40041658431231786
mem,resp,1083,0,mem3.2.1.bmp,mem2.1.1.bmp,mem3.2.2.bmp,ACC024,"[3, 0, -3]","[0, -3, -3]","[3, 0, 0]",non-match,1.2113248654051871,4,-0.11707307678895032,-0.38765776968929383,0.33680197616741514,2nd,2nd,3rd,-0.2770833061315177,-0.2966574841532553,0.40041658431231786
mem,resp,1158,0,mem1.3.1.bmp,mem1.2.2.bmp,mem1.2.3.bmp,ACC024,"[-3, 3, -3]","[-3, 0, 0]","[-3, 0, 3]",non-match,1.0658276410372842,3,-0.47575223327357397,-0.23487086533777182,0.5805152691332149,2nd,2nd,3rd,-0.2770833061315177,-0.2966574841532553,0.40041658431231786
mem,resp,1074,1,mem3.1.3.bmp,mem1.2.1.bmp,mem2.3.3.bmp,ACC024,"[3, -3, 3]","[-3, 0, -3]","[0, 3, 3]",non-match,0.6473959944455496,1,0.5435539281050269,1.7065229931930905,0.5333989038587039,3rd,4th,3rd,0.4396593820171105,1.2783081038341009,0.40041658431231786
mem,resp,839,0,mem3.3.3.bmp,mem1.1.2.bmp,mem3.3.2.bmp,ACC024,"[3, 3, 3]","[-3, -3, 0]","[3, 3, 0]",non-match,0.8948282844774612,2,-0.1636054738777989,0.035819796177665626,0.7406043139480414,2nd,3rd,4th,-0.2770833061315177,0.29999398128577703,1.2412590635819143
mem,resp,828,1,mem2.3.2.bmp,mem1.1.3.bmp,mem3.1.1.bmp,ACC024,"[0, 3, 0]","[-3, -3, 3]","[3, -3, -3]",non-match,0.4763966378857265,1,1.1579579097462493,0.005881376721436825,0.5363271331777013,4th,3rd,3rd,1.1794548858335405,0.29999398128577703,0.40041658431231786
mem,resp,923,1,mem1.2.3.bmp,mem2.2.1.bmp,mem1.3.3.bmp,ACC024,"[-3, 0, 3]","[0, 0, -3]","[-3, 3, 3]",non-match,1.0042180842186395,3,-0.6227514427753793,-0.9751335312743167,0.3856635026799012,2nd,1st,3rd,-0.2770833061315177,-1.2816446009666231,0.40041658431231786
mem,resp,1179,0,mem3.2.3.bmp,mem3.3.1.bmp,mem3.2.3.bmp,ACC024,"[3, 0, 3]","[3, 3, -3]","[3, 0, 3]",match,1.3545027756320973,,0.6251234922794943,1.3838205162484452,0.6251659713688478,3rd,4th,3rd,0.4396593820171105,1.2783081038341009,0.40041658431231786
mem,resp,1281,0,mem2.3.2.bmp,mem2.2.1.bmp,mem2.3.2.bmp,ACC024,"[0, 3, 0]","[0, 0, -3]","[0, 3, 0]",match,1.591751709536137,,-0.9808695149027605,1.3463888860955566,0.6379491200306372,1st,4th,4th,-1.342030961719133,1.2783081038341009,1.2412590635819143
mem,resp,1167,0,mem3.2.3.bmp,mem1.2.3.bmp,mem3.2.3.bmp,ACC024,"[3, 0, 3]","[-3, 0, 3]","[3, 0, 3]",match,1.4226497308103743,,-0.4006510555121463,-0.5358397789036698,0.749422458370247,2nd,2nd,4th,-0.2770833061315177,-0.2966574841532553,1.2412590635819143
mem,resp,953,1,mem1.1.1.bmp,mem2.2.3.bmp,mem1.1.1.bmp,ACC024,"[-3, -3, -3]","[0, 0, 3]","[-3, -3, -3]",match,1.2928932188134525,,0.15256950478108128,-0.020681420203426053,0.542035896022062,3rd,2nd,3rd,0.4396593820171105,-0.2966574841532553,0.40041658431231786
mem,resp,1238,0,mem1.3.3.bmp,mem3.2.2.bmp,mem2.2.2.bmp,ACC024,"[-3, 3, 3]","[3, 0, 0]","[0, 0, 0]",non-match,1.2113248654051871,4,-0.3606877177184483,-0.157819186446158,0.44605253175697673,2nd,2nd,3rd,-0.2770833061315177,-0.2966574841532553,0.40041658431231786
mem,resp,870,1,mem1.1.3.bmp,mem2.3.2.bmp,mem2.1.1.bmp,ACC024,"[-3, -3, 3]","[0, 3, 0]","[0, -3, -3]",non-match,0.7090055512641944,1,0.9237348436695892,0.7755192320550585,0.17466073332374327,4th,4th,3rd,1.1794548858335405,1.2783081038341009,0.40041658431231786
mem,resp,1150,1,mem2.1.2.bmp,mem2.3.1.bmp,mem2.3.1.bmp,ACC024,"[0, -3, 0]","[0, 3, -3]","[0, 3, -3]",match,1.3545027756320973,,-0.2987403578855848,0.5463054862578854,-0.17955915899005573,2nd,3rd,2nd,-0.2770833061315177,0.29999398128577703,-0.39046149414803755
mem,resp,731,1,mem2.1.3.bmp,mem3.1.3.bmp,mem3.3.3.bmp,ACC024,"[0, -3, 3]","[3, -3, 3]","[3, 3, 3]",non-match,0.7771525064424715,2,0.20859292107090321,-1.0358323953958861,-0.11742833415823997,3rd,1st,2nd,0.4396593820171105,-1.2816446009666231,-0.39046149414803755
mem,resp,643,1,mem3.1.2.bmp,mem1.1.1.bmp,mem1.2.3.bmp,ACC024,"[3, -3, 0]","[-3, -3, -3]","[-3, 0, 3]",non-match,0.6473959944455496,1,0.634009185209938,0.9229296203785575,-0.036201561809887275,3rd,4th,2nd,0.4396593820171105,1.2783081038341009,-0.39046149414803755
mem,resp,1047,0,mem1.1.2.bmp,mem3.2.1.bmp,mem2.2.1.bmp,ACC024,"[-3, -3, 0]","[3, 0, -3]","[0, 0, -3]",non-match,1.2113248654051871,4,0.1650886007860396,0.9180853733962184,0.016917947244066294,3rd,4th,2nd,0.4396593820171105,1.2783081038341009,-0.39046149414803755
mem,resp,579,0,mem2.2.2.bmp,mem1.3.3.bmp,mem1.3.3.bmp,ACC024,"[0, 0, 0]","[-3, 3, 3]","[-3, 3, 3]",match,1.5,,0.9504501785981995,-0.2842455271122627,-0.15758957742903437,4th,2nd,2nd,1.1794548858335405,-0.2966574841532553,-0.39046149414803755
mem,resp,710,1,mem1.3.1.bmp,mem1.1.3.bmp,mem2.1.1.bmp,ACC024,"[-3, 3, -3]","[-3, -3, 3]","[0, -3, -3]",non-match,0.7090055512641944,1,0.2258996430708107,0.006332744137630836,-0.46882198044496676,3rd,3rd,2nd,0.4396593820171105,0.29999398128577703,-0.39046149414803755
mem,resp,1035,0,mem2.2.3.bmp,mem3.3.1.bmp,mem2.3.2.bmp,ACC024,"[0, 0, 3]","[3, 3, -3]","[0, 3, 0]",non-match,1.1835034190722742,4,-0.3898130162680318,0.18804176333476424,-0.345032442966638,2nd,3rd,2nd,-0.2770833061315177,0.29999398128577703,-0.39046149414803755
mem,resp,849,1,mem1.2.2.bmp,mem1.2.1.bmp,mem1.2.1.bmp,ACC024,"[-3, 0, 0]","[-3, 0, -3]","[-3, 0, -3]",match,1.7113248654051871,,0.46242540360779955,0.34489907003740705,-0.6896517734981885,3rd,3rd,2nd,0.4396593820171105,0.29999398128577703,-0.39046149414803755
mem,resp,1204,1,mem3.2.2.bmp,mem1.1.2.bmp,mem3.2.3.bmp,ACC024,"[3, 0, 0]","[-3, -3, 0]","[3, 0, 3]",non-match,1.0042180842186395,3,-0.8910001012881603,-0.2708578449164378,-0.61857343052708,1st,2nd,2nd,-1.342030961719133,-0.2966574841532553,-0.39046149414803755
mem,resp,738,1,mem1.3.2.bmp,mem2.3.3.bmp,mem3.3.2.bmp,ACC024,"[-3, 3, 0]","[0, 3, 3]","[3, 3, 0]",non-match,1.0144014403465114,3,0.7590866870381782,0.0759270034971581,-0.7539149781698214,4th,3rd,1st,1.1794548858335405,0.29999398128577703,-1.2512141537461927
mem,resp,1102,1,mem3.3.1.bmp,mem1.3.1.bmp,mem1.3.1.bmp,ACC024,"[3, 3, -3]","[-3, 3, -3]","[-3, 3, -3]",match,1.4226497308103743,,-0.12088917822723977,0.6227648189735036,-0.5670300489434766,2nd,3rd,2nd,-0.2770833061315177,0.29999398128577703,-0.39046149414803755
mem,resp,764,1,mem3.3.3.bmp,mem3.1.2.bmp,mem3.1.2.bmp,ACC024,"[3, 3, 3]","[3, -3, 0]","[3, -3, 0]",match,1.3545027756320973,,0.5176898659027568,0.17037081198772333,-1.0320225159833585,3rd,3rd,1st,0.4396593820171105,0.29999398128577703,-1.2512141537461927
mem,resp,857,1,mem3.1.1.bmp,mem2.1.2.bmp,mem1.1.3.bmp,ACC024,"[3, -3, -3]","[0, -3, 0]","[-3, -3, 3]",non-match,0.7752551286084112,2,0.056277642944317675,-1.3274372189643484,-1.1345411004293575,2nd,1st,1st,-0.2770833061315177,-1.2816446009666231,-1.2512141537461927
mem,resp,1295,1,mem2.2.1.bmp,mem2.2.2.bmp,mem2.2.1.bmp,ACC024,"[0, 0, -3]","[0, 0, 0]","[0, 0, -3]",match,1.7113248654051871,,0.2884313214950682,0.00395688124859123,-0.9497429636269056,3rd,3rd,1st,0.4396593820171105,0.29999398128577703,-1.2512141537461927
mem,resp,699,1,mem3.2.1.bmp,mem3.3.2.bmp,mem3.2.1.bmp,ACC024,"[3, 0, -3]","[3, 3, 0]","[3, 0, -3]",match,1.591751709536137,,0.13567798454180932,-0.07503687937289663,-0.6203229733308734,2nd,2nd,2nd,-0.2770833061315177,-0.2966574841532553,-0.39046149414803755
mem,resp,1296,1,mem2.3.1.bmp,mem3.2.3.bmp,mem2.1.3.bmp,ACC024,"[0, 3, -3]","[3, 0, 3]","[0, -3, 3]",non-match,0.7752551286084112,2,-0.44753704924208926,0.5897242723869127,-0.520417026336285,2nd,3rd,2nd,-0.2770833061315177,0.29999398128577703,-0.39046149414803755
mem,resp,798,1,mem1.2.3.bmp,mem2.1.1.bmp,mem2.1.1.bmp,ACC024,"[-3, 0, 3]","[0, -3, -3]","[0, -3, -3]",match,1.2928932188134525,,0.1678014289920709,-0.2527697589987787,-0.7200862514564434,3rd,2nd,2nd,0.4396593820171105,-0.2966574841532553,-0.39046149414803755
mem,resp,933,1,mem1.2.1.bmp,mem1.3.2.bmp,mem1.2.1.bmp,ACC024,"[-3, 0, -3]","[-3, 3, 0]","[-3, 0, -3]",match,1.591751709536137,,-0.1803363349333905,-0.0719035399421565,-0.9150784524923554,2nd,2nd,1st,-0.2770833061315177,-0.2966574841532553,-1.2512141537461927
mem,resp,876,0,mem2.3.3.bmp,mem1.3.1.bmp,mem2.2.3.bmp,ACC024,"[0, 3, 3]","[-3, 3, -3]","[0, 0, 3]",non-match,1.0042180842186395,3,-0.6230460886657417,-0.12088476890159142,-1.109645813769922,2nd,2nd,1st,-0.2770833061315177,-0.2966574841532553,-1.2512141537461927
mem,resp,770,1,mem3.3.2.bmp,mem2.2.1.bmp,mem3.3.3.bmp,ACC024,"[3, 3, 0]","[0, 0, -3]","[3, 3, 3]",non-match,1.0042180842186395,3,0.3830109934716568,1.6709910410606112,-1.196620624278345,3rd,4th,1st,0.4396593820171105,1.2783081038341009,-1.2512141537461927
mem,resp,741,0,mem2.1.1.bmp,mem1.1.3.bmp,mem1.2.3.bmp,ACC024,"[0, -3, -3]","[-3, -3, 3]","[-3, 0, 3]",non-match,1.0042180842186395,3,1.1014235670343921,1.1496980579592582,-1.1901653169543498,4th,4th,1st,1.1794548858335405,1.2783081038341009,-1.2512141537461927
mem,resp,954,1,mem3.1.3.bmp,mem3.1.1.bmp,mem3.1.3.bmp,ACC024,"[3, -3, 3]","[3, -3, -3]","[3, -3, 3]",match,1.4226497308103743,,0.9612767943169658,0.2955670224411132,-1.2638250910586097,4th,3rd,1st,1.1794548858335405,0.29999398128577703,-1.2512141537461927
mem,resp,1524,0,mem3.2.2.bmp,mem2.2.2.bmp,mem2.2.3.bmp,ACC024,"[3, 0, 0]","[0, 0, 0]","[0, 0, 3]",non-match,1.3030765749413242,4,-0.6545077739335967,-0.9528210287904032,-1.2079218081996423,2nd,1st,1st,-0.2770833061315177,-1.2816446009666231,-1.2512141537461927
mem,resp,728,1,mem2.2.1.bmp,mem3.2.3.bmp,mem1.2.2.bmp,ACC024,"[0, 0, -3]","[3, 0, 3]","[-3, 0, 0]",non-match,0.9462544851682343,3,0.6891378885227861,0.9141076147038925,-1.129175233960386,4th,4th,1st,1.1794548858335405,1.2783081038341009,-1.2512141537461927
mem,resp,629,1,mem2.1.3.bmp,mem2.3.1.bmp,mem2.3.1.bmp,ACC024,"[0, -3, 3]","[0, 3, -3]","[0, 3, -3]",match,1.1835034190722742,,0.6747281325838431,-0.8004500038505151,-1.6037094550728257,3rd,1st,1st,0.4396593820171105,-1.2816446009666231,-1.2512141537461927
mem,resp,1346,0,mem2.1.1.bmp,mem2.3.2.bmp,mem3.1.3.bmp,ACC024,"[0, -3, -3]","[0, 3, 0]","[3, -3, 3]",non-match,0.6473959944455496,1,0.06391873721077768,-0.4131737164000739,-1.335174815236575,2nd,2nd,1st,-0.2770833061315177,-0.2966574841532553,-1.2512141537461927
mem,resp,1112,1,mem3.2.1.bmp,mem2.1.2.bmp,mem2.1.2.bmp,ACC024,"[3, 0, -3]","[0, -3, 0]","[0, -3, 0]",match,1.5,,-1.1936249579842468,-0.3408948726625866,-1.1499615983352205,1st,2nd,1st,-1.342030961719133,-0.2966574841532553,-1.2512141537461927
mem,resp,1389,0,mem3.1.1.bmp,mem2.2.3.bmp,mem2.2.3.bmp,ACC024,"[3, -3, -3]","[0, 0, 3]","[0, 0, 3]",match,1.2928932188134525,,-0.6838965494169839,-0.1699423550666595,-0.9356137596810289,1st,2nd,1st,-1.342030961719133,-0.2966574841532553,-1.2512141537461927
mem,resp,683,1,mem3.1.2.bmp,mem1.2.2.bmp,mem3.1.2.bmp,ACC024,"[3, -3, 0]","[-3, 0, 0]","[3, -3, 0]",match,1.3545027756320973,,-0.814035068101303,0.11863778471664531,-0.8955354882989544,1st,3rd,1st,-1.342030961719133,0.29999398128577703,-1.2512141537461927
mem,resp,1086,1,mem2.3.2.bmp,mem3.2.2.bmp,mem2.3.2.bmp,ACC024,"[0, 3, 0]","[3, 0, 0]","[0, 3, 0]",match,1.591751709536137,,-0.041745826098710484,0.6068789826263021,-0.74447258869172,2nd,3rd,2nd,-0.2770833061315177,0.29999398128577703,-0.39046149414803755
mem,resp,618,0,mem1.3.3.bmp,mem3.2.1.bmp,mem2.2.1.bmp,ACC024,"[-3, 3, 3]","[3, 0, -3]","[0, 0, -3]",non-match,1.0042180842186395,3,0.5904532322590552,-0.021452339531862995,-0.7701344056738304,3rd,2nd,1st,0.4396593820171105,-0.2966574841532553,-1.2512141537461927
mem,resp,721,1,mem2.2.3.bmp,mem1.1.2.bmp,mem1.1.2.bmp,ACC024,"[0, 0, 3]","[-3, -3, 0]","[-3, -3, 0]",match,1.5,,-0.04450776442905965,1.0083973889954243,-0.7539452851000025,2nd,4th,1st,-0.2770833061315177,1.2783081038341009,-1.2512141537461927
mem,resp,762,0,mem1.1.3.bmp,mem2.3.3.bmp,mem1.2.3.bmp,ACC024,"[-3, -3, 3]","[0, 3, 3]","[-3, 0, 3]",non-match,1.3030765749413242,4,-0.4435128131371462,0.7333080109143377,-0.9977797897861247,2nd,4th,1st,-0.2770833061315177,1.2783081038341009,-1.2512141537461927
mem,resp,829,1,mem1.1.3.bmp,mem1.1.1.bmp,mem1.3.3.bmp,ACC024,"[-3, -3, 3]","[-3, -3, -3]","[-3, 3, 3]",non-match,0.6061531498826483,1,0.8399039844189037,0.26352269792139227,-0.9597594378203834,4th,3rd,1st,1.1794548858335405,0.29999398128577703,-1.2512141537461927
mem,resp,743,1,mem2.3.3.bmp,mem1.3.1.bmp,mem3.1.3.bmp,ACC024,"[0, 3, 3]","[-3, 3, -3]","[3, -3, 3]",non-match,0.3545027756320972,1,1.3808068600217478,-0.38065369002683214,-1.0580714186942541,4th,2nd,1st,1.1794548858335405,-0.2966574841532553,-1.2512141537461927
mem,resp,634,1,mem2.1.2.bmp,mem2.2.2.bmp,mem1.2.1.bmp,ACC024,"[0, -3, 0]","[0, 0, 0]","[-3, 0, -3]",non-match,1.091751709536137,4,0.4183037099941099,-1.211174361884407,-1.280615966772095,3rd,1st,1st,0.4396593820171105,-1.2816446009666231,-1.2512141537461927
mem,resp,758,1,mem2.3.2.bmp,mem2.2.1.bmp,mem1.2.3.bmp,ACC024,"[0, 3, 0]","[0, 0, -3]","[-3, 0, 3]",non-match,0.8545027756320972,2,-0.5278698694056023,-1.0082391688241268,-1.07792399155316,2nd,1st,1st,-0.2770833061315177,-1.2816446009666231,-1.2512141537461927
mem,resp,869,1,mem3.3.2.bmp,mem1.3.3.bmp,mem3.2.1.bmp,ACC024,"[3, 3, 0]","[-3, 3, 3]","[3, 0, -3]",non-match,0.7257263057516985,2,0.4086212644959019,-0.36187619187987147,-1.3387816162930997,3rd,2nd,1st,0.4396593820171105,-0.2966574841532553,-1.2512141537461927
mem,resp,912,1,mem1.2.2.bmp,mem3.3.1.bmp,mem2.1.3.bmp,ACC024,"[-3, 0, 0]","[3, 3, -3]","[0, -3, 3]",non-match,0.6339745962155614,1,-0.7439825566001095,-0.07555608660150842,-1.3495556032274632,1st,2nd,1st,-1.342030961719133,-0.2966574841532553,-1.2512141537461927
mem,resp,867,1,mem1.1.1.bmp,mem3.1.2.bmp,mem3.1.2.bmp,ACC024,"[-3, -3, -3]","[3, -3, 0]","[3, -3, 0]",match,1.3545027756320973,,-1.6198725091157176,-2.028400138068576,-1.2952723274827007,1st,1st,1st,-1.342030961719133,-1.2816446009666231,-1.2512141537461927
mem,resp,868,0,mem1.3.1.bmp,mem2.2.3.bmp,mem2.2.2.bmp,ACC024,"[-3, 3, -3]","[0, 0, 3]","[0, 0, 0]",non-match,1.2113248654051871,4,-0.006179254387442494,-0.009382975648267011,-1.5425660366470293,2nd,3rd,1st,-0.2770833061315177,0.29999398128577703,-1.2512141537461927
mem,resp,922,1,mem3.2.3.bmp,mem1.2.3.bmp,mem1.2.3.bmp,ACC024,"[3, 0, 3]","[-3, 0, 3]","[-3, 0, 3]",match,1.4226497308103743,,0.33558485232385044,-0.018418201880572915,-1.6224211927037349,3rd,3rd,1st,0.4396593820171105,0.29999398128577703,-1.2512141537461927
mem,resp,875,1,mem2.1.3.bmp,mem3.2.2.bmp,mem2.1.3.bmp,ACC024,"[0, -3, 3]","[3, 0, 0]","[0, -3, 3]",match,1.5,,0.8110217042629909,-0.34210124031766115,-1.622615203373502,4th,2nd,1st,1.1794548858335405,-0.2966574841532553,-1.2512141537461927
mem,resp,999,1,mem1.3.3.bmp,mem2.3.1.bmp,mem3.1.2.bmp,ACC024,"[-3, 3, 3]","[0, 3, -3]","[3, -3, 0]",non-match,0.42686781502901383,1,0.30431078178453036,0.17525180893663694,-1.7429669243937458,3rd,3rd,1st,0.4396593820171105,0.29999398128577703,-1.2512141537461927
mem,resp,800,1,mem2.1.1.bmp,mem1.2.1.bmp,mem2.1.1.bmp,ACC024,"[0, -3, -3]","[-3, 0, -3]","[0, -3, -3]",match,1.591751709536137,,-0.6917806357756163,-1.4077314764714606,-1.7761787246761576,1st,1st,1st,-1.342030961719133,-1.2816446009666231,-1.2512141537461927
mem,resp,1017,0,mem2.2.2.bmp,mem3.2.1.bmp,mem2.2.2.bmp,ACC024,"[0, 0, 0]","[3, 0, -3]","[0, 0, 0]",match,1.591751709536137,,-0.638840342869258,-0.7014970128983837,-2.053357479376534,2nd,1st,1st,-0.2770833061315177,-1.2816446009666231,-1.2512141537461927
mem,resp,1289,1,mem1.2.3.bmp,mem1.1.2.bmp,mem1.3.2.bmp,ACC024,"[-3, 0, 3]","[-3, -3, 0]","[-3, 3, 0]",non-match,1.0144014403465114,3,-0.7357431127027596,-1.4681246245218675,-2.0730943305878244,1st,1st,1st,-1.342030961719133,-1.2816446009666231,-1.2512141537461927
mem,resp,1388,1,mem2.2.1.bmp,mem1.2.2.bmp,mem1.2.2.bmp,ACC024,"[0, 0, -3]","[-3, 0, 0]","[-3, 0, 0]",match,1.591751709536137,,-0.6148176421990066,1.0981063296155684,-2.0607123847536686,2nd,4th,1st,-0.2770833061315177,1.2783081038341009,-1.2512141537461927
mem,resp,952,1,mem3.3.3.bmp,mem3.1.3.bmp,mem3.1.3.bmp,ACC024,"[3, 3, 3]","[3, -3, 3]","[3, -3, 3]",match,1.4226497308103743,,1.9155658732194358,0.6685195206010252,-2.1647103994884866,4th,3rd,1st,1.1794548858335405,0.29999398128577703,-1.2512141537461927
mem,resp,734,1,mem2.2.3.bmp,mem3.1.1.bmp,mem3.1.1.bmp,ACC024,"[0, 0, 3]","[3, -3, -3]","[3, -3, -3]",match,1.2928932188134525,,1.0179730186283402,0.455198550241373,-2.0229166691853977,4th,3rd,1st,1.1794548858335405,0.29999398128577703,-1.2512141537461927
mem,resp,695,1,mem3.2.1.bmp,mem3.3.2.bmp,mem1.2.3.bmp,ACC024,"[3, 0, -3]","[3, 3, 0]","[-3, 0, 3]",non-match,0.4763966378857265,1,-0.7503041578471285,-1.5697871414596885,-1.8123561952739482,1st,1st,1st,-1.342030961719133,-1.2816446009666231,-1.2512141537461927
mem,resp,756,1,mem1.2.1.bmp,mem2.1.2.bmp,mem2.3.2.bmp,ACC024,"[-3, 0, -3]","[0, -3, 0]","[0, 3, 0]",non-match,0.9226497308103743,2,0.4287424571723686,-0.5208668878860955,-1.79493262544159,3rd,2nd,1st,0.4396593820171105,-0.2966574841532553,-1.2512141537461927
mem,resp,660,1,mem1.3.2.bmp,mem2.1.1.bmp,mem2.1.1.bmp,ACC024,"[-3, 3, 0]","[0, -3, -3]","[0, -3, -3]",match,1.2928932188134525,,0.4063847866557867,1.417009178398208,-1.6286740430929432,3rd,4th,1st,0.4396593820171105,1.2783081038341009,-1.2512141537461927
mem,resp,631,1,mem3.1.2.bmp,mem3.2.3.bmp,mem3.1.2.bmp,ACC024,"[3, -3, 0]","[3, 0, 3]","[3, -3, 0]",match,1.591751709536137,,0.23140549550635867,-0.5519148491760804,-1.7222525103143032,3rd,2nd,1st,0.4396593820171105,-0.2966574841532553,-1.2512141537461927
mem,resp,844,1,mem1.1.2.bmp,mem2.1.3.bmp,mem2.1.3.bmp,ACC024,"[-3, -3, 0]","[0, -3, 3]","[0, -3, 3]",match,1.591751709536137,,-0.7430730266550786,-0.830410839289688,-1.7686140695170014,1st,1st,1st,-1.342030961719133,-1.2816446009666231,-1.2512141537461927
mem,resp,543,1,mem3.2.2.bmp,mem3.3.3.bmp,mem3.2.2.bmp,ACC024,"[3, 0, 0]","[3, 3, 3]","[3, 0, 0]",match,1.591751709536137,,0.31862736171931466,0.4984983921986884,-1.6609278680220172,3rd,3rd,1st,0.4396593820171105,0.29999398128577703,-1.2512141537461927
mem,resp,976,0,mem3.1.3.bmp,mem1.2.1.bmp,mem3.2.1.bmp,ACC024,"[3, -3, 3]","[-3, 0, -3]","[3, 0, -3]",non-match,0.7771525064424715,2,0.06753850840930847,-0.8755684279433233,-1.4905403398317425,2nd,1st,1st,-0.2770833061315177,-1.2816446009666231,-1.2512141537461927
mem,resp,1091,1,mem3.1.1.bmp,mem1.2.2.bmp,mem3.3.2.bmp,ACC024,"[3, -3, -3]","[-3, 0, 0]","[3, 3, 0]",non-match,0.7090055512641944,1,0.28031978469715646,0.3928242102683923,-1.544489867737152,3rd,3rd,1st,0.4396593820171105,0.29999398128577703,-1.2512141537461927
mem,resp,1499,1,mem3.3.1.bmp,mem1.1.2.bmp,mem2.3.2.bmp,ACC024,"[3, 3, -3]","[-3, -3, 0]","[0, 3, 0]",non-match,0.9462544851682343,3,-0.5901483857704046,0.510819223273039,-1.3454619852906504,2nd,3rd,1st,-0.2770833061315177,0.29999398128577703,-1.2512141537461927
mem,resp,791,1,mem2.3.1.bmp,mem1.3.3.bmp,mem2.1.3.bmp,ACC024,"[0, 3, -3]","[-3, 3, 3]","[0, -3, 3]",non-match,0.5380061947043713,1,0.6412930868748614,0.7066585842089566,-1.4511490206084776,3rd,4th,1st,0.4396593820171105,1.2783081038341009,-1.2512141537461927
mem,resp,1057,1,mem2.3.3.bmp,mem3.1.2.bmp,mem1.3.1.bmp,ACC024,"[0, 3, 3]","[3, -3, 0]","[-3, 3, -3]",non-match,0.4884773718476586,1,0.8312172229715513,0.7445466976563921,-1.3207768590484428,4th,4th,1st,1.1794548858335405,1.2783081038341009,-1.2512141537461927
mem,resp,1443,0,mem1.3.2.bmp,mem2.2.2.bmp,mem2.2.3.bmp,ACC024,"[-3, 3, 0]","[0, 0, 0]","[0, 0, 3]",non-match,1.2113248654051871,4,-0.6793346030497805,-0.37858979367189166,-1.5013984047515612,1st,2nd,1st,-1.342030961719133,-0.2966574841532553,-1.2512141537461927
mem,resp,1149,1,mem3.1.3.bmp,mem3.2.3.bmp,mem3.2.3.bmp,ACC024,"[3, -3, 3]","[3, 0, 3]","[3, 0, 3]",match,1.7113248654051871,,0.4986948112608805,-0.45160582051340964,-1.5689090365841085,3rd,2nd,1st,0.4396593820171105,-0.2966574841532553,-1.2512141537461927
mem,resp,1247,1,mem3.2.2.bmp,mem2.1.3.bmp,mem3.2.2.bmp,ACC024,"[3, 0, 0]","[0, -3, 3]","[3, 0, 0]",match,1.5,,-0.18526478800673848,1.5913442712218808,-1.1224052543626957,2nd,4th,1st,-0.2770833061315177,1.2783081038341009,-1.2512141537461927
mem,resp,981,1,mem3.3.3.bmp,mem1.3.1.bmp,mem3.3.3.bmp,ACC024,"[3, 3, 3]","[-3, 3, -3]","[3, 3, 3]",match,1.1835034190722742,,0.46541470742717006,0.7071967854965608,-1.3042521541597902,3rd,4th,1st,0.4396593820171105,1.2783081038341009,-1.2512141537461927
mem,resp,702,1,mem1.2.3.bmp,mem3.3.1.bmp,mem3.3.1.bmp,ACC024,"[-3, 0, 3]","[3, 3, -3]","[3, 3, -3]",match,1.1339745962155614,,1.0672739648947547,-0.004013439528741615,-1.255360152969709,4th,3rd,1st,1.1794548858335405,0.29999398128577703,-1.2512141537461927
mem,resp,1106,0,mem2.2.1.bmp,mem3.2.1.bmp,mem2.2.1.bmp,ACC024,"[0, 0, -3]","[3, 0, -3]","[0, 0, -3]",match,1.7113248654051871,,1.1355766180439792,0.7579046642183784,-0.9253580563019622,4th,4th,1st,1.1794548858335405,1.2783081038341009,-1.2512141537461927
mem,resp,557,1,mem1.3.3.bmp,mem2.3.3.bmp,mem2.1.1.bmp,ACC024,"[-3, 3, 3]","[0, 3, 3]","[0, -3, -3]",non-match,0.3174780152878355,1,1.18623070496673,0.47575061188906975,-0.8632165107632951,4th,3rd,1st,1.1794548858335405,0.29999398128577703,-1.2512141537461927
mem,resp,619,0,mem2.3.2.bmp,mem3.1.1.bmp,mem3.2.2.bmp,ACC024,"[0, 3, 0]","[3, -3, -3]","[3, 0, 0]",non-match,1.1835034190722742,4,-0.3941600240637389,0.2689548899446848,-0.5191559359289987,2nd,3rd,2nd,-0.2770833061315177,0.29999398128577703,-0.39046149414803755
mem,resp,1165,1,mem1.2.2.bmp,mem2.2.3.bmp,mem1.2.2.bmp,ACC024,"[-3, 0, 0]","[0, 0, 3]","[-3, 0, 0]",match,1.591751709536137,,-1.2939543158538673,-0.8928435135418027,-0.6486431469977559,1st,1st,2nd,-1.342030961719133,-1.2816446009666231,-0.39046149414803755
mem,resp,796,1,mem3.1.2.bmp,mem1.1.1.bmp,mem1.1.1.bmp,ACC024,"[3, -3, 0]","[-3, -3, -3]","[-3, -3, -3]",match,1.3545027756320973,,-0.04264378503907829,-0.16440354596151674,-0.7819318382323537,2nd,2nd,1st,-0.2770833061315177,-0.2966574841532553,-1.2512141537461927
mem,resp,660,1,mem2.2.2.bmp,mem1.3.2.bmp,mem1.3.2.bmp,ACC024,"[0, 0, 0]","[-3, 3, 0]","[-3, 3, 0]",match,1.591751709536137,,0.9610005428738974,0.26023084789806,-0.9202028784634873,4th,3rd,1st,1.1794548858335405,0.29999398128577703,-1.2512141537461927
mem,resp,765,1,mem2.1.3.bmp,mem3.1.1.bmp,mem3.1.1.bmp,ACC024,"[0, -3, 3]","[3, -3, -3]","[3, -3, -3]",match,1.3545027756320973,,0.7116453324742188,0.1420359618800927,-1.0726644628925397,4th,3rd,1st,1.1794548858335405,0.29999398128577703,-1.2512141537461927
mem,resp,504,1,mem3.1.2.bmp,mem2.1.1.bmp,mem2.1.1.bmp,ACC024,"[3, -3, 0]","[0, -3, -3]","[0, -3, -3]",match,1.591751709536137,,0.5390120570408349,-0.2501578854025194,-1.058587368018872,3rd,2nd,1st,0.4396593820171105,-0.2966574841532553,-1.2512141537461927
mem,resp,747,1,mem3.2.1.bmp,mem1.2.2.bmp,mem1.1.2.bmp,ACC024,"[3, 0, -3]","[-3, 0, 0]","[-3, -3, 0]",non-match,1.0042180842186395,3,0.9011589185778179,0.10327636671882526,-0.9764778856430308,4th,3rd,1st,1.1794548858335405,0.29999398128577703,-1.2512141537461927
mem,resp,910,1,mem2.1.2.bmp,mem1.3.3.bmp,mem2.1.2.bmp,ACC024,"[0, -3, 0]","[-3, 3, 3]","[0, -3, 0]",match,1.2928932188134525,,0.4250252283239025,1.3662053497451492,-0.6589301842751628,3rd,4th,2nd,0.4396593820171105,1.2783081038341009,-0.39046149414803755
mem,resp,550,0,mem3.2.2.bmp,mem3.1.3.bmp,mem3.1.1.bmp,ACC024,"[3, 0, 0]","[3, -3, 3]","[3, -3, -3]",non-match,1.0144014403465114,3,1.5473137018747325,0.11121146140824206,-0.8842005207697164,4th,3rd,1st,1.1794548858335405,0.29999398128577703,-1.2512141537461927
mem,resp,751,0,mem1.3.2.bmp,mem1.2.3.bmp,mem1.2.3.bmp,ACC024,"[-3, 3, 0]","[-3, 0, 3]","[-3, 0, 3]",match,1.591751709536137,,1.7543416347542173,1.5057322783748435,-0.8407906410279797,4th,4th,1st,1.1794548858335405,1.2783081038341009,-1.2512141537461927
mem,resp,732,0,mem2.1.1.bmp,mem3.3.2.bmp,mem3.3.2.bmp,ACC024,"[0, -3, -3]","[3, 3, 0]","[3, 3, 0]",match,1.2928932188134525,,1.2109297112374466,1.2717685755873191,-0.8296813294017202,4th,4th,1st,1.1794548858335405,1.2783081038341009,-1.2512141537461927
mem,resp,735,0,mem2.3.2.bmp,mem3.2.3.bmp,mem3.1.2.bmp,ACC024,"[0, 3, 0]","[3, 0, 3]","[3, -3, 0]",non-match,0.9462544851682343,3,-0.5852899397099519,0.9135747469915928,-1.018847199336208,2nd,4th,1st,-0.2770833061315177,1.2783081038341009,-1.2512141537461927
mem,resp,1050,1,mem1.1.2.bmp,mem1.1.3.bmp,mem1.1.3.bmp,ACC024,"[-3, -3, 0]","[-3, -3, 3]","[-3, -3, 3]",match,1.7113248654051871,,0.46797234565026374,1.6426780831026357,-1.0550240412998215,3rd,4th,1st,0.4396593820171105,1.2783081038341009,-1.2512141537461927
mem,resp,834,0,mem2.3.3.bmp,mem2.1.3.bmp,mem2.3.3.bmp,ACC024,"[0, 3, 3]","[0, -3, 3]","[0, 3, 3]",match,1.4226497308103743,,-1.3764723144464535,-1.297001296455605,-0.9087348172169705,1st,1st,1st,-1.342030961719133,-1.2816446009666231,-1.2512141537461927
mem,resp,706,1,mem3.3.2.bmp,mem1.3.2.bmp,mem1.2.1.bmp,ACC024,"[3, 3, 0]","[-3, 3, 0]","[-3, 0, -3]",non-match,0.8846449283495895,2,0.6269874820937149,1.6213306656437294,-0.7038289691418527,3rd,4th,2nd,0.4396593820171105,1.2783081038341009,-0.39046149414803755
mem,resp,1715,0,mem2.2.2.bmp,mem2.2.3.bmp,mem2.2.3.bmp,ACC024,"[0, 0, 0]","[0, 0, 3]","[0, 0, 3]",match,1.7113248654051871,,-0.3723484178628461,0.9494012430990458,-0.5254434487651998,2nd,4th,2nd,-0.2770833061315177,1.2783081038341009,-0.39046149414803755
mem,resp,916,1,mem1.2.2.bmp,mem3.2.1.bmp,mem1.2.2.bmp,ACC024,"[-3, 0, 0]","[3, 0, -3]","[-3, 0, 0]",match,1.3545027756320973,,-1.2928165622765084,-1.3244801485450577,-0.7105682779159115,1st,1st,2nd,-1.342030961719133,-1.2816446009666231,-0.39046149414803755
mem,resp,728,1,mem3.3.1.bmp,mem1.3.1.bmp,mem1.3.1.bmp,ACC024,"[3, 3, -3]","[-3, 3, -3]","[-3, 3, -3]",match,1.4226497308103743,,0.7529249962363839,0.3330196467437331,-0.8349285890149084,4th,3rd,1st,1.1794548858335405,0.29999398128577703,-1.2512141537461927
mem,resp,689,1,mem3.2.3.bmp,mem3.1.2.bmp,mem3.2.3.bmp,ACC024,"[3, 0, 3]","[3, -3, 0]","[3, 0, 3]",match,1.591751709536137,,0.28813385018581966,-0.7225909630757956,-0.6546192987726657,3rd,1st,2nd,0.4396593820171105,-1.2816446009666231,-0.39046149414803755
mem,resp,550,1,mem3.1.1.bmp,mem3.3.3.bmp,mem3.1.1.bmp,ACC024,"[3, -3, -3]","[3, 3, 3]","[3, -3, -3]",match,1.1835034190722742,,0.9836917218150156,1.4567438790220786,-0.5619181400157278,4th,4th,2nd,1.1794548858335405,1.2783081038341009,-0.39046149414803755
mem,resp,812,1,mem1.2.1.bmp,mem1.1.1.bmp,mem1.2.3.bmp,ACC024,"[-3, 0, -3]","[-3, -3, -3]","[-3, 0, 3]",non-match,0.7771525064424715,2,0.880258174084531,0.3284960673705112,-0.28068973751706605,4th,3rd,2nd,1.1794548858335405,0.29999398128577703,-0.39046149414803755
mem,resp,1119,1,mem2.3.1.bmp,mem1.1.2.bmp,mem1.1.2.bmp,ACC024,"[0, 3, -3]","[-3, -3, 0]","[-3, -3, 0]",match,1.2928932188134525,,0.050572637372714765,0.19779482485456287,-0.09969887362097973,2nd,3rd,2nd,-0.2770833061315177,0.29999398128577703,-0.39046149414803755
mem,resp,829,1,mem3.1.3.bmp,mem3.3.1.bmp,mem3.1.3.bmp,ACC024,"[3, -3, 3]","[3, 3, -3]","[3, -3, 3]",match,1.1835034190722742,,1.0465015566454634,-0.664880373376059,-0.537942649033072,4th,1st,2nd,1.1794548858335405,-1.2816446009666231,-0.39046149414803755
mem,resp,723,1,mem2.2.1.bmp,mem2.3.3.bmp,mem1.3.1.bmp,ACC024,"[0, 0, -3]","[0, 3, 3]","[-3, 3, -3]",non-match,0.9462544851682343,3,0.5032012125827525,-0.7301792971355848,-0.3001252029181909,3rd,1st,2nd,0.4396593820171105,-1.2816446009666231,-0.39046149414803755
mem,resp,1217,1,mem3.3.3.bmp,mem2.2.2.bmp,mem3.3.3.bmp,ACC024,"[3, 3, 3]","[0, 0, 0]","[3, 3, 3]",match,1.5,,1.1165473735145923,1.9809334289076224,-0.1044757516267314,4th,4th,2nd,1.1794548858335405,1.2783081038341009,-0.39046149414803755
mem,resp,652,0,mem1.1.1.bmp,mem1.2.1.bmp,mem3.2.3.bmp,ACC024,"[-3, -3, -3]","[-3, 0, -3]","[3, 0, 3]",non-match,0.3174780152878355,1,-0.11731200318910605,2.365985346736455,0.03956002558118549,2nd,4th,2nd,-0.2770833061315177,1.2783081038341009,-0.39046149414803755
mem,resp,740,1,mem1.2.3.bmp,mem3.3.1.bmp,mem3.3.1.bmp,ACC024,"[-3, 0, 3]","[3, 3, -3]","[3, 3, -3]",match,1.1339745962155614,,0.7792178908290344,-0.5137942336840059,0.03303649575748101,4th,2nd,2nd,1.1794548858335405,-0.2966574841532553,-0.39046149414803755
mem,resp,1033,1,mem1.1.3.bmp,mem3.3.2.bmp,mem1.1.3.bmp,ACC024,"[-3, -3, 3]","[3, 3, 0]","[-3, -3, 3]",match,1.1339745962155614,,1.4282788545242846,-0.13371144605417407,0.26174857698772075,4th,2nd,3rd,1.1794548858335405,-0.2966574841532553,0.40041658431231786
mem,resp,847,1,mem1.3.1.bmp,mem1.2.2.bmp,mem1.2.2.bmp,ACC024,"[-3, 3, -3]","[-3, 0, 0]","[-3, 0, 0]",match,1.591751709536137,,0.5502599709688707,0.8965540564377861,0.6224566614752035,3rd,4th,3rd,0.4396593820171105,1.2783081038341009,0.40041658431231786
mem,resp,978,1,mem2.2.3.bmp,mem2.1.1.bmp,mem2.2.3.bmp,ACC024,"[0, 0, 3]","[0, -3, -3]","[0, 0, 3]",match,1.3545027756320973,,-0.757693790120098,0.8112222939911815,0.59228708200223,1st,4th,3rd,-1.342030961719133,1.2783081038341009,0.40041658431231786
mem,resp,1716,0,mem1.3.3.bmp,mem2.3.1.bmp,mem1.3.2.bmp,ACC024,"[-3, 3, 3]","[0, 3, -3]","[-3, 3, 0]",non-match,1.3030765749413242,4,-0.14958422072869587,-0.8761540404353211,0.5790919237327308,2nd,1st,3rd,-0.2770833061315177,-1.2816446009666231,0.40041658431231786
mem,resp,739,1,mem1.3.3.bmp,mem1.1.1.bmp,mem1.1.1.bmp,ACC024,"[-3, 3, 3]","[-3, -3, -3]","[-3, -3, -3]",match,1.1835034190722742,,0.7954502281732914,-0.9110487289229945,0.8397169047622277,4th,1st,4th,1.1794548858335405,-1.2816446009666231,1.2412590635819143
mem,resp,1034,1,mem2.3.2.bmp,mem3.2.1.bmp,mem2.3.3.bmp,ACC024,"[0, 3, 0]","[3, 0, -3]","[0, 3, 3]",non-match,1.0042180842186395,3,-0.12479398645206007,-0.1211316372442521,0.6995591494705412,2nd,2nd,4th,-0.2770833061315177,-0.2966574841532553,1.2412590635819143
mem,resp,1604,1,mem1.3.1.bmp,mem3.1.1.bmp,mem1.1.3.bmp,ACC024,"[-3, 3, -3]","[3, -3, -3]","[-3, -3, 3]",non-match,0.36700683814454815,1,-0.5830086309220628,-0.6760859501976314,0.526927890214421,2nd,1st,3rd,-0.2770833061315177,-1.2816446009666231,0.40041658431231786
mem,resp,968,1,mem2.2.1.bmp,mem2.1.2.bmp,mem3.3.1.bmp,ACC024,"[0, 0, -3]","[0, -3, 0]","[3, 3, -3]",non-match,0.8846449283495895,2,0.6880109732963468,0.3884893741518611,0.5937513704157588,3rd,3rd,3rd,0.4396593820171105,0.29999398128577703,0.40041658431231786
mem,resp,1153,1,mem3.2.2.bmp,mem1.1.2.bmp,mem2.3.1.bmp,ACC024,"[3, 0, 0]","[-3, -3, 0]","[0, 3, -3]",non-match,0.7928932188134524,2,1.1763574443841254,1.0045173762341875,0.6361471240128584,4th,4th,3rd,1.1794548858335405,1.2783081038341009,0.40041658431231786
mem,resp,807,1,mem3.3.2.bmp,mem1.2.3.bmp,mem1.2.3.bmp,ACC024,"[3, 3, 0]","[-3, 0, 3]","[-3, 0, 3]",match,1.2928932188134525,,0.43643195629987414,-1.1887803442227607,0.4559099924164973,3rd,1st,3rd,0.4396593820171105,-1.2816446009666231,0.40041658431231786
mem,resp,1494,0,mem2.2.2.bmp,mem3.3.3.bmp,mem2.2.2.bmp,ACC024,"[0, 0, 0]","[3, 3, 3]","[0, 0, 0]",match,1.5,,-1.0411999253332702,-0.41903610481105646,0.46640346755650364,1st,2nd,3rd,-1.342030961719133,-0.2966574841532553,0.40041658431231786
mem,resp,939,1,mem1.2.1.bmp,mem2.1.3.bmp,mem1.1.1.bmp,ACC024,"[-3, 0, -3]","[0, -3, 3]","[-3, -3, -3]",non-match,1.0658276410372842,3,0.25721338139194183,0.09844935181077953,0.31045317745919654,3rd,3rd,3rd,0.4396593820171105,0.29999398128577703,0.40041658431231786
mem,resp,831,1,mem3.2.3.bmp,mem3.1.2.bmp,mem1.3.1.bmp,ACC024,"[3, 0, 3]","[3, -3, 0]","[-3, 3, -3]",non-match,0.2679491924311228,1,0.5878581870080886,0.5733266032953216,0.20710074840820267,3rd,3rd,3rd,0.4396593820171105,0.29999398128577703,0.40041658431231786
mem,resp,857,1,mem1.2.2.bmp,mem2.2.3.bmp,mem2.2.1.bmp,ACC024,"[-3, 0, 0]","[0, 0, 3]","[0, 0, -3]",non-match,1.0144014403465114,3,0.5016278761668856,-1.0196735719283399,0.3037354209117742,3rd,1st,3rd,0.4396593820171105,-1.2816446009666231,0.40041658431231786
mem,resp,1919,0,mem2.3.1.bmp,mem3.1.1.bmp,mem2.2.1.bmp,ACC024,"[0, 3, -3]","[3, -3, -3]","[0, 0, -3]",non-match,1.3030765749413242,4,0.432690869218883,0.22833770030488776,0.2513023304518654,3rd,3rd,3rd,0.4396593820171105,0.29999398128577703,0.40041658431231786
mem,resp,794,1,mem1.2.1.bmp,mem3.1.2.bmp,mem3.1.2.bmp,ACC024,"[-3, 0, -3]","[3, -3, 0]","[3, -3, 0]",match,1.2928932188134525,,0.45615364007923354,-0.4654967857460177,0.49416695518815307,3rd,2nd,3rd,0.4396593820171105,-0.2966574841532553,0.40041658431231786
mem,resp,1593,0,mem1.2.3.bmp,mem3.3.3.bmp,mem3.2.1.bmp,ACC024,"[-3, 0, 3]","[3, 3, 3]","[3, 0, -3]",non-match,0.5380061947043713,1,-0.8847112372148968,0.3428883529658268,0.6077077815703639,1st,3rd,3rd,-1.342030961719133,0.29999398128577703,0.40041658431231786
mem,resp,823,1,mem1.1.2.bmp,mem1.2.2.bmp,mem1.1.2.bmp,ACC024,"[-3, -3, 0]","[-3, 0, 0]","[-3, -3, 0]",match,1.7113248654051871,,0.25801189479816067,-0.37215859714257227,0.6011999673444539,3rd,2nd,3rd,0.4396593820171105,-0.2966574841532553,0.40041658431231786
mem,resp,814,1,mem3.2.2.bmp,mem1.3.2.bmp,mem1.3.2.bmp,ACC024,"[3, 0, 0]","[-3, 3, 0]","[-3, 3, 0]",match,1.3545027756320973,,-0.4601616435544239,-0.34559505868746937,0.7651772917140212,2nd,2nd,4th,-0.2770833061315177,-0.2966574841532553,1.2412590635819143
mem,resp,878,1,mem2.1.2.bmp,mem1.1.3.bmp,mem3.1.1.bmp,ACC024,"[0, -3, 0]","[-3, -3, 3]","[3, -3, -3]",non-match,0.7752551286084112,2,0.41836583653216525,-0.48637498293797365,0.7879450634186286,3rd,2nd,4th,0.4396593820171105,-0.2966574841532553,1.2412590635819143
mem,resp,902,1,mem2.2.3.bmp,mem2.3.3.bmp,mem3.1.3.bmp,ACC024,"[0, 0, 3]","[0, 3, 3]","[3, -3, 3]",non-match,0.9462544851682343,3,0.5825182063432833,0.5024614019225702,0.7758362320531518,3rd,3rd,4th,0.4396593820171105,0.29999398128577703,1.2412590635819143
mem,resp,724,1,mem3.2.1.bmp,mem3.3.1.bmp,mem3.3.3.bmp,ACC024,"[3, 0, -3]","[3, 3, -3]","[3, 3, 3]",non-match,0.7771525064424715,2,0.07551686732047967,0.16871805673421308,0.4830712851963856,2nd,3rd,3rd,-0.2770833061315177,0.29999398128577703,0.40041658431231786
mem,resp,957,1,mem2.1.1.bmp,mem1.2.1.bmp,mem2.2.2.bmp,ACC024,"[0, -3, -3]","[-3, 0, -3]","[0, 0, 0]",non-match,1.1835034190722742,4,-0.11972659642849354,0.6186450130205197,0.12657845924078154,2nd,3rd,3rd,-0.2770833061315177,0.29999398128577703,0.40041658431231786
mem,resp,933,0,mem2.3.2.bmp,mem1.3.3.bmp,mem1.3.3.bmp,ACC024,"[0, 3, 0]","[-3, 3, 3]","[-3, 3, 3]",match,1.591751709536137,,1.1359782471833402,1.3177472057412694,0.1800138654748032,4th,4th,3rd,1.1794548858335405,1.2783081038341009,0.40041658431231786
mem,resp,707,1,mem1.3.2.bmp,mem3.1.3.bmp,mem3.1.3.bmp,ACC024,"[-3, 3, 0]","[3, -3, 3]","[3, -3, 3]",match,1.1339745962155614,,1.4090613006597779,1.3923001934673482,0.08347525886175672,4th,4th,3rd,1.1794548858335405,1.2783081038341009,0.40041658431231786
mem,resp,1090,1,mem3.1.2.bmp,mem2.1.3.bmp,mem3.2.2.bmp,ACC024,"[3, -3, 0]","[0, -3, 3]","[3, 0, 0]",non-match,1.2113248654051871,4,0.3205123182981134,0.6634591549703822,0.3597455552683951,3rd,3rd,3rd,0.4396593820171105,0.29999398128577703,0.40041658431231786
mem,resp,1458,1,mem1.1.1.bmp,mem2.1.2.bmp,mem1.1.1.bmp,ACC024,"[-3, -3, -3]","[0, -3, 0]","[-3, -3, -3]",match,1.591751709536137,,2.020832242750054,2.345570815137679,0.49522613377485186,4th,4th,3rd,1.1794548858335405,1.2783081038341009,0.40041658431231786
mem,resp,1164,1,mem3.3.1.bmp,mem2.3.1.bmp,mem2.3.1.bmp,ACC024,"[3, 3, -3]","[0, 3, -3]","[0, 3, -3]",match,1.7113248654051871,,0.5399475438514274,0.18461696850454606,0.6835250751070306,3rd,3rd,4th,0.4396593820171105,0.29999398128577703,1.2412590635819143
mem,resp,844,1,mem3.1.3.bmp,mem1.2.3.bmp,mem3.1.3.bmp,ACC024,"[3, -3, 3]","[-3, 0, 3]","[3, -3, 3]",match,1.3545027756320973,,0.5602868086081091,-0.11653333339253098,0.8701134184518048,3rd,2nd,4th,0.4396593820171105,-0.2966574841532553,1.2412590635819143
mem,resp,1512,0,mem3.3.3.bmp,mem3.3.2.bmp,mem2.3.3.bmp,ACC024,"[3, 3, 3]","[3, 3, 0]","[0, 3, 3]",non-match,1.3030765749413242,4,-0.7767151319246113,0.4653451330156138,0.8601387037620729,1st,3rd,4th,-1.342030961719133,0.29999398128577703,1.2412590635819143
mem,resp,1216,1,mem2.1.3.bmp,mem2.2.1.bmp,mem1.3.3.bmp,ACC024,"[0, -3, 3]","[0, 0, -3]","[-3, 3, 3]",non-match,0.6473959944455496,1,0.23536434370858336,0.030714911520502184,0.8785036648970662,3rd,3rd,4th,0.4396593820171105,0.29999398128577703,1.2412590635819143
mem,resp,879,0,mem3.2.3.bmp,mem1.1.2.bmp,mem3.1.2.bmp,ACC024,"[3, 0, 3]","[-3, -3, 0]","[3, -3, 0]",non-match,1.0144014403465114,3,1.3955507354510348,1.016243404813622,0.8742059457386078,4th,4th,4th,1.1794548858335405,1.2783081038341009,1.2412590635819143
mem,resp,1233,1,mem3.1.1.bmp,mem2.1.1.bmp,mem2.1.1.bmp,ACC024,"[3, -3, -3]","[0, -3, -3]","[0, -3, -3]",match,1.7113248654051871,,-0.19982228622188547,-0.4568545246204744,0.9028093417330586,2nd,2nd,4th,-0.2770833061315177,-0.2966574841532553,1.2412590635819143
mem,resp,905,0,mem1.3.1.bmp,mem3.3.2.bmp,mem3.1.3.bmp,ACC024,"[-3, 3, -3]","[3, 3, 0]","[3, -3, 3]",non-match,0.3545027756320972,1,0.3116465502329359,1.3832859613847737,0.8372851952859074,3rd,4th,4th,0.4396593820171105,1.2783081038341009,1.2412590635819143
mem,resp,1432,1,mem2.2.1.bmp,mem2.3.1.bmp,mem3.2.1.bmp,ACC024,"[0, 0, -3]","[0, 3, -3]","[3, 0, -3]",non-match,1.3030765749413242,4,-0.12221677280762777,-0.016709675389377336,0.6880816722406541,2nd,3rd,4th,-0.2770833061315177,0.29999398128577703,1.2412590635819143
mem,resp,803,1,mem2.2.2.bmp,mem2.3.3.bmp,mem3.3.1.bmp,ACC024,"[0, 0, 0]","[0, 3, 3]","[3, 3, -3]",non-match,0.8545027756320972,2,2.4986881368122873,2.1375717188712984,0.8890574862829645,4th,4th,4th,1.1794548858335405,1.2783081038341009,1.2412590635819143
mem,resp,1039,1,mem1.2.2.bmp,mem3.2.2.bmp,mem2.3.2.bmp,ACC024,"[-3, 0, 0]","[3, 0, 0]","[0, 3, 0]",non-match,1.1835034190722742,4,0.9440767029481567,0.7687571837811231,0.9407922610277949,4th,4th,4th,1.1794548858335405,1.2783081038341009,1.2412590635819143
mem,resp,1055,1,mem1.3.3.bmp,mem2.1.3.bmp,mem1.1.2.bmp,ACC024,"[-3, 3, 3]","[0, -3, 3]","[-3, -3, 0]",non-match,0.9462544851682343,3,1.2383691019302017,1.9833502460356067,0.9801166046149689,4th,4th,4th,1.1794548858335405,1.2783081038341009,1.2412590635819143
mem,resp,677,1,mem3.3.2.bmp,mem3.1.2.bmp,mem1.1.1.bmp,ACC024,"[3, 3, 0]","[3, -3, 0]","[-3, -3, -3]",non-match,0.4884773718476586,1,1.2908624984275059,0.7601950538419534,0.7636311188569318,4th,4th,4th,1.1794548858335405,1.2783081038341009,1.2412590635819143
mem,resp,1048,1,mem1.1.3.bmp,mem2.2.3.bmp,mem1.1.3.bmp,ACC024,"[-3, -3, 3]","[0, 0, 3]","[-3, -3, 3]",match,1.591751709536137,,-0.36746283174977556,-0.3742182620130237,0.49457294557338094,2nd,2nd,3rd,-0.2770833061315177,-0.2966574841532553,0.40041658431231786
mem,resp,841,1,mem2.3.3.bmp,mem1.3.2.bmp,mem3.2.2.bmp,ACC024,"[0, 3, 3]","[-3, 3, 0]","[3, 0, 0]",non-match,0.8545027756320972,2,-0.6042964991024536,-0.0426361169137637,0.7036235219963509,2nd,2nd,4th,-0.2770833061315177,-0.2966574841532553,1.2412590635819143
mem,resp,772,1,mem3.2.1.bmp,mem1.2.3.bmp,mem3.2.1.bmp,ACC024,"[3, 0, -3]","[-3, 0, 3]","[3, 0, -3]",match,1.1835034190722742,,1.8667981825193174,-0.1556265899496907,0.8625119975147815,4th,2nd,4th,1.1794548858335405,-0.2966574841532553,1.2412590635819143
mem,resp,956,0,mem2.1.1.bmp,mem2.3.2.bmp,mem2.1.2.bmp,ACC024,"[0, -3, -3]","[0, 3, 0]","[0, -3, 0]",non-match,1.1339745962155614,4,0.6354548810922585,0.6399693273904796,0.8807502234555497,3rd,3rd,4th,0.4396593820171105,0.29999398128577703,1.2412590635819143
mem,resp,706,1,mem3.3.3.bmp,mem1.1.3.bmp,mem3.3.3.bmp,ACC024,"[3, 3, 3]","[-3, -3, 3]","[3, 3, 3]",match,1.1835034190722742,,0.30254009467873794,-0.5784846906382234,0.7429828875602558,3rd,2nd,4th,0.4396593820171105,-0.2966574841532553,1.2412590635819143
mem,resp,680,0,mem1.3.3.bmp,mem3.3.1.bmp,mem3.2.2.bmp,ACC024,"[-3, 3, 3]","[3, 3, -3]","[3, 0, 0]",non-match,0.8846449283495895,2,0.8482764956063851,1.6023572334376592,0.7659199620187889,4th,4th,4th,1.1794548858335405,1.2783081038341009,1.2412590635819143
mem,resp,629,1,mem3.1.1.bmp,mem2.2.2.bmp,mem1.2.1.bmp,ACC024,"[3, -3, -3]","[0, 0, 0]","[-3, 0, -3]",non-match,0.9462544851682343,3,1.216264469789574,0.03856577109586421,0.7227057606183864,4th,3rd,4th,1.1794548858335405,0.29999398128577703,1.2412590635819143
mem,resp,798,1,mem1.3.1.bmp,mem1.2.2.bmp,mem1.2.2.bmp,ACC024,"[-3, 3, -3]","[-3, 0, 0]","[-3, 0, 0]",match,1.591751709536137,,1.2047427606828887,0.6312349175265535,1.3570026527367587,4th,3rd,4th,1.1794548858335405,0.29999398128577703,1.2412590635819143
mem,resp,630,1,mem2.3.2.bmp,mem3.3.3.bmp,mem2.3.2.bmp,ACC024,"[0, 3, 0]","[3, 3, 3]","[0, 3, 0]",match,1.591751709536137,,1.3621396979363332,0.047132608731603916,1.148630300774601,4th,3rd,4th,1.1794548858335405,0.29999398128577703,1.2412590635819143
mem,resp,621,1,mem3.3.1.bmp,mem3.1.3.bmp,mem3.1.3.bmp,ACC024,"[3, 3, -3]","[3, -3, 3]","[3, -3, 3]",match,1.1835034190722742,,0.043377272317510054,-0.6898099673800308,0.9524301472512537,2nd,1st,4th,-0.2770833061315177,-1.2816446009666231,1.2412590635819143
mem,resp,569,1,mem2.2.2.bmp,mem2.1.2.bmp,mem2.1.2.bmp,ACC024,"[0, 0, 0]","[0, -3, 0]","[0, -3, 0]",match,1.7113248654051871,,-0.09030945629269709,1.2215640666409138,0.6025713039057425,2nd,4th,3rd,-0.2770833061315177,1.2783081038341009,0.40041658431231786
mem,resp,774,1,mem1.1.3.bmp,mem1.1.1.bmp,mem1.1.3.bmp,ACC024,"[-3, -3, 3]","[-3, -3, -3]","[-3, -3, 3]",match,1.4226497308103743,,0.8229586566835724,1.3642466214267273,0.728929843147743,4th,4th,4th,1.1794548858335405,1.2783081038341009,1.2412590635819143
mem,resp,1190,1,mem2.2.1.bmp,mem2.1.1.bmp,mem2.2.1.bmp,ACC024,"[0, 0, -3]","[0, -3, -3]","[0, 0, -3]",match,1.7113248654051871,,-0.41179862110205756,-0.4767838811468382,0.39201907119336965,2nd,2nd,3rd,-0.2770833061315177,-0.2966574841532553,0.40041658431231786
