mode,type,rt,acc,item_1,item_2,item_cue,subj_idx,item_1_number,item_2_number,item_cue_number,trial_type,summed_similarity,similarity_bin,ams,pams,slps,ams_quantile,pams_quantile,slps_quantile,ams_bin,pam_bin,slp_bin
mem,resp,1137,1,mem3.2.1.bmp,mem3.1.2.bmp,mem1.2.2.bmp,ACC035,"[3, 0, -3]","[3, -3, 0]","[-3, 0, 0]",non-match,0.7090055512641944,2,1.3102049848742283,0.3034435250298377,2.3002049520749788,4th,3rd,4th,1.2403423244996363,0.2657245154578964,1.2241972076385128
mem,resp,543,1,mem2.3.2.bmp,mem3.3.3.bmp,mem3.3.3.bmp,ACC035,"[0, 3, 0]","[3, 3, 3]","[3, 3, 3]",match,1.591751709536137,,0.7031440310045239,-0.5566812957796461,2.1686072566302697,4th,2nd,4th,1.2403423244996363,-0.37106227207152487,1.2241972076385128
mem,resp,940,0,mem3.2.2.bmp,mem1.3.2.bmp,mem2.2.1.bmp,ACC035,"[3, 0, 0]","[-3, 3, 0]","[0, 0, -3]",non-match,1.091751709536137,4,-1.1289138833730026,2.192930312000335,2.162653865938219,1st,4th,4th,-1.3177718503139921,1.2896877124163972,1.2241972076385128
mem,resp,685,1,mem1.1.2.bmp,mem2.3.3.bmp,mem2.3.3.bmp,ACC035,"[-3, -3, 0]","[0, 3, 3]","[0, 3, 3]",match,1.2928932188134525,,0.4179453945512604,0.43577782044421276,2.163056011704127,3rd,3rd,4th,0.3691593676212837,0.2657245154578964,1.2241972076385128
mem,resp,821,1,mem1.1.3.bmp,mem1.2.2.bmp,mem1.1.3.bmp,ACC035,"[-3, -3, 3]","[-3, 0, 0]","[-3, -3, 3]",match,1.591751709536137,,-0.08012290988288824,0.07998900472754053,2.1271751678060635,2nd,3rd,4th,-0.28699702940152666,0.2657245154578964,1.2241972076385128
mem,resp,918,1,mem1.2.1.bmp,mem1.2.3.bmp,mem1.2.3.bmp,ACC035,"[-3, 0, -3]","[-3, 0, 3]","[-3, 0, 3]",match,1.4226497308103743,,-1.0129389480951227,0.8119296834200224,2.247885668242498,1st,4th,4th,-1.3177718503139921,1.2896877124163972,1.2241972076385128
mem,resp,660,1,mem3.3.2.bmp,mem3.1.3.bmp,mem3.1.3.bmp,ACC035,"[3, 3, 0]","[3, -3, 3]","[3, -3, 3]",match,1.3545027756320973,,0.34536444739852634,2.1878770122057465,2.2962413094055707,3rd,4th,4th,0.3691593676212837,1.2896877124163972,1.2241972076385128
mem,resp,702,1,mem2.1.2.bmp,mem2.2.2.bmp,mem2.1.2.bmp,ACC035,"[0, -3, 0]","[0, 0, 0]","[0, -3, 0]",match,1.7113248654051871,,-0.630915110582894,1.3127777073796694,2.1559659897200807,2nd,4th,4th,-0.28699702940152666,1.2896877124163972,1.2241972076385128
mem,resp,947,1,mem2.3.1.bmp,mem3.1.1.bmp,mem2.3.1.bmp,ACC035,"[0, 3, -3]","[3, -3, -3]","[0, 3, -3]",match,1.3545027756320973,,-1.948624835094976,-0.6416493946239196,2.1945150754430394,1st,2nd,4th,-1.3177718503139921,-0.37106227207152487,1.2241972076385128
mem,resp,628,1,mem1.3.1.bmp,mem3.2.2.bmp,mem1.3.1.bmp,ACC035,"[-3, 3, -3]","[3, 0, 0]","[-3, 3, -3]",match,1.2928932188134525,,0.4577445857543888,1.1950524958231417,2.3054339018700385,3rd,4th,4th,0.3691593676212837,1.2896877124163972,1.2241972076385128
mem,resp,583,1,mem2.1.3.bmp,mem3.2.3.bmp,mem1.3.3.bmp,ACC035,"[0, -3, 3]","[3, 0, 3]","[-3, 3, 3]",non-match,0.7090055512641944,2,1.8228927434064348,1.780629076533772,2.3969001346964927,4th,4th,4th,1.2403423244996363,1.2896877124163972,1.2241972076385128
mem,resp,959,1,mem3.1.3.bmp,mem1.1.1.bmp,mem1.2.1.bmp,ACC035,"[3, -3, 3]","[-3, -3, -3]","[-3, 0, -3]",non-match,0.8452994616207485,2,-0.4082659179387735,0.04930195582495024,2.363739270641043,2nd,3rd,4th,-0.28699702940152666,0.2657245154578964,1.2241972076385128
mem,resp,642,1,mem3.1.1.bmp,mem2.1.1.bmp,mem2.1.1.bmp,ACC035,"[3, -3, -3]","[0, -3, -3]","[0, -3, -3]",match,1.7113248654051871,,0.8242194538148053,1.5628064211965773,2.194707267780003,4th,4th,4th,1.2403423244996363,1.2896877124163972,1.2241972076385128
mem,resp,904,1,mem3.1.2.bmp,mem1.3.3.bmp,mem2.1.2.bmp,ACC035,"[3, -3, 0]","[-3, 3, 3]","[0, -3, 0]",non-match,1.0042180842186395,3,-1.8816893368169318,-0.8326456629023492,1.9998661623183709,1st,1st,4th,-1.3177718503139921,-1.180943231245616,1.2241972076385128
mem,resp,737,1,mem1.3.2.bmp,mem3.2.2.bmp,mem1.1.1.bmp,ACC035,"[-3, 3, 0]","[3, 0, 0]","[-3, -3, -3]",non-match,0.6473959944455496,1,0.48354124595572695,1.173295700285788,1.887010166860807,3rd,4th,4th,0.3691593676212837,1.2896877124163972,1.2241972076385128
mem,resp,823,1,mem3.3.1.bmp,mem2.3.1.bmp,mem3.3.1.bmp,ACC035,"[3, 3, -3]","[0, 3, -3]","[3, 3, -3]",match,1.7113248654051871,,-1.3747618401202724,-0.4900763004545071,1.6874800811055621,1st,2nd,4th,-1.3177718503139921,-0.37106227207152487,1.2241972076385128
mem,resp,776,1,mem2.3.3.bmp,mem3.1.3.bmp,mem3.1.3.bmp,ACC035,"[0, 3, 3]","[3, -3, 3]","[3, -3, 3]",match,1.3545027756320973,,0.6166219114054498,0.48851789979972254,1.5399193101378723,3rd,3rd,4th,0.3691593676212837,0.2657245154578964,1.2241972076385128
mem,resp,759,1,mem3.2.3.bmp,mem3.1.1.bmp,mem3.2.3.bmp,ACC035,"[3, 0, 3]","[3, -3, -3]","[3, 0, 3]",match,1.3545027756320973,,-0.3773988777568959,-0.8564730593392615,1.487673010462463,2nd,1st,4th,-0.28699702940152666,-1.180943231245616,1.2241972076385128
mem,resp,643,1,mem2.1.1.bmp,mem3.2.1.bmp,mem1.2.1.bmp,ACC035,"[0, -3, -3]","[3, 0, -3]","[-3, 0, -3]",non-match,1.0144014403465114,3,-0.020205832550330476,0.8000619063876113,1.5393320288611083,2nd,4th,4th,-0.28699702940152666,1.2896877124163972,1.2241972076385128
mem,resp,708,0,mem1.3.3.bmp,mem1.1.2.bmp,mem1.3.2.bmp,ACC035,"[-3, 3, 3]","[-3, -3, 0]","[-3, 3, 0]",non-match,1.1339745962155614,4,0.23848971426574433,1.4059526591769125,1.6971089792965868,3rd,4th,4th,0.3691593676212837,1.2896877124163972,1.2241972076385128
mem,resp,1003,1,mem1.2.3.bmp,mem3.3.1.bmp,mem1.1.3.bmp,ACC035,"[-3, 0, 3]","[3, 3, -3]","[-3, -3, 3]",non-match,0.7113248654051871,2,-0.5023300015506068,2.2962075666675954,1.6285816542761633,2nd,4th,4th,-0.28699702940152666,1.2896877124163972,1.2241972076385128
mem,resp,756,1,mem2.2.1.bmp,mem1.3.1.bmp,mem2.2.3.bmp,ACC035,"[0, 0, -3]","[-3, 3, -3]","[0, 0, 3]",non-match,0.7155429496238267,2,-0.34277120315700876,0.0019227497440519256,1.7022693985966912,2nd,2nd,4th,-0.28699702940152666,-0.37106227207152487,1.2241972076385128
mem,resp,1061,1,mem1.1.1.bmp,mem3.3.2.bmp,mem3.2.3.bmp,ACC035,"[-3, -3, -3]","[3, 3, 0]","[3, 0, 3]",non-match,0.7257263057516985,2,-0.6576846498066692,-0.20278763159674693,1.5929622681015079,2nd,2nd,4th,-0.28699702940152666,-0.37106227207152487,1.2241972076385128
mem,resp,696,1,mem2.2.2.bmp,mem2.1.3.bmp,mem2.1.3.bmp,ACC035,"[0, 0, 0]","[0, -3, 3]","[0, -3, 3]",match,1.591751709536137,,0.11118671538801399,0.18536926471804205,1.5643713738231213,3rd,3rd,4th,0.3691593676212837,0.2657245154578964,1.2241972076385128
mem,resp,1362,1,mem1.2.2.bmp,mem2.3.2.bmp,mem1.2.2.bmp,ACC035,"[-3, 0, 0]","[0, 3, 0]","[-3, 0, 0]",match,1.591751709536137,,-1.134684201986298,0.21101644107342402,1.486178146253372,1st,3rd,4th,-1.3177718503139921,0.2657245154578964,1.2241972076385128
mem,resp,733,1,mem3.3.3.bmp,mem1.1.3.bmp,mem3.3.3.bmp,ACC035,"[3, 3, 3]","[-3, -3, 3]","[3, 3, 3]",match,1.1835034190722742,,0.05486971524208789,0.20590996937920283,1.4366336680532832,2nd,3rd,4th,-0.28699702940152666,0.2657245154578964,1.2241972076385128
mem,resp,669,1,mem3.3.1.bmp,mem3.2.3.bmp,mem3.2.3.bmp,ACC035,"[3, 3, -3]","[3, 0, 3]","[3, 0, 3]",match,1.3545027756320973,,0.4092489950618827,0.26234791266361784,1.1513636433277479,3rd,3rd,4th,0.3691593676212837,0.2657245154578964,1.2241972076385128
mem,resp,1034,1,mem1.1.2.bmp,mem2.2.1.bmp,mem3.1.3.bmp,ACC035,"[-3, -3, 0]","[0, 0, -3]","[3, -3, 3]",non-match,0.6473959944455496,1,-0.9979869520868786,-1.5314321404200097,1.1113832542885207,1st,1st,4th,-1.3177718503139921,-1.180943231245616,1.2241972076385128
mem,resp,578,1,mem1.3.2.bmp,mem2.2.3.bmp,mem2.2.3.bmp,ACC035,"[-3, 3, 0]","[0, 0, 3]","[0, 0, 3]",match,1.5,,0.5117480477372188,0.17689613453033048,0.8476692938062635,3rd,3rd,4th,0.3691593676212837,0.2657245154578964,1.2241972076385128
mem,resp,499,1,mem1.1.3.bmp,mem2.1.2.bmp,mem1.1.3.bmp,ACC035,"[-3, -3, 3]","[0, -3, 0]","[-3, -3, 3]",match,1.591751709536137,,0.9590823740958453,0.8987370167723059,0.7319882280036264,4th,4th,4th,1.2403423244996363,1.2896877124163972,1.2241972076385128
mem,resp,672,1,mem3.2.3.bmp,mem1.3.3.bmp,mem2.2.2.bmp,ACC035,"[3, 0, 3]","[-3, 3, 3]","[0, 0, 0]",non-match,1.091751709536137,4,0.33408342603215746,1.0839795603560638,0.6196646517096261,3rd,4th,4th,0.3691593676212837,1.2896877124163972,1.2241972076385128
mem,resp,955,1,mem1.2.1.bmp,mem1.2.3.bmp,mem1.2.3.bmp,ACC035,"[-3, 0, -3]","[-3, 0, 3]","[-3, 0, 3]",match,1.4226497308103743,,0.2607413048388127,1.1567409187673585,0.506719413497292,3rd,4th,3rd,0.3691593676212837,1.2896877124163972,0.3434763773137444
mem,resp,576,1,mem1.3.1.bmp,mem1.3.2.bmp,mem1.3.2.bmp,ACC035,"[-3, 3, -3]","[-3, 3, 0]","[-3, 3, 0]",match,1.7113248654051871,,1.363148723185397,1.0913199082780056,0.40459677783212067,4th,4th,3rd,1.2403423244996363,1.2896877124163972,0.3434763773137444
mem,resp,670,1,mem3.1.2.bmp,mem3.3.3.bmp,mem1.1.2.bmp,ACC035,"[3, -3, 0]","[3, 3, 3]","[-3, -3, 0]",non-match,0.5566243270259357,1,0.9405713858653215,2.216700717231695,0.22623396706224233,4th,4th,3rd,1.2403423244996363,1.2896877124163972,0.3434763773137444
mem,resp,855,1,mem3.2.1.bmp,mem3.2.2.bmp,mem3.2.2.bmp,ACC035,"[3, 0, -3]","[3, 0, 0]","[3, 0, 0]",match,1.7113248654051871,,-1.4034647928907946,-0.17775506511151387,0.05435877631458321,1st,2nd,2nd,-1.3177718503139921,-0.37106227207152487,-0.26578944586173536
mem,resp,536,1,mem2.1.1.bmp,mem2.1.3.bmp,mem2.3.1.bmp,ACC035,"[0, -3, -3]","[0, -3, 3]","[0, 3, -3]",non-match,0.6061531498826483,1,1.0311158284551882,0.5976774823532433,-0.086448286204659,4th,4th,2nd,1.2403423244996363,1.2896877124163972,-0.26578944586173536
mem,resp,1051,1,mem3.1.1.bmp,mem2.3.2.bmp,mem3.1.1.bmp,ACC035,"[3, -3, -3]","[0, 3, 0]","[3, -3, -3]",match,1.2928932188134525,,-0.4967579355665087,-0.3517649703023401,0.23557020850633506,2nd,2nd,3rd,-0.28699702940152666,-0.37106227207152487,0.3434763773137444
mem,resp,847,1,mem1.1.3.bmp,mem1.1.1.bmp,mem1.3.3.bmp,ACC035,"[-3, -3, 3]","[-3, -3, -3]","[-3, 3, 3]",non-match,0.6061531498826483,1,0.4855284395534901,1.2466459479289143,0.015268812251288805,3rd,4th,2nd,0.3691593676212837,1.2896877124163972,-0.26578944586173536
mem,resp,982,1,mem2.3.3.bmp,mem1.3.1.bmp,mem3.1.3.bmp,ACC035,"[0, 3, 3]","[-3, 3, -3]","[3, -3, 3]",non-match,0.3545027756320972,1,0.3554369840274287,-0.6443717839497108,0.018041137649521543,3rd,2nd,2nd,0.3691593676212837,-0.37106227207152487,-0.26578944586173536
mem,resp,626,1,mem2.1.2.bmp,mem2.2.2.bmp,mem1.2.1.bmp,ACC035,"[0, -3, 0]","[0, 0, 0]","[-3, 0, -3]",non-match,1.091751709536137,4,0.357073984566689,-0.6105821457521354,-0.0489073796851484,3rd,2nd,2nd,0.3691593676212837,-0.37106227207152487,-0.26578944586173536
mem,resp,598,1,mem2.3.2.bmp,mem2.2.1.bmp,mem1.2.3.bmp,ACC035,"[0, 3, 0]","[0, 0, -3]","[-3, 0, 3]",non-match,0.8545027756320972,2,1.3404774986485206,0.5922510841114088,-0.03867921447052885,4th,3rd,2nd,1.2403423244996363,0.2657245154578964,-0.26578944586173536
mem,resp,1235,0,mem3.3.2.bmp,mem1.3.3.bmp,mem3.2.1.bmp,ACC035,"[3, 3, 0]","[-3, 3, 3]","[3, 0, -3]",non-match,0.7257263057516985,2,-0.5241499748669809,0.9950785312387248,-0.004978580900000637,2nd,4th,2nd,-0.28699702940152666,1.2896877124163972,-0.26578944586173536
mem,resp,1141,1,mem1.2.2.bmp,mem3.3.1.bmp,mem2.1.3.bmp,ACC035,"[-3, 0, 0]","[3, 3, -3]","[0, -3, 3]",non-match,0.6339745962155614,1,-0.4897178187593754,0.22416004531371161,0.019421713139399898,2nd,3rd,2nd,-0.28699702940152666,0.2657245154578964,-0.26578944586173536
mem,resp,826,1,mem1.1.1.bmp,mem3.1.2.bmp,mem3.1.2.bmp,ACC035,"[-3, -3, -3]","[3, -3, 0]","[3, -3, 0]",match,1.3545027756320973,,-0.9909263427622632,1.609167185482741,0.17573089629136845,1st,4th,3rd,-1.3177718503139921,1.2896877124163972,0.3434763773137444
mem,resp,698,1,mem1.3.1.bmp,mem2.2.3.bmp,mem2.2.2.bmp,ACC035,"[-3, 3, -3]","[0, 0, 3]","[0, 0, 0]",non-match,1.2113248654051871,4,-0.8025967591234855,0.028577984156193073,0.0774519730560679,1st,3rd,3rd,-1.3177718503139921,0.2657245154578964,0.3434763773137444
mem,resp,691,1,mem3.2.3.bmp,mem1.2.3.bmp,mem1.2.3.bmp,ACC035,"[3, 0, 3]","[-3, 0, 3]","[-3, 0, 3]",match,1.4226497308103743,,0.658915831499148,-0.36564289578276565,0.11870624407559481,3rd,2nd,3rd,0.3691593676212837,-0.37106227207152487,0.3434763773137444
mem,resp,1046,1,mem2.1.3.bmp,mem3.2.2.bmp,mem2.1.3.bmp,ACC035,"[0, -3, 3]","[3, 0, 0]","[0, -3, 3]",match,1.5,,-2.181061104349241,-0.38483675801656586,0.1599807601663734,1st,2nd,3rd,-1.3177718503139921,-0.37106227207152487,0.3434763773137444
mem,resp,656,1,mem1.3.3.bmp,mem2.3.1.bmp,mem3.1.2.bmp,ACC035,"[-3, 3, 3]","[0, 3, -3]","[3, -3, 0]",non-match,0.42686781502901383,1,0.8258314085580248,0.7784833053421772,0.3531293075539565,4th,4th,3rd,1.2403423244996363,1.2896877124163972,0.3434763773137444
mem,resp,769,1,mem2.1.1.bmp,mem1.2.1.bmp,mem2.1.1.bmp,ACC035,"[0, -3, -3]","[-3, 0, -3]","[0, -3, -3]",match,1.591751709536137,,0.8176902780345546,-0.21086283784872198,0.39259086133784576,4th,2nd,3rd,1.2403423244996363,-0.37106227207152487,0.3434763773137444
mem,resp,732,1,mem2.2.2.bmp,mem3.2.1.bmp,mem2.2.2.bmp,ACC035,"[0, 0, 0]","[3, 0, -3]","[0, 0, 0]",match,1.591751709536137,,-1.17636036797304,0.37384300078837374,0.4430218224209293,1st,3rd,3rd,-1.3177718503139921,0.2657245154578964,0.3434763773137444
mem,resp,635,1,mem2.2.1.bmp,mem1.2.2.bmp,mem1.2.2.bmp,ACC035,"[0, 0, -3]","[-3, 0, 0]","[-3, 0, 0]",match,1.591751709536137,,0.10381422340650553,0.2853675855747052,0.5804783269391625,3rd,3rd,4th,0.3691593676212837,0.2657245154578964,1.2241972076385128
mem,resp,467,1,mem3.3.3.bmp,mem3.1.3.bmp,mem3.1.3.bmp,ACC035,"[3, 3, 3]","[3, -3, 3]","[3, -3, 3]",match,1.4226497308103743,,0.2874581725200956,0.34210361375099263,0.7744126901634981,3rd,3rd,4th,0.3691593676212837,0.2657245154578964,1.2241972076385128
mem,resp,810,0,mem2.2.3.bmp,mem3.1.1.bmp,mem3.1.1.bmp,ACC035,"[0, 0, 3]","[3, -3, -3]","[3, -3, -3]",match,1.2928932188134525,,-0.5026045988005342,1.3790254782478022,0.7594717855969223,2nd,4th,4th,-0.28699702940152666,1.2896877124163972,1.2241972076385128
mem,resp,573,1,mem3.2.1.bmp,mem3.3.2.bmp,mem1.2.3.bmp,ACC035,"[3, 0, -3]","[3, 3, 0]","[-3, 0, 3]",non-match,0.4763966378857265,1,1.549381826405611,0.9882122546643384,0.6318265995209936,4th,4th,4th,1.2403423244996363,1.2896877124163972,1.2241972076385128
mem,resp,654,1,mem1.2.1.bmp,mem2.1.2.bmp,mem2.3.2.bmp,ACC035,"[-3, 0, -3]","[0, -3, 0]","[0, 3, 0]",non-match,0.9226497308103743,2,-0.8422533246841081,0.6603398797872024,0.6446527121490536,1st,4th,4th,-1.3177718503139921,1.2896877124163972,1.2241972076385128
mem,resp,395,1,mem1.3.2.bmp,mem2.1.1.bmp,mem2.1.1.bmp,ACC035,"[-3, 3, 0]","[0, -3, -3]","[0, -3, -3]",match,1.2928932188134525,,0.2886793022574578,0.5533562871060229,0.6390214633803489,3rd,3rd,4th,0.3691593676212837,0.2657245154578964,1.2241972076385128
mem,resp,486,1,mem3.1.2.bmp,mem3.2.3.bmp,mem3.1.2.bmp,ACC035,"[3, -3, 0]","[3, 0, 3]","[3, -3, 0]",match,1.591751709536137,,0.052103209373615775,-0.80902701540473,0.5146729112035409,2nd,1st,3rd,-0.28699702940152666,-1.180943231245616,0.3434763773137444
mem,resp,536,1,mem1.1.2.bmp,mem2.1.3.bmp,mem2.1.3.bmp,ACC035,"[-3, -3, 0]","[0, -3, 3]","[0, -3, 3]",match,1.591751709536137,,0.20322418287935773,1.8923943805525016,0.49748503993955395,3rd,4th,3rd,0.3691593676212837,1.2896877124163972,0.3434763773137444
mem,resp,438,1,mem3.2.2.bmp,mem3.3.3.bmp,mem3.2.2.bmp,ACC035,"[3, 0, 0]","[3, 3, 3]","[3, 0, 0]",match,1.591751709536137,,1.2820825326060052,1.020601401121681,0.41738779103779083,4th,4th,3rd,1.2403423244996363,1.2896877124163972,0.3434763773137444
mem,resp,751,1,mem3.1.3.bmp,mem1.2.1.bmp,mem3.2.1.bmp,ACC035,"[3, -3, 3]","[-3, 0, -3]","[3, 0, -3]",non-match,0.7771525064424715,2,0.277010894798288,1.1010366999565318,0.5401612116409834,3rd,4th,3rd,0.3691593676212837,1.2896877124163972,0.3434763773137444
mem,resp,572,1,mem3.1.1.bmp,mem1.2.2.bmp,mem3.3.2.bmp,ACC035,"[3, -3, -3]","[-3, 0, 0]","[3, 3, 0]",non-match,0.7090055512641944,2,0.5798077299640789,2.141410262180249,0.4987481528147102,3rd,4th,3rd,0.3691593676212837,1.2896877124163972,0.3434763773137444
mem,resp,513,1,mem3.3.1.bmp,mem1.1.2.bmp,mem2.3.2.bmp,ACC035,"[3, 3, -3]","[-3, -3, 0]","[0, 3, 0]",non-match,0.9462544851682343,3,1.5976100903347983,0.3761061782537135,0.32422809859897395,4th,3rd,3rd,1.2403423244996363,0.2657245154578964,0.3434763773137444
mem,resp,584,1,mem2.3.1.bmp,mem1.3.3.bmp,mem2.1.3.bmp,ACC035,"[0, 3, -3]","[-3, 3, 3]","[0, -3, 3]",non-match,0.5380061947043713,1,1.6225326508532671,1.827777214606396,0.3424203555672866,4th,4th,3rd,1.2403423244996363,1.2896877124163972,0.3434763773137444
mem,resp,665,1,mem2.3.3.bmp,mem3.1.2.bmp,mem1.3.1.bmp,ACC035,"[0, 3, 3]","[3, -3, 0]","[-3, 3, -3]",non-match,0.4884773718476586,1,0.4718280473352813,1.089189809753381,0.47589720392567153,3rd,4th,3rd,0.3691593676212837,1.2896877124163972,0.3434763773137444
mem,resp,666,0,mem1.3.2.bmp,mem2.2.2.bmp,mem2.2.3.bmp,ACC035,"[-3, 3, 0]","[0, 0, 0]","[0, 0, 3]",non-match,1.2113248654051871,4,-0.26988741710983705,0.5437626083668224,0.5094323941631834,2nd,3rd,3rd,-0.28699702940152666,0.2657245154578964,0.3434763773137444
mem,resp,440,1,mem3.1.3.bmp,mem3.2.3.bmp,mem3.2.3.bmp,ACC035,"[3, -3, 3]","[3, 0, 3]","[3, 0, 3]",match,1.7113248654051871,,1.0916340407570895,1.6108584218862778,0.43229402740247197,4th,4th,3rd,1.2403423244996363,1.2896877124163972,0.3434763773137444
mem,resp,631,1,mem3.2.2.bmp,mem2.1.3.bmp,mem3.2.2.bmp,ACC035,"[3, 0, 0]","[0, -3, 3]","[3, 0, 0]",match,1.5,,0.5720357106684073,-1.6745618830525701,0.5139669266970069,3rd,1st,3rd,0.3691593676212837,-1.180943231245616,0.3434763773137444
mem,resp,422,0,mem3.3.3.bmp,mem1.3.1.bmp,mem3.3.3.bmp,ACC035,"[3, 3, 3]","[-3, 3, -3]","[3, 3, 3]",match,1.1835034190722742,,0.6845785509423196,1.4014315557918753,0.603939869178218,4th,4th,4th,1.2403423244996363,1.2896877124163972,1.2241972076385128
mem,resp,423,1,mem1.2.3.bmp,mem3.3.1.bmp,mem3.3.1.bmp,ACC035,"[-3, 0, 3]","[3, 3, -3]","[3, 3, -3]",match,1.1339745962155614,,0.9748239793158225,0.4207634127454049,0.5335727229036928,4th,3rd,3rd,1.2403423244996363,0.2657245154578964,0.3434763773137444
mem,resp,362,1,mem2.2.1.bmp,mem3.2.1.bmp,mem2.2.1.bmp,ACC035,"[0, 0, -3]","[3, 0, -3]","[0, 0, -3]",match,1.7113248654051871,,0.0007045538906687004,0.7320343389598788,0.43202677460859945,2nd,4th,3rd,-0.28699702940152666,1.2896877124163972,0.3434763773137444
mem,resp,521,1,mem1.3.3.bmp,mem2.3.3.bmp,mem2.1.1.bmp,ACC035,"[-3, 3, 3]","[0, 3, 3]","[0, -3, -3]",non-match,0.3174780152878355,1,2.2443882139003204,1.0363751345790846,0.2783539507194936,4th,4th,3rd,1.2403423244996363,1.2896877124163972,0.3434763773137444
mem,resp,612,0,mem2.3.2.bmp,mem3.1.1.bmp,mem3.2.2.bmp,ACC035,"[0, 3, 0]","[3, -3, -3]","[3, 0, 0]",non-match,1.1835034190722742,4,0.3635258170329922,0.4212261455285039,0.2681763305907489,3rd,3rd,3rd,0.3691593676212837,0.2657245154578964,0.3434763773137444
mem,resp,777,1,mem1.2.2.bmp,mem2.2.3.bmp,mem1.2.2.bmp,ACC035,"[-3, 0, 0]","[0, 0, 3]","[-3, 0, 0]",match,1.591751709536137,,-1.7969493233575753,-0.3619920570580248,0.17968964700590037,1st,2nd,3rd,-1.3177718503139921,-0.37106227207152487,0.3434763773137444
mem,resp,406,1,mem3.1.2.bmp,mem1.1.1.bmp,mem1.1.1.bmp,ACC035,"[3, -3, 0]","[-3, -3, -3]","[-3, -3, -3]",match,1.3545027756320973,,0.8899299778708885,1.317737434179172,0.22367797455833305,4th,4th,3rd,1.2403423244996363,1.2896877124163972,0.3434763773137444
mem,resp,377,1,mem2.2.2.bmp,mem1.3.2.bmp,mem1.3.2.bmp,ACC035,"[0, 0, 0]","[-3, 3, 0]","[-3, 3, 0]",match,1.591751709536137,,0.6116289372201607,0.8197626024525775,0.25653791049120267,3rd,4th,3rd,0.3691593676212837,1.2896877124163972,0.3434763773137444
mem,resp,980,1,mem2.1.2.bmp,mem3.2.2.bmp,mem2.1.3.bmp,ACC035,"[0, -3, 0]","[3, 0, 0]","[0, -3, 3]",non-match,1.2113248654051871,4,0.9830375615687296,1.4676064017875619,0.33029425892271835,4th,4th,3rd,1.2403423244996363,1.2896877124163972,0.3434763773137444
mem,resp,799,1,mem2.3.2.bmp,mem1.3.3.bmp,mem2.2.3.bmp,ACC035,"[0, 3, 0]","[-3, 3, 3]","[0, 0, 3]",non-match,1.1835034190722742,4,1.8574554563511187,0.8283352733008784,0.4349058110736799,4th,4th,3rd,1.2403423244996363,1.2896877124163972,0.3434763773137444
mem,resp,420,1,mem1.1.3.bmp,mem2.2.2.bmp,mem2.2.2.bmp,ACC035,"[-3, -3, 3]","[0, 0, 0]","[0, 0, 0]",match,1.5,,0.24510724429390118,1.0800031854781371,0.6453752224078245,3rd,4th,4th,0.3691593676212837,1.2896877124163972,1.2241972076385128
mem,resp,579,1,mem2.1.2.bmp,mem1.2.1.bmp,mem3.3.1.bmp,ACC035,"[0, -3, 0]","[-3, 0, -3]","[3, 3, -3]",non-match,0.6473959944455496,1,1.8840965666240854,0.7918274828200182,0.6340593660598648,4th,4th,4th,1.2403423244996363,1.2896877124163972,1.2241972076385128
mem,resp,1044,1,mem3.2.2.bmp,mem1.1.1.bmp,mem1.1.1.bmp,ACC035,"[3, 0, 0]","[-3, -3, -3]","[-3, -3, -3]",match,1.2928932188134525,,-0.22530303324208575,-0.7628217684815726,0.41085792410200345,2nd,1st,3rd,-0.28699702940152666,-1.180943231245616,0.3434763773137444
mem,resp,1009,0,mem3.3.2.bmp,mem2.2.3.bmp,mem2.3.1.bmp,ACC035,"[3, 3, 0]","[0, 0, 3]","[0, 3, -3]",non-match,0.9462544851682343,3,-2.757545939505131,0.8248790401481887,0.4267698043244467,1st,4th,3rd,-1.3177718503139921,1.2896877124163972,0.3434763773137444
mem,resp,703,1,mem1.2.2.bmp,mem2.3.2.bmp,mem1.3.1.bmp,ACC035,"[-3, 0, 0]","[0, 3, 0]","[-3, 3, -3]",non-match,1.1835034190722742,4,0.3471675273696584,1.5807474914113426,0.5430919120325954,3rd,4th,3rd,0.3691593676212837,1.2896877124163972,0.3434763773137444
mem,resp,784,1,mem3.2.3.bmp,mem2.1.1.bmp,mem2.2.2.bmp,ACC035,"[3, 0, 3]","[0, -3, -3]","[0, 0, 0]",non-match,1.1835034190722742,4,0.0880038214441828,0.5321323444214288,0.4273233514947671,3rd,3rd,3rd,0.3691593676212837,0.2657245154578964,0.3434763773137444
mem,resp,788,1,mem3.3.3.bmp,mem3.2.1.bmp,mem3.1.2.bmp,ACC035,"[3, 3, 3]","[3, 0, -3]","[3, -3, 0]",non-match,0.9462544851682343,3,0.6436899594265673,0.7206369333224102,0.589198718919593,3rd,4th,4th,0.3691593676212837,1.2896877124163972,1.2241972076385128
mem,resp,1155,1,mem1.3.2.bmp,mem2.3.1.bmp,mem2.3.3.bmp,ACC035,"[-3, 3, 0]","[0, 3, -3]","[0, 3, 3]",non-match,1.0144014403465114,3,0.010787759706767923,0.8697490815917155,0.7655095544598975,2nd,4th,4th,-0.28699702940152666,1.2896877124163972,1.2241972076385128
mem,resp,527,1,mem1.1.2.bmp,mem3.1.3.bmp,mem1.1.2.bmp,ACC035,"[-3, -3, 0]","[3, -3, 3]","[-3, -3, 0]",match,1.3545027756320973,,0.6478611845936443,0.9785872456812474,0.9517562218660008,3rd,4th,4th,0.3691593676212837,1.2896877124163972,1.2241972076385128
mem,resp,606,1,mem1.2.3.bmp,mem3.2.2.bmp,mem3.2.2.bmp,ACC035,"[-3, 0, 3]","[3, 0, 0]","[3, 0, 0]",match,1.3545027756320973,,0.20475195297259943,0.27523687661689394,0.8664099573274091,3rd,3rd,4th,0.3691593676212837,0.2657245154578964,1.2241972076385128
mem,resp,527,1,mem3.1.2.bmp,mem3.1.1.bmp,mem3.3.1.bmp,ACC035,"[3, -3, 0]","[3, -3, -3]","[3, 3, -3]",non-match,0.7771525064424715,2,1.6135190645334736,2.769043368756385,0.8831737027374034,4th,4th,4th,1.2403423244996363,1.2896877124163972,1.2241972076385128
mem,resp,492,1,mem2.2.3.bmp,mem2.3.3.bmp,mem2.3.3.bmp,ACC035,"[0, 0, 3]","[0, 3, 3]","[0, 3, 3]",match,1.7113248654051871,,-0.24237586370340786,0.2630824726103758,0.7597107124953492,2nd,3rd,4th,-0.28699702940152666,0.2657245154578964,1.2241972076385128
mem,resp,504,1,mem2.2.1.bmp,mem2.1.3.bmp,mem2.2.1.bmp,ACC035,"[0, 0, -3]","[0, -3, 3]","[0, 0, -3]",match,1.3545027756320973,,-0.47317478806784885,0.20734322360304716,0.5644341824702926,2nd,3rd,4th,-0.28699702940152666,0.2657245154578964,1.2241972076385128
mem,resp,543,1,mem1.3.1.bmp,mem1.2.2.bmp,mem2.2.2.bmp,ACC035,"[-3, 3, -3]","[-3, 0, 0]","[0, 0, 0]",non-match,1.2113248654051871,4,0.05493865317864748,1.1721117154500023,0.5651333982215797,2nd,4th,4th,-0.28699702940152666,1.2896877124163972,1.2241972076385128
mem,resp,734,0,mem1.3.3.bmp,mem2.1.2.bmp,mem3.1.3.bmp,ACC035,"[-3, 3, 3]","[0, -3, 0]","[3, -3, 3]",non-match,0.7752551286084112,2,-0.24420852302825657,0.14599347387311773,0.453464471613699,2nd,3rd,3rd,-0.28699702940152666,0.2657245154578964,0.3434763773137444
mem,resp,526,1,mem2.3.1.bmp,mem3.2.3.bmp,mem2.1.1.bmp,ACC035,"[0, 3, -3]","[3, 0, 3]","[0, -3, -3]",non-match,0.7155429496238267,2,1.4197992630655198,1.084810140040765,0.5508680449226319,4th,4th,3rd,1.2403423244996363,1.2896877124163972,0.3434763773137444
mem,resp,549,1,mem3.3.1.bmp,mem3.3.3.bmp,mem1.2.3.bmp,ACC035,"[3, 3, -3]","[3, 3, 3]","[-3, 0, 3]",non-match,0.4884773718476586,1,1.5585774797353438,0.4983662188259349,0.42857423422339636,4th,3rd,3rd,1.2403423244996363,0.2657245154578964,0.3434763773137444
mem,resp,680,1,mem3.1.1.bmp,mem2.2.1.bmp,mem3.2.1.bmp,ACC035,"[3, -3, -3]","[0, 0, -3]","[3, 0, -3]",non-match,1.4226497308103743,4,0.15031802981410688,0.765661417949154,0.16806192615568818,3rd,4th,3rd,0.3691593676212837,1.2896877124163972,0.3434763773137444
mem,resp,683,1,mem1.2.1.bmp,mem3.1.2.bmp,mem3.3.2.bmp,ACC035,"[-3, 0, -3]","[3, -3, 0]","[3, 3, 0]",non-match,0.7155429496238267,2,0.5405936442822595,-0.5412015892015738,0.20666708658488894,3rd,2nd,3rd,0.3691593676212837,-0.37106227207152487,0.3434763773137444
mem,resp,1188,1,mem2.1.3.bmp,mem1.3.1.bmp,mem2.1.3.bmp,ACC035,"[0, -3, 3]","[-3, 3, -3]","[0, -3, 3]",match,1.1339745962155614,,-1.1703079472059585,0.8748891512427183,-0.06239517891968891,1st,4th,2nd,-1.3177718503139921,1.2896877124163972,-0.26578944586173536
mem,resp,954,1,mem2.1.1.bmp,mem1.3.2.bmp,mem1.1.2.bmp,ACC035,"[0, -3, -3]","[-3, 3, 0]","[-3, -3, 0]",non-match,1.0144014403465114,3,-0.1617056176842024,0.035892790469781916,-0.2565664247386978,2nd,3rd,2nd,-0.28699702940152666,0.2657245154578964,-0.26578944586173536
mem,resp,668,1,mem3.2.1.bmp,mem3.3.3.bmp,mem1.1.1.bmp,ACC035,"[3, 0, -3]","[3, 3, 3]","[-3, -3, -3]",non-match,0.3545027756320972,1,0.7647057072834014,6.099701800746982,-0.41350108348866293,4th,4th,2nd,1.2403423244996363,1.2896877124163972,-0.26578944586173536
mem,resp,981,1,mem3.1.3.bmp,mem3.3.2.bmp,mem3.3.2.bmp,ACC035,"[3, -3, 3]","[3, 3, 0]","[3, 3, 0]",match,1.3545027756320973,,-1.9414653628900254,0.6834339098104568,-0.5339027629017526,1st,4th,2nd,-1.3177718503139921,1.2896877124163972,-0.26578944586173536
mem,resp,632,0,mem2.3.3.bmp,mem3.2.2.bmp,mem3.2.3.bmp,ACC035,"[0, 3, 3]","[3, 0, 0]","[3, 0, 3]",non-match,1.3030765749413242,4,-0.678015254657446,0.12214715993656125,-0.59786584518702,2nd,3rd,2nd,-0.28699702940152666,0.2657245154578964,-0.26578944586173536
mem,resp,575,1,mem2.2.2.bmp,mem1.1.2.bmp,mem1.1.2.bmp,ACC035,"[0, 0, 0]","[-3, -3, 0]","[-3, -3, 0]",match,1.591751709536137,,-0.07535674047824698,0.019245629489366714,-0.8334334155052621,2nd,3rd,1st,-0.28699702940152666,0.2657245154578964,-1.2974805957916282
mem,resp,505,1,mem1.2.2.bmp,mem2.2.3.bmp,mem2.2.3.bmp,ACC035,"[-3, 0, 0]","[0, 0, 3]","[0, 0, 3]",match,1.591751709536137,,0.028647801831359183,-0.7658951162155933,-0.6475063637252585,2nd,1st,1st,-0.28699702940152666,-1.180943231245616,-1.2974805957916282
mem,resp,536,1,mem1.3.3.bmp,mem1.3.1.bmp,mem3.2.1.bmp,ACC035,"[-3, 3, 3]","[-3, 3, -3]","[3, 0, -3]",non-match,0.4884773718476586,1,1.7540038103818014,-0.2921662529842875,-0.7236770890488136,4th,2nd,1st,1.2403423244996363,-0.37106227207152487,-1.2974805957916282
mem,resp,969,1,mem2.3.3.bmp,mem2.3.2.bmp,mem1.3.2.bmp,ACC035,"[0, 3, 3]","[0, 3, 0]","[-3, 3, 0]",non-match,1.3030765749413242,4,-0.5403967817745042,-0.6885777435760697,-0.6322628179564955,2nd,2nd,2nd,-0.28699702940152666,-0.37106227207152487,-0.26578944586173536
mem,resp,842,1,mem2.2.2.bmp,mem2.1.3.bmp,mem2.2.2.bmp,ACC035,"[0, 0, 0]","[0, -3, 3]","[0, 0, 0]",match,1.591751709536137,,-0.7796541697059384,-1.3746729360602394,-0.6661267115119927,1st,1st,1st,-1.3177718503139921,-1.180943231245616,-1.2974805957916282
mem,resp,763,0,mem1.1.1.bmp,mem3.2.3.bmp,mem2.1.2.bmp,ACC035,"[-3, -3, -3]","[3, 0, 3]","[0, -3, 0]",non-match,1.091751709536137,4,-0.5881692080947063,0.45334823895458926,-0.7617341737932876,2nd,3rd,1st,-0.28699702940152666,0.2657245154578964,-1.2974805957916282
mem,resp,424,1,mem2.2.3.bmp,mem3.1.3.bmp,mem3.1.3.bmp,ACC035,"[0, 0, 3]","[3, -3, 3]","[3, -3, 3]",match,1.591751709536137,,0.7166181450501978,0.30955871122402284,-0.85719501018127,4th,3rd,1st,1.2403423244996363,0.2657245154578964,-1.2974805957916282
mem,resp,434,0,mem3.2.2.bmp,mem1.3.2.bmp,mem1.3.3.bmp,ACC035,"[3, 0, 0]","[-3, 3, 0]","[-3, 3, 3]",non-match,1.0042180842186395,3,1.5213705198089826,1.4690125031333678,-1.1464024584633987,4th,4th,1st,1.2403423244996363,1.2896877124163972,-1.2974805957916282
mem,resp,844,1,mem3.1.2.bmp,mem2.3.1.bmp,mem3.1.2.bmp,ACC035,"[3, -3, 0]","[0, 3, -3]","[3, -3, 0]",match,1.2928932188134525,,-1.523760721148586,0.5370804939498564,-1.075177258411471,1st,3rd,1st,-1.3177718503139921,0.2657245154578964,-1.2974805957916282
mem,resp,1069,1,mem1.2.3.bmp,mem3.1.1.bmp,mem1.3.1.bmp,ACC035,"[-3, 0, 3]","[3, -3, -3]","[-3, 3, -3]",non-match,0.5380061947043713,1,0.2622701851916055,1.3833245844761286,-1.3223048046976171,3rd,4th,1st,0.3691593676212837,1.2896877124163972,-1.2974805957916282
mem,resp,1015,1,mem3.3.2.bmp,mem1.1.3.bmp,mem2.1.1.bmp,ACC035,"[3, 3, 0]","[-3, -3, 3]","[0, -3, -3]",non-match,0.6473959944455496,1,-0.05257898361902926,-0.08796085549834781,-1.118571427780834,2nd,2nd,1st,-0.28699702940152666,-0.37106227207152487,-1.2974805957916282
mem,resp,818,1,mem1.2.1.bmp,mem2.1.2.bmp,mem2.2.3.bmp,ACC035,"[-3, 0, -3]","[0, -3, 0]","[0, 0, 3]",non-match,0.9462544851682343,3,1.2743394296816122,1.003394115057159,-1.1847090585727933,4th,4th,1st,1.2403423244996363,1.2896877124163972,-1.2974805957916282
mem,resp,827,1,mem2.2.1.bmp,mem1.2.2.bmp,mem3.2.2.bmp,ACC035,"[0, 0, -3]","[-3, 0, 0]","[3, 0, 0]",non-match,1.0144014403465114,3,0.5170155517882556,0.16313595109027804,-1.27582000788667,3rd,3rd,1st,0.3691593676212837,0.2657245154578964,-1.2974805957916282
mem,resp,630,1,mem2.3.2.bmp,mem2.2.1.bmp,mem2.3.2.bmp,ACC035,"[0, 3, 0]","[0, 0, -3]","[0, 3, 0]",match,1.591751709536137,,-0.7959699593338317,0.38379742490722796,-1.3869027783400032,1st,3rd,1st,-1.3177718503139921,0.2657245154578964,-1.2974805957916282
mem,resp,549,1,mem3.2.3.bmp,mem1.2.3.bmp,mem3.2.3.bmp,ACC035,"[3, 0, 3]","[-3, 0, 3]","[3, 0, 3]",match,1.4226497308103743,,0.28369002137953964,0.10461457642547338,-1.2282392246838656,3rd,3rd,1st,0.3691593676212837,0.2657245154578964,-1.2974805957916282
mem,resp,690,1,mem1.1.1.bmp,mem2.2.3.bmp,mem1.1.1.bmp,ACC035,"[-3, -3, -3]","[0, 0, 3]","[-3, -3, -3]",match,1.2928932188134525,,0.29869915715239087,0.934901785840056,-1.1808304043248246,3rd,4th,1st,0.3691593676212837,1.2896877124163972,-1.2974805957916282
mem,resp,843,1,mem1.3.3.bmp,mem3.2.2.bmp,mem2.2.2.bmp,ACC035,"[-3, 3, 3]","[3, 0, 0]","[0, 0, 0]",non-match,1.2113248654051871,4,1.3958083546799707,0.3697250728847164,-0.9896633907256873,4th,3rd,1st,1.2403423244996363,0.2657245154578964,-1.2974805957916282
mem,resp,653,1,mem1.1.3.bmp,mem2.3.2.bmp,mem2.1.1.bmp,ACC035,"[-3, -3, 3]","[0, 3, 0]","[0, -3, -3]",non-match,0.7090055512641944,2,1.0583686313221792,0.014723571277849503,-1.0791487998980103,4th,3rd,1st,1.2403423244996363,0.2657245154578964,-1.2974805957916282
mem,resp,728,1,mem2.1.2.bmp,mem2.3.1.bmp,mem2.3.1.bmp,ACC035,"[0, -3, 0]","[0, 3, -3]","[0, 3, -3]",match,1.3545027756320973,,0.4620033735011961,0.19690541857845423,-0.9532914928929973,3rd,3rd,1st,0.3691593676212837,0.2657245154578964,-1.2974805957916282
mem,resp,527,1,mem2.1.3.bmp,mem3.1.3.bmp,mem3.3.3.bmp,ACC035,"[0, -3, 3]","[3, -3, 3]","[3, 3, 3]",non-match,0.7771525064424715,2,2.0710806921242186,0.5656245541703371,-1.0448312518645755,4th,3rd,1st,1.2403423244996363,0.2657245154578964,-1.2974805957916282
mem,resp,568,1,mem3.1.2.bmp,mem1.1.1.bmp,mem1.2.3.bmp,ACC035,"[3, -3, 0]","[-3, -3, -3]","[-3, 0, 3]",non-match,0.6473959944455496,1,2.2465823342671163,1.2839858696875066,-1.0403990182733114,4th,4th,1st,1.2403423244996363,1.2896877124163972,-1.2974805957916282
mem,resp,661,1,mem1.1.2.bmp,mem3.2.1.bmp,mem2.2.1.bmp,ACC035,"[-3, -3, 0]","[3, 0, -3]","[0, 0, -3]",non-match,1.2113248654051871,4,1.2177538300778938,0.17819541466363348,-0.9696099109293698,4th,3rd,1st,1.2403423244996363,0.2657245154578964,-1.2974805957916282
mem,resp,692,1,mem2.2.2.bmp,mem1.3.3.bmp,mem1.3.3.bmp,ACC035,"[0, 0, 0]","[-3, 3, 3]","[-3, 3, 3]",match,1.5,,-0.8935753339020727,-0.708219061369281,-1.011953606860258,1st,2nd,1st,-1.3177718503139921,-0.37106227207152487,-1.2974805957916282
mem,resp,713,1,mem1.3.1.bmp,mem1.1.3.bmp,mem2.1.1.bmp,ACC035,"[-3, 3, -3]","[-3, -3, 3]","[0, -3, -3]",non-match,0.7090055512641944,2,0.0482225256946973,0.11238990748592413,-0.8101313337901909,2nd,3rd,1st,-0.28699702940152666,0.2657245154578964,-1.2974805957916282
mem,resp,646,1,mem2.2.3.bmp,mem3.3.1.bmp,mem2.3.2.bmp,ACC035,"[0, 0, 3]","[3, 3, -3]","[0, 3, 0]",non-match,1.1835034190722742,4,-0.18211391041857694,1.4807014889073098,-0.8963351812267579,2nd,4th,1st,-0.28699702940152666,1.2896877124163972,-1.2974805957916282
mem,resp,969,0,mem1.2.2.bmp,mem1.2.1.bmp,mem1.2.1.bmp,ACC035,"[-3, 0, 0]","[-3, 0, -3]","[-3, 0, -3]",match,1.7113248654051871,,-1.5249663471391433,0.6339482371603264,-1.0385241046914788,1st,4th,1st,-1.3177718503139921,1.2896877124163972,-1.2974805957916282
mem,resp,661,0,mem3.2.2.bmp,mem1.1.2.bmp,mem3.2.3.bmp,ACC035,"[3, 0, 0]","[-3, -3, 0]","[3, 0, 3]",non-match,1.0042180842186395,3,-1.0702343075568326,0.7934657263538893,-1.0661691990638338,1st,4th,1st,-1.3177718503139921,1.2896877124163972,-1.2974805957916282
mem,resp,550,1,mem1.3.2.bmp,mem2.3.3.bmp,mem3.3.2.bmp,ACC035,"[-3, 3, 0]","[0, 3, 3]","[3, 3, 0]",non-match,1.0144014403465114,3,2.058598549789944,0.689901426975936,-1.191594377331158,4th,4th,1st,1.2403423244996363,1.2896877124163972,-1.2974805957916282
mem,resp,581,1,mem3.3.1.bmp,mem1.3.1.bmp,mem1.3.1.bmp,ACC035,"[3, 3, -3]","[-3, 3, -3]","[-3, 3, -3]",match,1.4226497308103743,,-0.2067050241588622,0.312559313115562,-1.2662682219069035,2nd,3rd,1st,-0.28699702940152666,0.2657245154578964,-1.2974805957916282
mem,resp,722,1,mem3.3.3.bmp,mem3.1.2.bmp,mem3.1.2.bmp,ACC035,"[3, 3, 3]","[3, -3, 0]","[3, -3, 0]",match,1.3545027756320973,,0.33317932463192595,0.9591460237123498,-1.0818034484405583,3rd,4th,1st,0.3691593676212837,1.2896877124163972,-1.2974805957916282
mem,resp,705,1,mem3.1.1.bmp,mem2.1.2.bmp,mem1.1.3.bmp,ACC035,"[3, -3, -3]","[0, -3, 0]","[-3, -3, 3]",non-match,0.7752551286084112,2,0.9464646887282401,0.869509778205047,-1.211774722990151,4th,4th,1st,1.2403423244996363,1.2896877124163972,-1.2974805957916282
mem,resp,759,0,mem2.2.1.bmp,mem2.2.2.bmp,mem2.2.1.bmp,ACC035,"[0, 0, -3]","[0, 0, 0]","[0, 0, -3]",match,1.7113248654051871,,-0.45879225070264446,-0.23386783030267227,-1.2994410205278089,2nd,2nd,1st,-0.28699702940152666,-0.37106227207152487,-1.2974805957916282
mem,resp,692,1,mem3.2.1.bmp,mem3.3.2.bmp,mem3.2.1.bmp,ACC035,"[3, 0, -3]","[3, 3, 0]","[3, 0, -3]",match,1.591751709536137,,0.31280628963211465,-1.1641592088861121,-1.1637705717810523,3rd,1st,1st,0.3691593676212837,-1.180943231245616,-1.2974805957916282
mem,resp,653,1,mem2.3.1.bmp,mem3.2.3.bmp,mem2.1.3.bmp,ACC035,"[0, 3, -3]","[3, 0, 3]","[0, -3, 3]",non-match,0.7752551286084112,2,0.6323946718121353,0.06592035265764125,-1.2955758288264168,3rd,3rd,1st,0.3691593676212837,0.2657245154578964,-1.2974805957916282
mem,resp,435,1,mem1.2.3.bmp,mem2.1.1.bmp,mem2.1.1.bmp,ACC035,"[-3, 0, 3]","[0, -3, -3]","[0, -3, -3]",match,1.2928932188134525,,0.304541727904728,-0.1406963994280758,-1.3658929692077195,3rd,2nd,1st,0.3691593676212837,-0.37106227207152487,-1.2974805957916282
mem,resp,1242,1,mem1.2.1.bmp,mem1.3.2.bmp,mem1.2.1.bmp,ACC035,"[-3, 0, -3]","[-3, 3, 0]","[-3, 0, -3]",match,1.591751709536137,,-1.0019243434571874,0.07059673469906466,-1.2721130134625136,1st,3rd,1st,-1.3177718503139921,0.2657245154578964,-1.2974805957916282
mem,resp,1147,1,mem2.3.3.bmp,mem1.3.1.bmp,mem2.2.3.bmp,ACC035,"[0, 3, 3]","[-3, 3, -3]","[0, 0, 3]",non-match,1.0042180842186395,3,-1.0295570567903811,0.5504480646764693,-1.002058009644147,1st,3rd,1st,-1.3177718503139921,0.2657245154578964,-1.2974805957916282
mem,resp,1185,0,mem3.3.2.bmp,mem2.2.1.bmp,mem3.3.3.bmp,ACC035,"[3, 3, 0]","[0, 0, -3]","[3, 3, 3]",non-match,1.0042180842186395,3,-0.8576455151282746,0.9738102487994439,-1.2364571827112032,1st,4th,1st,-1.3177718503139921,1.2896877124163972,-1.2974805957916282
mem,resp,827,1,mem2.1.1.bmp,mem1.1.3.bmp,mem1.2.3.bmp,ACC035,"[0, -3, -3]","[-3, -3, 3]","[-3, 0, 3]",non-match,1.0042180842186395,3,-0.15360404967618657,-0.3460681771365671,-1.028795748687896,2nd,2nd,1st,-0.28699702940152666,-0.37106227207152487,-1.2974805957916282
mem,resp,600,0,mem3.2.2.bmp,mem2.2.2.bmp,mem2.2.3.bmp,ACC035,"[3, 0, 0]","[0, 0, 0]","[0, 0, 3]",non-match,1.3030765749413242,4,-1.587362573425362,-0.3607039364592126,-0.9277955917159947,1st,2nd,1st,-1.3177718503139921,-0.37106227207152487,-1.2974805957916282
mem,resp,643,1,mem2.2.1.bmp,mem3.2.3.bmp,mem1.2.2.bmp,ACC035,"[0, 0, -3]","[3, 0, 3]","[-3, 0, 0]",non-match,0.9462544851682343,3,0.19613674001505285,0.06737127117137376,-0.7557239330860765,3rd,3rd,1st,0.3691593676212837,0.2657245154578964,-1.2974805957916282
mem,resp,815,1,mem2.1.3.bmp,mem2.3.1.bmp,mem2.3.1.bmp,ACC035,"[0, -3, 3]","[0, 3, -3]","[0, 3, -3]",match,1.1835034190722742,,-0.6666943419160076,-1.5187175218144022,-0.6282366134964469,2nd,1st,2nd,-0.28699702940152666,-1.180943231245616,-0.26578944586173536
mem,resp,907,1,mem2.1.1.bmp,mem2.3.2.bmp,mem3.1.3.bmp,ACC035,"[0, -3, -3]","[0, 3, 0]","[3, -3, 3]",non-match,0.6473959944455496,1,-1.127438168828427,-0.09824451572299973,-0.6933656120398787,1st,2nd,1st,-1.3177718503139921,-0.37106227207152487,-1.2974805957916282
mem,resp,680,1,mem3.2.1.bmp,mem2.1.2.bmp,mem2.1.2.bmp,ACC035,"[3, 0, -3]","[0, -3, 0]","[0, -3, 0]",match,1.5,,-0.8104203674373757,0.6936550885772933,-0.6032035287625862,1st,4th,2nd,-1.3177718503139921,1.2896877124163972,-0.26578944586173536
mem,resp,620,1,mem3.1.1.bmp,mem2.2.3.bmp,mem2.2.3.bmp,ACC035,"[3, -3, -3]","[0, 0, 3]","[0, 0, 3]",match,1.2928932188134525,,-0.46528546795897335,-0.280708215865309,-0.6315883859361918,2nd,2nd,2nd,-0.28699702940152666,-0.37106227207152487,-0.26578944586173536
mem,resp,1075,1,mem3.1.2.bmp,mem1.2.2.bmp,mem3.1.2.bmp,ACC035,"[3, -3, 0]","[-3, 0, 0]","[3, -3, 0]",match,1.3545027756320973,,-0.4785500568570929,0.5074737715332654,-0.616553442354145,2nd,3rd,2nd,-0.28699702940152666,0.2657245154578964,-0.26578944586173536
mem,resp,688,1,mem2.3.2.bmp,mem3.2.2.bmp,mem2.3.2.bmp,ACC035,"[0, 3, 0]","[3, 0, 0]","[0, 3, 0]",match,1.591751709536137,,0.003467907024284269,2.0014694609625012,-0.47280835011576716,2nd,4th,2nd,-0.28699702940152666,1.2896877124163972,-0.26578944586173536
mem,resp,850,0,mem1.3.3.bmp,mem3.2.1.bmp,mem2.2.1.bmp,ACC035,"[-3, 3, 3]","[3, 0, -3]","[0, 0, -3]",non-match,1.0042180842186395,3,-1.1231681971010143,1.0084625727221261,-0.35252900100528445,1st,4th,2nd,-1.3177718503139921,1.2896877124163972,-0.26578944586173536
mem,resp,511,1,mem2.2.3.bmp,mem1.1.2.bmp,mem1.1.2.bmp,ACC035,"[0, 0, 3]","[-3, -3, 0]","[-3, -3, 0]",match,1.5,,-0.49419978672993836,0.0263245339856234,-0.10499492895245266,2nd,3rd,2nd,-0.28699702940152666,0.2657245154578964,-0.26578944586173536
mem,resp,914,1,mem1.1.3.bmp,mem2.3.3.bmp,mem1.2.3.bmp,ACC035,"[-3, -3, 3]","[0, 3, 3]","[-3, 0, 3]",non-match,1.3030765749413242,4,-2.1810260280562974,-0.45543519574297014,0.027893390048872375,1st,2nd,2nd,-1.3177718503139921,-0.37106227207152487,-0.26578944586173536
mem,resp,1222,1,mem1.2.2.bmp,mem3.3.1.bmp,mem1.2.2.bmp,ACC035,"[-3, 0, 0]","[3, 3, -3]","[-3, 0, 0]",match,1.2928932188134525,,-0.267685709623552,-1.9393426659927757,0.010788324485385775,2nd,1st,2nd,-0.28699702940152666,-1.180943231245616,-0.26578944586173536
mem,resp,904,1,mem2.3.1.bmp,mem3.1.1.bmp,mem2.2.1.bmp,ACC035,"[0, 3, -3]","[3, -3, -3]","[0, 0, -3]",non-match,1.3030765749413242,4,-1.2946249395787444,-0.4494120906274958,0.25399832539931244,1st,2nd,3rd,-1.3177718503139921,-0.37106227207152487,0.3434763773137444
mem,resp,813,1,mem1.2.1.bmp,mem3.1.2.bmp,mem3.1.2.bmp,ACC035,"[-3, 0, -3]","[3, -3, 0]","[3, -3, 0]",match,1.2928932188134525,,-1.6825861685399266,-0.9622830807609576,0.08814098858463197,1st,1st,3rd,-1.3177718503139921,-1.180943231245616,0.3434763773137444
mem,resp,614,1,mem1.2.3.bmp,mem3.3.3.bmp,mem3.2.1.bmp,ACC035,"[-3, 0, 3]","[3, 3, 3]","[3, 0, -3]",non-match,0.5380061947043713,1,1.0411838203631594,-0.7240132639193593,0.287946600644427,4th,1st,3rd,1.2403423244996363,-1.180943231245616,0.3434763773137444
mem,resp,737,1,mem1.1.2.bmp,mem1.2.2.bmp,mem1.1.2.bmp,ACC035,"[-3, -3, 0]","[-3, 0, 0]","[-3, -3, 0]",match,1.7113248654051871,,-1.301059618573557,-1.3036391272970667,0.3485611519488296,1st,1st,3rd,-1.3177718503139921,-1.180943231245616,0.3434763773137444
mem,resp,1203,0,mem3.2.2.bmp,mem1.3.2.bmp,mem1.3.2.bmp,ACC035,"[3, 0, 0]","[-3, 3, 0]","[-3, 3, 0]",match,1.3545027756320973,,-1.0060174972281681,-1.1276939380219604,0.24313225581730114,1st,1st,3rd,-1.3177718503139921,-1.180943231245616,0.3434763773137444
mem,resp,674,1,mem2.1.2.bmp,mem1.1.3.bmp,mem3.1.1.bmp,ACC035,"[0, -3, 0]","[-3, -3, 3]","[3, -3, -3]",non-match,0.7752551286084112,2,1.693475302445424,-0.3467021222429458,0.1972317975018245,4th,2nd,3rd,1.2403423244996363,-0.37106227207152487,0.3434763773137444
mem,resp,628,1,mem2.2.3.bmp,mem2.3.3.bmp,mem3.1.3.bmp,ACC035,"[0, 0, 3]","[0, 3, 3]","[3, -3, 3]",non-match,0.9462544851682343,3,1.007487029858089,-0.0899847295770195,0.2604076258751827,4th,2nd,3rd,1.2403423244996363,-0.37106227207152487,0.3434763773137444
mem,resp,841,1,mem3.2.1.bmp,mem3.3.1.bmp,mem3.3.3.bmp,ACC035,"[3, 0, -3]","[3, 3, -3]","[3, 3, 3]",non-match,0.7771525064424715,2,-1.3090774231456208,1.5083440735769145,0.44100608336268227,1st,4th,3rd,-1.3177718503139921,1.2896877124163972,0.3434763773137444
mem,resp,792,1,mem2.1.1.bmp,mem1.2.1.bmp,mem2.2.2.bmp,ACC035,"[0, -3, -3]","[-3, 0, -3]","[0, 0, 0]",non-match,1.1835034190722742,4,-0.8360754988958353,-1.2608521591740003,0.41052420781468524,1st,1st,3rd,-1.3177718503139921,-1.180943231245616,0.3434763773137444
mem,resp,584,1,mem2.3.2.bmp,mem1.3.3.bmp,mem1.3.3.bmp,ACC035,"[0, 3, 0]","[-3, 3, 3]","[-3, 3, 3]",match,1.591751709536137,,0.09709575130457693,0.22220915578414138,0.6083856668302875,3rd,3rd,4th,0.3691593676212837,0.2657245154578964,1.2241972076385128
mem,resp,515,1,mem1.3.2.bmp,mem3.1.3.bmp,mem3.1.3.bmp,ACC035,"[-3, 3, 0]","[3, -3, 3]","[3, -3, 3]",match,1.1339745962155614,,-0.1518138696214196,0.2201994847493672,0.41787393914180376,2nd,3rd,3rd,-0.28699702940152666,0.2657245154578964,0.3434763773137444
mem,resp,616,1,mem3.1.2.bmp,mem2.1.3.bmp,mem3.2.2.bmp,ACC035,"[3, -3, 0]","[0, -3, 3]","[3, 0, 0]",non-match,1.2113248654051871,4,1.2907062173465356,0.07080160465578071,0.5005306336790644,4th,3rd,3rd,1.2403423244996363,0.2657245154578964,0.3434763773137444
mem,resp,837,0,mem1.1.1.bmp,mem2.1.2.bmp,mem1.1.1.bmp,ACC035,"[-3, -3, -3]","[0, -3, 0]","[-3, -3, -3]",match,1.591751709536137,,-0.869538907716078,-0.00661023612865396,0.5584786932465595,1st,2nd,4th,-1.3177718503139921,-0.37106227207152487,1.2241972076385128
mem,resp,1332,1,mem3.3.1.bmp,mem2.3.1.bmp,mem2.3.1.bmp,ACC035,"[3, 3, -3]","[0, 3, -3]","[0, 3, -3]",match,1.7113248654051871,,-0.8985175326256581,-0.7663796906544327,0.4487261322935157,1st,1st,3rd,-1.3177718503139921,-1.180943231245616,0.3434763773137444
mem,resp,884,1,mem3.1.3.bmp,mem1.2.3.bmp,mem3.1.3.bmp,ACC035,"[3, -3, 3]","[-3, 0, 3]","[3, -3, 3]",match,1.3545027756320973,,-0.9228183057098331,-0.30850751143102095,0.2937148854212438,1st,2nd,3rd,-1.3177718503139921,-0.37106227207152487,0.3434763773137444
mem,resp,658,0,mem3.3.3.bmp,mem3.3.2.bmp,mem2.3.3.bmp,ACC035,"[3, 3, 3]","[3, 3, 0]","[0, 3, 3]",non-match,1.3030765749413242,4,0.07608749787597749,1.0384622659120875,0.2712496928411388,3rd,4th,3rd,0.3691593676212837,1.2896877124163972,0.3434763773137444
mem,resp,709,1,mem2.1.3.bmp,mem2.2.1.bmp,mem1.3.3.bmp,ACC035,"[0, -3, 3]","[0, 0, -3]","[-3, 3, 3]",non-match,0.6473959944455496,1,0.22162881731531658,-0.6337017173837429,0.19008088017502264,3rd,2nd,3rd,0.3691593676212837,-0.37106227207152487,0.3434763773137444
mem,resp,730,1,mem3.2.3.bmp,mem1.1.2.bmp,mem3.1.2.bmp,ACC035,"[3, 0, 3]","[-3, -3, 0]","[3, -3, 0]",non-match,1.0144014403465114,3,1.1757161014650541,-0.11484763533200328,0.41340669538873304,4th,2nd,3rd,1.2403423244996363,-0.37106227207152487,0.3434763773137444
mem,resp,803,1,mem3.1.1.bmp,mem2.1.1.bmp,mem2.1.1.bmp,ACC035,"[3, -3, -3]","[0, -3, -3]","[0, -3, -3]",match,1.7113248654051871,,0.4528168704382072,-1.1112329682052369,0.4347580448531035,3rd,1st,3rd,0.3691593676212837,-1.180943231245616,0.3434763773137444
mem,resp,705,1,mem1.3.1.bmp,mem3.3.2.bmp,mem3.1.3.bmp,ACC035,"[-3, 3, -3]","[3, 3, 0]","[3, -3, 3]",non-match,0.3545027756320972,1,0.6822283079447098,0.21757526352109888,0.7745678823641861,4th,3rd,4th,1.2403423244996363,0.2657245154578964,1.2241972076385128
mem,resp,684,1,mem2.2.1.bmp,mem2.3.1.bmp,mem3.2.1.bmp,ACC035,"[0, 0, -3]","[0, 3, -3]","[3, 0, -3]",non-match,1.3030765749413242,4,0.866393058662724,-0.11496484028248197,0.7877236635063513,4th,2nd,4th,1.2403423244996363,-0.37106227207152487,1.2241972076385128
mem,resp,656,1,mem2.2.2.bmp,mem2.3.3.bmp,mem3.3.1.bmp,ACC035,"[0, 0, 0]","[0, 3, 3]","[3, 3, -3]",non-match,0.8545027756320972,2,0.7535651420384022,-0.9586559933449184,0.8272650082295023,4th,1st,4th,1.2403423244996363,-1.180943231245616,1.2241972076385128
mem,resp,649,1,mem1.2.2.bmp,mem3.2.2.bmp,mem2.3.2.bmp,ACC035,"[-3, 0, 0]","[3, 0, 0]","[0, 3, 0]",non-match,1.1835034190722742,4,0.4143481281655046,-0.7065167847845637,1.0519469268168802,3rd,2nd,4th,0.3691593676212837,-0.37106227207152487,1.2241972076385128
mem,resp,721,1,mem1.3.3.bmp,mem2.1.3.bmp,mem1.1.2.bmp,ACC035,"[-3, 3, 3]","[0, -3, 3]","[-3, -3, 0]",non-match,0.9462544851682343,3,-0.3312529002041862,-1.055905040542699,0.8683581142211766,2nd,1st,4th,-0.28699702940152666,-1.180943231245616,1.2241972076385128
mem,resp,662,1,mem3.3.2.bmp,mem3.1.2.bmp,mem1.1.1.bmp,ACC035,"[3, 3, 0]","[3, -3, 0]","[-3, -3, -3]",non-match,0.4884773718476586,1,0.4921629115237232,-0.3381403722225153,0.8414123039518658,3rd,2nd,4th,0.3691593676212837,-0.37106227207152487,1.2241972076385128
mem,resp,1015,1,mem1.1.3.bmp,mem2.2.3.bmp,mem1.1.3.bmp,ACC035,"[-3, -3, 3]","[0, 0, 3]","[-3, -3, 3]",match,1.591751709536137,,-0.9743815430484751,0.5690233783808888,1.03747186737306,1st,3rd,4th,-1.3177718503139921,0.2657245154578964,1.2241972076385128
mem,resp,656,1,mem2.3.3.bmp,mem1.3.2.bmp,mem3.2.2.bmp,ACC035,"[0, 3, 3]","[-3, 3, 0]","[3, 0, 0]",non-match,0.8545027756320972,2,0.7400351672873721,0.023521879558816915,1.0755793383893868,4th,3rd,4th,1.2403423244996363,0.2657245154578964,1.2241972076385128
mem,resp,588,1,mem3.2.1.bmp,mem1.2.3.bmp,mem3.2.1.bmp,ACC035,"[3, 0, -3]","[-3, 0, 3]","[3, 0, -3]",match,1.1835034190722742,,-0.6964754997897329,0.12517592920927464,1.1164752582692827,1st,3rd,4th,-1.3177718503139921,0.2657245154578964,1.2241972076385128
mem,resp,609,0,mem2.1.1.bmp,mem2.3.2.bmp,mem2.1.2.bmp,ACC035,"[0, -3, -3]","[0, 3, 0]","[0, -3, 0]",non-match,1.1339745962155614,4,-0.4265211927218904,0.3445099555117478,1.1642555362153217,2nd,3rd,4th,-0.28699702940152666,0.2657245154578964,1.2241972076385128
mem,resp,842,0,mem3.3.3.bmp,mem1.1.3.bmp,mem3.3.3.bmp,ACC035,"[3, 3, 3]","[-3, -3, 3]","[3, 3, 3]",match,1.1835034190722742,,-0.09464911898852425,-0.5008229321688781,1.2787632506983238,2nd,2nd,4th,-0.28699702940152666,-0.37106227207152487,1.2241972076385128
mem,resp,675,1,mem1.3.3.bmp,mem3.3.1.bmp,mem3.2.2.bmp,ACC035,"[-3, 3, 3]","[3, 3, -3]","[3, 0, 0]",non-match,0.8846449283495895,2,0.5606016504935291,-1.3502288410702519,1.3707596720447615,3rd,1st,4th,0.3691593676212837,-1.180943231245616,1.2241972076385128
mem,resp,707,1,mem3.1.1.bmp,mem2.2.2.bmp,mem1.2.1.bmp,ACC035,"[3, -3, -3]","[0, 0, 0]","[-3, 0, -3]",non-match,0.9462544851682343,3,0.9450293523709744,-0.2719190977892161,1.3012676250407897,4th,2nd,4th,1.2403423244996363,-0.37106227207152487,1.2241972076385128
mem,resp,1192,1,mem1.3.1.bmp,mem1.2.2.bmp,mem1.2.2.bmp,ACC035,"[-3, 3, -3]","[-3, 0, 0]","[-3, 0, 0]",match,1.591751709536137,,-1.3903276349930005,-1.8489537486739132,1.351740473560071,1st,1st,4th,-1.3177718503139921,-1.180943231245616,1.2241972076385128
mem,resp,703,1,mem2.3.2.bmp,mem3.3.3.bmp,mem2.3.2.bmp,ACC035,"[0, 3, 0]","[3, 3, 3]","[0, 3, 0]",match,1.591751709536137,,-1.3089157152532631,-0.9242163868590884,1.22126450551093,1st,1st,4th,-1.3177718503139921,-1.180943231245616,1.2241972076385128
mem,resp,753,1,mem3.3.1.bmp,mem3.1.3.bmp,mem3.1.3.bmp,ACC035,"[3, 3, -3]","[3, -3, 3]","[3, -3, 3]",match,1.1835034190722742,,-1.5666471553964667,-0.40582539565037856,1.2540543080580835,1st,2nd,4th,-1.3177718503139921,-0.37106227207152487,1.2241972076385128
mem,resp,612,1,mem2.2.2.bmp,mem2.1.2.bmp,mem2.1.2.bmp,ACC035,"[0, 0, 0]","[0, -3, 0]","[0, -3, 0]",match,1.7113248654051871,,-0.751000229294492,-1.2132385133538186,1.0533010800958558,1st,1st,4th,-1.3177718503139921,-1.180943231245616,1.2241972076385128
mem,resp,847,0,mem1.1.3.bmp,mem1.1.1.bmp,mem1.1.3.bmp,ACC035,"[-3, -3, 3]","[-3, -3, -3]","[-3, -3, 3]",match,1.4226497308103743,,-1.1210401965079517,-0.9512940126355287,0.9332779791589474,1st,1st,4th,-1.3177718503139921,-1.180943231245616,1.2241972076385128
mem,resp,1465,0,mem2.2.1.bmp,mem2.1.1.bmp,mem2.2.1.bmp,ACC035,"[0, 0, -3]","[0, -3, -3]","[0, 0, -3]",match,1.7113248654051871,,-2.1910936121511626,-0.5337945227793093,1.1437976715272895,1st,2nd,4th,-1.3177718503139921,-0.37106227207152487,1.2241972076385128
mem,resp,606,1,mem1.2.2.bmp,mem1.1.2.bmp,mem3.3.2.bmp,ACC035,"[-3, 0, 0]","[-3, -3, 0]","[3, 3, 0]",non-match,0.5380061947043713,1,0.7036378824697586,-0.8691563178626508,1.034597253861675,4th,1st,4th,1.2403423244996363,-1.180943231245616,1.2241972076385128
mem,resp,1261,1,mem2.1.3.bmp,mem3.1.1.bmp,mem3.1.1.bmp,ACC035,"[0, -3, 3]","[3, -3, -3]","[3, -3, -3]",match,1.3545027756320973,,-2.807654530413226,-1.4838630283036436,1.1062944613810641,1st,1st,4th,-1.3177718503139921,-1.180943231245616,1.2241972076385128
mem,resp,572,1,mem3.1.2.bmp,mem2.1.1.bmp,mem2.1.1.bmp,ACC035,"[3, -3, 0]","[0, -3, -3]","[0, -3, -3]",match,1.591751709536137,,-0.5374650745949541,-1.030662322716779,1.0721801748996642,2nd,1st,4th,-0.28699702940152666,-1.180943231245616,1.2241972076385128
mem,resp,684,1,mem3.2.1.bmp,mem1.2.2.bmp,mem1.1.2.bmp,ACC035,"[3, 0, -3]","[-3, 0, 0]","[-3, -3, 0]",non-match,1.0042180842186395,3,0.8812795909426155,-0.3799825992198095,0.8210992637591523,4th,2nd,4th,1.2403423244996363,-0.37106227207152487,1.2241972076385128
mem,resp,603,1,mem2.1.2.bmp,mem1.3.3.bmp,mem2.1.2.bmp,ACC035,"[0, -3, 0]","[-3, 3, 3]","[0, -3, 0]",match,1.2928932188134525,,-0.9961370013673438,-0.17120489577881792,0.7525693029428487,1st,2nd,4th,-1.3177718503139921,-0.37106227207152487,1.2241972076385128
mem,resp,826,1,mem3.2.2.bmp,mem3.1.3.bmp,mem3.1.1.bmp,ACC035,"[3, 0, 0]","[3, -3, 3]","[3, -3, -3]",non-match,1.0144014403465114,3,-1.656916074312485,-0.9502870585968879,0.6715718978571412,1st,1st,4th,-1.3177718503139921,-1.180943231245616,1.2241972076385128
mem,resp,911,1,mem1.3.2.bmp,mem1.2.3.bmp,mem1.2.3.bmp,ACC035,"[-3, 3, 0]","[-3, 0, 3]","[-3, 0, 3]",match,1.591751709536137,,-1.1366131371363823,-1.041455591737056,0.5320108796418992,1st,1st,3rd,-1.3177718503139921,-1.180943231245616,0.3434763773137444
mem,resp,773,1,mem2.1.1.bmp,mem3.3.2.bmp,mem3.3.2.bmp,ACC035,"[0, -3, -3]","[3, 3, 0]","[3, 3, 0]",match,1.2928932188134525,,-1.08184001057214,-1.4254059999921243,0.6120387494508364,1st,1st,4th,-1.3177718503139921,-1.180943231245616,1.2241972076385128
mem,resp,704,1,mem2.3.2.bmp,mem3.2.3.bmp,mem3.1.2.bmp,ACC035,"[0, 3, 0]","[3, 0, 3]","[3, -3, 0]",non-match,0.9462544851682343,3,0.3161186087040273,0.2955946126537347,0.5713277804541906,3rd,3rd,4th,0.3691593676212837,0.2657245154578964,1.2241972076385128
mem,resp,667,1,mem1.1.2.bmp,mem1.1.3.bmp,mem1.1.3.bmp,ACC035,"[-3, -3, 0]","[-3, -3, 3]","[-3, -3, 3]",match,1.7113248654051871,,0.051438380979501666,-0.40110425611768274,0.501282460411292,2nd,2nd,3rd,-0.28699702940152666,-0.37106227207152487,0.3434763773137444
mem,resp,1139,1,mem2.3.3.bmp,mem2.1.3.bmp,mem2.3.3.bmp,ACC035,"[0, 3, 3]","[0, -3, 3]","[0, 3, 3]",match,1.4226497308103743,,-1.2378203374774506,-0.5828911036386468,0.223310031699451,1st,2nd,3rd,-1.3177718503139921,-0.37106227207152487,0.3434763773137444
mem,resp,854,1,mem3.3.2.bmp,mem1.3.2.bmp,mem1.2.1.bmp,ACC035,"[3, 3, 0]","[-3, 3, 0]","[-3, 0, -3]",non-match,0.8846449283495895,2,0.5424798868243935,-0.3112481021365968,0.2211502198554692,3rd,2nd,3rd,0.3691593676212837,-0.37106227207152487,0.3434763773137444
mem,resp,636,1,mem2.2.2.bmp,mem2.2.3.bmp,mem2.2.3.bmp,ACC035,"[0, 0, 0]","[0, 0, 3]","[0, 0, 3]",match,1.7113248654051871,,-2.1703899242780103,-0.32050818837418293,0.3652980492501099,1st,2nd,3rd,-1.3177718503139921,-0.37106227207152487,0.3434763773137444
mem,resp,533,1,mem1.2.2.bmp,mem3.2.1.bmp,mem1.2.2.bmp,ACC035,"[-3, 0, 0]","[3, 0, -3]","[-3, 0, 0]",match,1.3545027756320973,,-1.5526515043487434,-2.105928302965526,0.05365955574495428,1st,1st,2nd,-1.3177718503139921,-1.180943231245616,-0.26578944586173536
mem,resp,686,1,mem3.3.1.bmp,mem1.3.1.bmp,mem1.3.1.bmp,ACC035,"[3, 3, -3]","[-3, 3, -3]","[-3, 3, -3]",match,1.4226497308103743,,-0.4960546705559043,1.338416469326693,-0.16711590728673398,2nd,4th,2nd,-0.28699702940152666,1.2896877124163972,-0.26578944586173536
mem,resp,1331,0,mem3.2.3.bmp,mem3.1.2.bmp,mem3.2.3.bmp,ACC035,"[3, 0, 3]","[3, -3, 0]","[3, 0, 3]",match,1.591751709536137,,-2.7371470106469027,-1.0287334837112427,-0.17170693761720043,1st,1st,2nd,-1.3177718503139921,-1.180943231245616,-0.26578944586173536
mem,resp,937,1,mem3.1.1.bmp,mem3.3.3.bmp,mem3.1.1.bmp,ACC035,"[3, -3, -3]","[3, 3, 3]","[3, -3, -3]",match,1.1835034190722742,,-0.4131933903305333,1.465171832968978,-0.2639431855580785,2nd,4th,2nd,-0.28699702940152666,1.2896877124163972,-0.26578944586173536
mem,resp,657,1,mem1.2.1.bmp,mem1.1.1.bmp,mem1.2.3.bmp,ACC035,"[-3, 0, -3]","[-3, -3, -3]","[-3, 0, 3]",non-match,0.7771525064424715,2,0.9322051030020567,-0.4369702241737009,-0.20616764504184526,4th,2nd,2nd,1.2403423244996363,-0.37106227207152487,-0.26578944586173536
mem,resp,517,1,mem2.3.1.bmp,mem1.1.2.bmp,mem1.1.2.bmp,ACC035,"[0, 3, -3]","[-3, -3, 0]","[-3, -3, 0]",match,1.2928932188134525,,0.5620622775319101,-0.8276785361976219,-0.07904095180033492,3rd,1st,2nd,0.3691593676212837,-1.180943231245616,-0.26578944586173536
mem,resp,982,1,mem3.1.3.bmp,mem3.3.1.bmp,mem3.1.3.bmp,ACC035,"[3, -3, 3]","[3, 3, -3]","[3, -3, 3]",match,1.1835034190722742,,-1.3791641531705052,-1.1707742467428244,-0.04237763781334289,1st,1st,2nd,-1.3177718503139921,-1.180943231245616,-0.26578944586173536
mem,resp,703,1,mem2.2.1.bmp,mem2.3.3.bmp,mem1.3.1.bmp,ACC035,"[0, 0, -3]","[0, 3, 3]","[-3, 3, -3]",non-match,0.9462544851682343,3,-0.010089144398656665,-0.9327220408237912,-0.01403342155485447,2nd,1st,2nd,-0.28699702940152666,-1.180943231245616,-0.26578944586173536
mem,resp,675,0,mem3.3.3.bmp,mem2.2.2.bmp,mem3.3.3.bmp,ACC035,"[3, 3, 3]","[0, 0, 0]","[3, 3, 3]",match,1.5,,-1.8108931368683336,-0.8367693794415443,-0.13078364647921656,1st,1st,2nd,-1.3177718503139921,-1.180943231245616,-0.26578944586173536
mem,resp,566,1,mem1.1.1.bmp,mem1.2.1.bmp,mem3.2.3.bmp,ACC035,"[-3, -3, -3]","[-3, 0, -3]","[3, 0, 3]",non-match,0.3174780152878355,1,1.8963795870496458,-1.6968539781855378,-0.15107461456016963,4th,1st,2nd,1.2403423244996363,-1.180943231245616,-0.26578944586173536
mem,resp,727,1,mem1.2.3.bmp,mem3.3.1.bmp,mem3.3.1.bmp,ACC035,"[-3, 0, 3]","[3, 3, -3]","[3, 3, -3]",match,1.1339745962155614,,-0.34057850980546456,0.2029974502304878,-0.2531711548203398,2nd,3rd,2nd,-0.28699702940152666,0.2657245154578964,-0.26578944586173536
mem,resp,446,1,mem1.1.3.bmp,mem3.3.2.bmp,mem1.1.3.bmp,ACC035,"[-3, -3, 3]","[3, 3, 0]","[-3, -3, 3]",match,1.1339745962155614,,0.41904733120207716,0.5711102710072706,-0.413130714255134,3rd,3rd,2nd,0.3691593676212837,0.2657245154578964,-0.26578944586173536
mem,resp,911,1,mem1.3.1.bmp,mem1.2.2.bmp,mem1.2.2.bmp,ACC035,"[-3, 3, -3]","[-3, 0, 0]","[-3, 0, 0]",match,1.591751709536137,,-1.1497611013714615,-1.1504685785874968,-0.41172003834141924,1st,1st,2nd,-1.3177718503139921,-1.180943231245616,-0.26578944586173536
mem,resp,543,1,mem2.2.3.bmp,mem2.1.1.bmp,mem2.2.3.bmp,ACC035,"[0, 0, 3]","[0, -3, -3]","[0, 0, 3]",match,1.3545027756320973,,-0.7257347598445483,0.018305602819341158,-0.30208986427239426,1st,3rd,2nd,-1.3177718503139921,0.2657245154578964,-0.26578944586173536
mem,resp,470,0,mem1.3.3.bmp,mem2.3.1.bmp,mem1.3.2.bmp,ACC035,"[-3, 3, 3]","[0, 3, -3]","[-3, 3, 0]",non-match,1.3030765749413242,4,0.19680454909255796,0.0827260148338145,-0.2954965608101948,3rd,3rd,2nd,0.3691593676212837,0.2657245154578964,-0.26578944586173536
mem,resp,510,1,mem1.3.3.bmp,mem1.1.1.bmp,mem1.1.1.bmp,ACC035,"[-3, 3, 3]","[-3, -3, -3]","[-3, -3, -3]",match,1.1835034190722742,,0.9131894752026025,0.7823937971929514,-0.23788889099462754,4th,4th,2nd,1.2403423244996363,1.2896877124163972,-0.26578944586173536
mem,resp,612,1,mem2.3.2.bmp,mem3.2.1.bmp,mem2.3.3.bmp,ACC035,"[0, 3, 0]","[3, 0, -3]","[0, 3, 3]",non-match,1.0042180842186395,3,-0.45072279736730897,-0.692205189052039,-0.40852194571955336,2nd,2nd,2nd,-0.28699702940152666,-0.37106227207152487,-0.26578944586173536
mem,resp,745,1,mem1.3.1.bmp,mem3.1.1.bmp,mem1.1.3.bmp,ACC035,"[-3, 3, -3]","[3, -3, -3]","[-3, -3, 3]",non-match,0.36700683814454815,1,0.5882325761974303,-0.7821213777480851,-0.4781051958297727,3rd,1st,2nd,0.3691593676212837,-1.180943231245616,-0.26578944586173536
mem,resp,584,1,mem2.2.1.bmp,mem2.1.2.bmp,mem3.3.1.bmp,ACC035,"[0, 0, -3]","[0, -3, 0]","[3, 3, -3]",non-match,0.8846449283495895,2,1.232869490654457,-0.5818448525226694,-0.5020199294037881,4th,2nd,2nd,1.2403423244996363,-0.37106227207152487,-0.26578944586173536
mem,resp,765,1,mem3.2.2.bmp,mem1.1.2.bmp,mem2.3.1.bmp,ACC035,"[3, 0, 0]","[-3, -3, 0]","[0, 3, -3]",non-match,0.7928932188134524,2,0.1598578023376131,-0.47088225919074167,-0.609043946815099,3rd,2nd,2nd,0.3691593676212837,-0.37106227207152487,-0.26578944586173536
mem,resp,577,1,mem3.3.2.bmp,mem1.2.3.bmp,mem1.2.3.bmp,ACC035,"[3, 3, 0]","[-3, 0, 3]","[-3, 0, 3]",match,1.2928932188134525,,0.1614931453361328,-1.22518276601965,-0.6496548066037774,3rd,1st,1st,0.3691593676212837,-1.180943231245616,-1.2974805957916282
mem,resp,598,1,mem2.2.2.bmp,mem3.3.3.bmp,mem2.2.2.bmp,ACC035,"[0, 0, 0]","[3, 3, 3]","[0, 0, 0]",match,1.5,,-0.07298097771983413,-0.39521787021888116,-0.7391979062518848,2nd,2nd,1st,-0.28699702940152666,-0.37106227207152487,-1.2974805957916282
mem,resp,748,1,mem1.2.1.bmp,mem2.1.3.bmp,mem1.1.1.bmp,ACC035,"[-3, 0, -3]","[0, -3, 3]","[-3, -3, -3]",non-match,1.0658276410372842,3,-0.5128226155273407,-0.27280022360072687,-0.962750384196002,2nd,2nd,1st,-0.28699702940152666,-0.37106227207152487,-1.2974805957916282
mem,resp,629,1,mem3.2.3.bmp,mem3.1.2.bmp,mem1.3.1.bmp,ACC035,"[3, 0, 3]","[3, -3, 0]","[-3, 3, -3]",non-match,0.2679491924311228,1,0.32163176729016996,-0.4912991944693716,-0.8171700466698304,3rd,2nd,1st,0.3691593676212837,-0.37106227207152487,-1.2974805957916282
mem,resp,540,1,mem3.2.1.bmp,mem3.1.3.bmp,mem3.1.3.bmp,ACC035,"[3, 0, -3]","[3, -3, 3]","[3, -3, 3]",match,1.3545027756320973,,-0.34565176481887805,-0.6930938341220835,-0.7529734511904033,2nd,2nd,1st,-0.28699702940152666,-0.37106227207152487,-1.2974805957916282
mem,resp,562,1,mem1.2.2.bmp,mem2.2.3.bmp,mem2.2.1.bmp,ACC035,"[-3, 0, 0]","[0, 0, 3]","[0, 0, -3]",non-match,1.0144014403465114,3,1.638971054587172,-0.4753902337116722,-0.4721910067291418,4th,2nd,2nd,1.2403423244996363,-0.37106227207152487,-0.26578944586173536
mem,resp,623,1,mem2.1.2.bmp,mem1.3.2.bmp,mem1.1.2.bmp,ACC035,"[0, -3, 0]","[-3, 3, 0]","[-3, -3, 0]",non-match,1.1339745962155614,4,0.3605303363939423,-0.8512714033802681,-0.4808989921490152,3rd,1st,2nd,0.3691593676212837,-1.180943231245616,-0.26578944586173536
mem,resp,1238,0,mem1.2.3.bmp,mem2.3.3.bmp,mem1.2.3.bmp,ACC035,"[-3, 0, 3]","[0, 3, 3]","[-3, 0, 3]",match,1.591751709536137,,-1.830659346666072,-1.3731274897249397,-0.5013497927880376,1st,1st,2nd,-1.3177718503139921,-1.180943231245616,-0.26578944586173536
mem,resp,1307,0,mem2.1.3.bmp,mem1.1.1.bmp,mem2.1.3.bmp,ACC035,"[0, -3, 3]","[-3, -3, -3]","[0, -3, 3]",match,1.3545027756320973,,-1.9924319160986328,-0.009657803547701885,-0.3965227386151251,1st,2nd,2nd,-1.3177718503139921,-0.37106227207152487,-0.26578944586173536
mem,resp,609,1,mem3.1.2.bmp,mem3.1.1.bmp,mem1.1.2.bmp,ACC035,"[3, -3, 0]","[3, -3, -3]","[-3, -3, 0]",non-match,0.7771525064424715,2,0.8886477348586671,0.1802816508468098,-0.5482047854722257,4th,3rd,2nd,1.2403423244996363,0.2657245154578964,-0.26578944586173536
mem,resp,832,1,mem2.2.2.bmp,mem3.3.2.bmp,mem1.2.1.bmp,ACC035,"[0, 0, 0]","[3, 3, 0]","[-3, 0, -3]",non-match,0.8846449283495895,2,-1.7595572533209798,-1.3799123971801937,-0.597913853894166,1st,1st,2nd,-1.3177718503139921,-1.180943231245616,-0.26578944586173536
mem,resp,653,1,mem3.3.3.bmp,mem1.1.3.bmp,mem3.3.1.bmp,ACC035,"[3, 3, 3]","[-3, -3, 3]","[3, 3, -3]",non-match,0.42264973081037427,1,1.3788168913436394,-0.7145436529459649,-0.4532574001788537,4th,1st,2nd,1.2403423244996363,-1.180943231245616,-0.26578944586173536
mem,resp,804,1,mem2.1.2.bmp,mem2.3.3.bmp,mem2.3.3.bmp,ACC035,"[0, -3, 0]","[0, 3, 3]","[0, 3, 3]",match,1.3545027756320973,,-0.36611227777417304,0.11499091449538607,-0.4982784889703131,2nd,3rd,2nd,-0.28699702940152666,0.2657245154578964,-0.26578944586173536
mem,resp,766,1,mem2.2.3.bmp,mem2.2.1.bmp,mem3.1.2.bmp,ACC035,"[0, 0, 3]","[0, 0, -3]","[3, -3, 0]",non-match,1.0,3,1.0138867882556664,0.21156033410736383,-0.29274859852417384,4th,3rd,2nd,1.2403423244996363,0.2657245154578964,-0.26578944586173536
mem,resp,578,1,mem2.3.2.bmp,mem2.3.1.bmp,mem1.3.1.bmp,ACC035,"[0, 3, 0]","[0, 3, -3]","[-3, 3, -3]",non-match,1.3030765749413242,4,-0.20371489340328186,0.389972884522993,-0.353216468643497,2nd,3rd,2nd,-0.28699702940152666,0.2657245154578964,-0.26578944586173536
mem,resp,629,1,mem1.3.2.bmp,mem3.2.1.bmp,mem1.3.2.bmp,ACC035,"[-3, 3, 0]","[3, 0, -3]","[-3, 3, 0]",match,1.2928932188134525,,-1.049277312757965,-1.0302176719601543,-0.26102465981170697,1st,1st,2nd,-1.3177718503139921,-1.180943231245616,-0.26578944586173536
mem,resp,560,1,mem3.3.1.bmp,mem2.1.3.bmp,mem1.1.1.bmp,ACC035,"[3, 3, -3]","[0, -3, 3]","[-3, -3, -3]",non-match,0.5380061947043713,1,0.5063125462788746,-0.542955307062926,-0.2923430546983419,3rd,2nd,2nd,0.3691593676212837,-0.37106227207152487,-0.26578944586173536
mem,resp,601,1,mem1.3.3.bmp,mem1.2.2.bmp,mem1.2.2.bmp,ACC035,"[-3, 3, 3]","[-3, 0, 0]","[-3, 0, 0]",match,1.591751709536137,,0.5663396603625555,0.48868809761986703,-0.33414269014142184,3rd,3rd,2nd,0.3691593676212837,0.2657245154578964,-0.26578944586173536
mem,resp,822,1,mem1.2.1.bmp,mem2.3.2.bmp,mem2.3.1.bmp,ACC035,"[-3, 0, -3]","[0, 3, 0]","[0, 3, -3]",non-match,1.3030765749413242,4,0.2395478784449024,-0.22464241620165856,-0.18918774272492353,3rd,2nd,2nd,0.3691593676212837,-0.37106227207152487,-0.26578944586173536
mem,resp,884,1,mem1.1.3.bmp,mem1.1.2.bmp,mem1.1.3.bmp,ACC035,"[-3, -3, 3]","[-3, -3, 0]","[-3, -3, 3]",match,1.7113248654051871,,-1.260957181512008,-1.3977576117678179,-0.1995573693199932,1st,1st,2nd,-1.3177718503139921,-1.180943231245616,-0.26578944586173536
mem,resp,687,1,mem3.3.2.bmp,mem3.2.2.bmp,mem3.2.2.bmp,ACC035,"[3, 3, 0]","[3, 0, 0]","[3, 0, 0]",match,1.7113248654051871,,-1.6229543384339806,-0.7510034037195263,-0.4217708136913382,1st,1st,2nd,-1.3177718503139921,-1.180943231245616,-0.26578944586173536
mem,resp,891,0,mem2.1.1.bmp,mem3.1.3.bmp,mem3.1.3.bmp,ACC035,"[0, -3, -3]","[3, -3, 3]","[3, -3, 3]",match,1.3545027756320973,,-1.149652596846608,-0.26045867360403646,-0.448887313223845,1st,2nd,2nd,-1.3177718503139921,-0.37106227207152487,-0.26578944586173536
mem,resp,652,1,mem1.3.1.bmp,mem1.3.2.bmp,mem1.3.1.bmp,ACC035,"[-3, 3, -3]","[-3, 3, 0]","[-3, 3, -3]",match,1.7113248654051871,,-0.14072240548818463,-0.9758114502345472,-0.4985563032553791,2nd,1st,2nd,-0.28699702940152666,-1.180943231245616,-0.26578944586173536
mem,resp,767,1,mem1.1.1.bmp,mem3.2.3.bmp,mem2.1.3.bmp,ACC035,"[-3, -3, -3]","[3, 0, 3]","[0, -3, 3]",non-match,0.9462544851682343,3,0.8069082158905551,0.07726070741290145,-0.3756469424320247,4th,3rd,2nd,1.2403423244996363,0.2657245154578964,-0.26578944586173536
mem,resp,517,1,mem2.3.1.bmp,mem1.3.3.bmp,mem2.3.1.bmp,ACC035,"[0, 3, -3]","[-3, 3, 3]","[0, 3, -3]",match,1.3545027756320973,,-0.27708148339571415,-0.7879274985458723,0.038878512694849016,2nd,1st,2nd,-0.28699702940152666,-1.180943231245616,-0.26578944586173536
mem,resp,526,1,mem3.2.1.bmp,mem2.1.1.bmp,mem3.2.1.bmp,ACC035,"[3, 0, -3]","[0, -3, -3]","[3, 0, -3]",match,1.591751709536137,,0.2684323900287633,0.04087268797868513,-0.17893564163942574,3rd,3rd,2nd,0.3691593676212837,0.2657245154578964,-0.26578944586173536
mem,resp,789,1,mem3.1.1.bmp,mem2.2.2.bmp,mem3.3.2.bmp,ACC035,"[3, -3, -3]","[0, 0, 0]","[3, 3, 0]",non-match,0.9462544851682343,3,0.9996139260695418,-0.45556672309065555,-0.1834071152924757,4th,2nd,2nd,1.2403423244996363,-0.37106227207152487,-0.26578944586173536
mem,resp,680,1,mem3.1.3.bmp,mem2.1.2.bmp,mem3.3.1.bmp,ACC035,"[3, -3, 3]","[0, -3, 0]","[3, 3, -3]",non-match,0.4763966378857265,1,-0.31507761069467266,-1.0125460716811747,-0.225117412535595,2nd,1st,2nd,-0.28699702940152666,-1.180943231245616,-0.26578944586173536
mem,resp,521,1,mem2.3.3.bmp,mem3.3.3.bmp,mem2.3.3.bmp,ACC035,"[0, 3, 3]","[3, 3, 3]","[0, 3, 3]",match,1.7113248654051871,,1.2186472012384142,0.098717866465351,-0.11959847819423271,4th,3rd,2nd,1.2403423244996363,0.2657245154578964,-0.26578944586173536
mem,resp,590,1,mem1.2.3.bmp,mem2.2.3.bmp,mem3.1.2.bmp,ACC035,"[-3, 0, 3]","[0, 0, 3]","[3, -3, 0]",non-match,0.7928932188134524,2,0.5524720577997639,0.1712603905826522,-0.10781769342599101,3rd,3rd,2nd,0.3691593676212837,0.2657245154578964,-0.26578944586173536
mem,resp,530,1,mem1.2.2.bmp,mem3.3.2.bmp,mem3.3.2.bmp,ACC035,"[-3, 0, 0]","[3, 3, 0]","[3, 3, 0]",match,1.3545027756320973,,-1.0307094266668473,-1.2481394800596814,-0.12694777174311161,1st,1st,2nd,-1.3177718503139921,-1.180943231245616,-0.26578944586173536
mem,resp,531,1,mem2.2.1.bmp,mem1.3.3.bmp,mem2.2.1.bmp,ACC035,"[0, 0, -3]","[-3, 3, 3]","[0, 0, -3]",match,1.2928932188134525,,0.8213229272396362,0.14320758858637506,0.05798553447333129,4th,3rd,2nd,1.2403423244996363,0.2657245154578964,-0.26578944586173536
mem,resp,620,1,mem3.2.2.bmp,mem2.3.3.bmp,mem1.1.1.bmp,ACC035,"[3, 0, 0]","[0, 3, 3]","[-3, -3, -3]",non-match,0.42686781502901383,1,0.8082924972670503,-0.737920311607439,0.08041529317088167,4th,1st,3rd,1.2403423244996363,-1.180943231245616,0.3434763773137444
mem,resp,570,1,mem3.2.3.bmp,mem1.3.1.bmp,mem2.1.1.bmp,ACC035,"[3, 0, 3]","[-3, 3, -3]","[0, -3, -3]",non-match,0.6473959944455496,1,2.237290795714398,-0.3669399678798323,0.037567357569529156,4th,2nd,2nd,1.2403423244996363,-0.37106227207152487,-0.26578944586173536
mem,resp,579,1,mem1.1.2.bmp,mem1.2.2.bmp,mem2.3.2.bmp,ACC035,"[-3, -3, 0]","[-3, 0, 0]","[0, 3, 0]",non-match,0.9462544851682343,3,-0.02465996561397718,-1.763031897528958,0.059784694852805874,2nd,1st,3rd,-0.28699702940152666,-1.180943231245616,0.3434763773137444
mem,resp,952,0,mem1.3.2.bmp,mem2.1.3.bmp,mem3.1.1.bmp,ACC035,"[-3, 3, 0]","[0, -3, 3]","[3, -3, -3]",non-match,0.4884773718476586,1,-1.1188562078037876,-1.064915767877244,0.1580580904243568,1st,1st,3rd,-1.3177718503139921,-1.180943231245616,0.3434763773137444
mem,resp,613,1,mem3.2.2.bmp,mem1.2.1.bmp,mem2.1.2.bmp,ACC035,"[3, 0, 0]","[-3, 0, -3]","[0, -3, 0]",non-match,1.091751709536137,4,0.040941755436965814,0.7972307265197015,0.1901729187515895,2nd,4th,3rd,-0.28699702940152666,1.2896877124163972,0.3434763773137444
mem,resp,593,1,mem1.1.1.bmp,mem2.1.1.bmp,mem2.2.3.bmp,ACC035,"[-3, -3, -3]","[0, -3, -3]","[0, 0, 3]",non-match,0.6473959944455496,1,0.29878559595231574,-1.4902119231980882,0.2849897575041914,3rd,1st,3rd,0.3691593676212837,-1.180943231245616,0.3434763773137444
mem,resp,664,1,mem2.2.1.bmp,mem2.3.2.bmp,mem2.2.1.bmp,ACC035,"[0, 0, -3]","[0, 3, 0]","[0, 0, -3]",match,1.591751709536137,,0.17738660659436242,-0.17206752182727017,0.3337008857868766,3rd,2nd,3rd,0.3691593676212837,-0.37106227207152487,0.3434763773137444
mem,resp,705,1,mem2.3.3.bmp,mem1.1.2.bmp,mem1.1.2.bmp,ACC035,"[0, 3, 3]","[-3, -3, 0]","[-3, -3, 0]",match,1.2928932188134525,,-0.3419788879982404,1.7150847740751285,0.400823569511262,2nd,4th,3rd,-0.28699702940152666,1.2896877124163972,0.3434763773137444
mem,resp,682,0,mem2.2.2.bmp,mem1.3.2.bmp,mem1.3.2.bmp,ACC035,"[0, 0, 0]","[-3, 3, 0]","[-3, 3, 0]",match,1.591751709536137,,-0.2031109501903919,-0.8201281562883045,0.416216272493444,2nd,1st,3rd,-0.28699702940152666,-1.180943231245616,0.3434763773137444
mem,resp,605,1,mem1.1.3.bmp,mem3.2.1.bmp,mem3.2.1.bmp,ACC035,"[-3, -3, 3]","[3, 0, -3]","[3, 0, -3]",match,1.1339745962155614,,1.8713675064130828,-0.7983370168359818,0.3393041922220343,4th,1st,3rd,1.2403423244996363,-1.180943231245616,0.3434763773137444
mem,resp,694,1,mem2.2.3.bmp,mem2.3.1.bmp,mem1.3.1.bmp,ACC035,"[0, 0, 3]","[0, 3, -3]","[-3, 3, -3]",non-match,1.0042180842186395,3,0.767217375896641,-1.4438548887028633,0.5784508109599886,4th,1st,4th,1.2403423244996363,-1.180943231245616,1.2241972076385128
mem,resp,546,1,mem2.3.2.bmp,mem3.3.3.bmp,mem2.1.1.bmp,ACC035,"[0, 3, 0]","[3, 3, 3]","[0, -3, -3]",non-match,0.4884773718476586,1,1.6091509677273204,-0.06729423309507385,0.531753227000852,4th,2nd,3rd,1.2403423244996363,-0.37106227207152487,0.3434763773137444
mem,resp,849,0,mem3.3.1.bmp,mem3.2.3.bmp,mem3.2.2.bmp,ACC035,"[3, 3, -3]","[3, 0, 3]","[3, 0, 0]",non-match,1.3030765749413242,4,-0.5914023715973373,-0.7154445914069454,0.5026726266236154,2nd,1st,3rd,-0.28699702940152666,-1.180943231245616,0.3434763773137444
mem,resp,588,1,mem2.1.2.bmp,mem3.1.2.bmp,mem2.1.2.bmp,ACC035,"[0, -3, 0]","[3, -3, 0]","[0, -3, 0]",match,1.7113248654051871,,-0.12541100879319644,-1.5248070470469248,0.40934584367134697,2nd,1st,3rd,-0.28699702940152666,-1.180943231245616,0.3434763773137444
mem,resp,447,1,mem1.2.1.bmp,mem1.1.3.bmp,mem1.1.3.bmp,ACC035,"[-3, 0, -3]","[-3, -3, 3]","[-3, -3, 3]",match,1.3545027756320973,,1.4999892530405978,-0.43732894054708316,0.29820649792643567,4th,2nd,3rd,1.2403423244996363,-0.37106227207152487,0.3434763773137444
mem,resp,536,1,mem1.2.2.bmp,mem1.3.2.bmp,mem1.3.2.bmp,ACC035,"[-3, 0, 0]","[-3, 3, 0]","[-3, 3, 0]",match,1.7113248654051871,,0.5373049389146087,-1.3693522550127897,0.26144513539461134,3rd,1st,3rd,0.3691593676212837,-1.180943231245616,0.3434763773137444
mem,resp,400,1,mem2.1.2.bmp,mem2.1.1.bmp,mem2.1.1.bmp,ACC035,"[0, -3, 0]","[0, -3, -3]","[0, -3, -3]",match,1.7113248654051871,,0.21083170267770263,-0.8029152904565366,0.12310998510350799,3rd,1st,3rd,0.3691593676212837,-1.180943231245616,0.3434763773137444
mem,resp,568,1,mem1.2.2.bmp,mem1.1.3.bmp,mem1.1.3.bmp,ACC035,"[-3, 0, 0]","[-3, -3, 3]","[-3, -3, 3]",match,1.591751709536137,,1.8135724249895424,1.6957342606218757,-0.019799899670382076,4th,4th,2nd,1.2403423244996363,1.2896877124163972,-0.26578944586173536
mem,resp,645,1,mem1.2.3.bmp,mem3.1.2.bmp,mem1.2.3.bmp,ACC035,"[-3, 0, 3]","[3, -3, 0]","[-3, 0, 3]",match,1.2928932188134525,,-0.8952520737947811,-0.4506482328597774,-0.21646584702921284,1st,2nd,2nd,-1.3177718503139921,-0.37106227207152487,-0.26578944586173536
mem,resp,689,1,mem3.2.2.bmp,mem1.2.1.bmp,mem2.3.3.bmp,ACC035,"[3, 0, 0]","[-3, 0, -3]","[0, 3, 3]",non-match,0.7928932188134524,2,0.5071969701630271,-1.398483324650468,-0.19975306532049256,3rd,1st,2nd,0.3691593676212837,-1.180943231245616,-0.26578944586173536
mem,resp,660,1,mem3.2.1.bmp,mem1.1.2.bmp,mem2.1.3.bmp,ACC035,"[3, 0, -3]","[-3, -3, 0]","[0, -3, 3]",non-match,0.8846449283495895,2,0.27558761121865727,-0.31833804681403394,-0.08756548188691539,3rd,2nd,2nd,0.3691593676212837,-0.37106227207152487,-0.26578944586173536
mem,resp,519,1,mem1.3.1.bmp,mem1.3.2.bmp,mem3.2.3.bmp,ACC035,"[-3, 3, -3]","[-3, 3, 0]","[3, 0, 3]",non-match,0.42686781502901383,1,0.2635419993249667,-1.2062760976881794,-0.11082654976199177,3rd,1st,2nd,0.3691593676212837,-1.180943231245616,-0.26578944586173536
mem,resp,520,1,mem3.3.2.bmp,mem3.3.1.bmp,mem3.3.2.bmp,ACC035,"[3, 3, 0]","[3, 3, -3]","[3, 3, 0]",match,1.7113248654051871,,0.272336166387077,0.5079707587163509,-0.3238456105338103,3rd,3rd,2nd,0.3691593676212837,0.2657245154578964,-0.26578944586173536
mem,resp,943,0,mem3.1.3.bmp,mem3.3.3.bmp,mem2.2.3.bmp,ACC035,"[3, -3, 3]","[3, 3, 3]","[0, 0, 3]",non-match,1.1835034190722742,4,-0.8642479359726842,0.3951454182743319,-0.3268062952402853,1st,3rd,2nd,-1.3177718503139921,0.2657245154578964,-0.26578944586173536
mem,resp,664,1,mem2.2.2.bmp,mem1.2.2.bmp,mem2.2.2.bmp,ACC035,"[0, 0, 0]","[-3, 0, 0]","[0, 0, 0]",match,1.7113248654051871,,0.7976981612621611,-0.1381858622276391,-0.7947831242779444,4th,2nd,1st,1.2403423244996363,-0.37106227207152487,-1.2974805957916282
mem,resp,684,1,mem2.1.3.bmp,mem1.3.3.bmp,mem2.1.3.bmp,ACC035,"[0, -3, 3]","[-3, 3, 3]","[0, -3, 3]",match,1.3545027756320973,,1.2344156098213235,1.9466811594530675,-0.9645162367367577,4th,4th,1st,1.2403423244996363,1.2896877124163972,-1.2974805957916282
mem,resp,535,1,mem2.3.1.bmp,mem2.3.2.bmp,mem2.3.1.bmp,ACC035,"[0, 3, -3]","[0, 3, 0]","[0, 3, -3]",match,1.7113248654051871,,-1.3005322974996463,-2.4247602501828673,-1.0144640124917714,1st,1st,1st,-1.3177718503139921,-1.180943231245616,-1.2974805957916282
mem,resp,516,1,mem1.3.2.bmp,mem2.3.3.bmp,mem1.3.2.bmp,ACC035,"[-3, 3, 0]","[0, 3, 3]","[-3, 3, 0]",match,1.591751709536137,,-0.3174915078098915,-1.57863398748216,-1.1507800600645186,2nd,1st,1st,-0.28699702940152666,-1.180943231245616,-1.2974805957916282
mem,resp,707,0,mem3.3.1.bmp,mem2.2.3.bmp,mem2.2.3.bmp,ACC035,"[3, 3, -3]","[0, 0, 3]","[0, 0, 3]",match,1.2928932188134525,,-0.2615345102963174,-0.08008550636406696,-1.0691819495319035,2nd,2nd,1st,-0.28699702940152666,-0.37106227207152487,-1.2974805957916282
mem,resp,728,1,mem1.2.1.bmp,mem2.2.2.bmp,mem1.1.1.bmp,ACC035,"[-3, 0, -3]","[0, 0, 0]","[-3, -3, -3]",non-match,1.2113248654051871,4,1.0783405631595662,-0.6437194584335832,-1.1210754101831604,4th,2nd,1st,1.2403423244996363,-0.37106227207152487,-1.2974805957916282
mem,resp,640,1,mem1.1.3.bmp,mem3.3.2.bmp,mem3.3.2.bmp,ACC035,"[-3, -3, 3]","[3, 3, 0]","[3, 3, 0]",match,1.1339745962155614,,-0.41014036185883324,0.4248630199159681,-1.3091593291279933,2nd,3rd,1st,-0.28699702940152666,0.2657245154578964,-1.2974805957916282
mem,resp,599,1,mem2.1.1.bmp,mem3.2.1.bmp,mem3.2.1.bmp,ACC035,"[0, -3, -3]","[3, 0, -3]","[3, 0, -3]",match,1.591751709536137,,-0.7973349140648581,-0.09470187077382751,-1.3443000386070723,1st,2nd,1st,-1.3177718503139921,-0.37106227207152487,-1.2974805957916282
mem,resp,640,1,mem3.1.2.bmp,mem1.2.3.bmp,mem1.3.3.bmp,ACC035,"[3, -3, 0]","[-3, 0, 3]","[-3, 3, 3]",non-match,0.8452994616207485,2,0.35880022200242423,-0.02692017116481639,-1.4665597379650654,3rd,2nd,1st,0.3691593676212837,-0.37106227207152487,-1.2974805957916282
mem,resp,611,1,mem3.3.3.bmp,mem2.3.1.bmp,mem3.3.3.bmp,ACC035,"[3, 3, 3]","[0, 3, -3]","[3, 3, 3]",match,1.3545027756320973,,-0.42449298716782286,-0.46438896171028976,-1.4731150845386747,2nd,2nd,1st,-0.28699702940152666,-0.37106227207152487,-1.2974805957916282
mem,resp,582,1,mem3.2.3.bmp,mem3.1.3.bmp,mem3.2.3.bmp,ACC035,"[3, 0, 3]","[3, -3, 3]","[3, 0, 3]",match,1.7113248654051871,,-0.23457277863927245,-0.3687182725230566,-1.5544740409669666,2nd,2nd,1st,-0.28699702940152666,-0.37106227207152487,-1.2974805957916282
mem,resp,580,1,mem2.2.1.bmp,mem3.1.1.bmp,mem1.2.1.bmp,ACC035,"[0, 0, -3]","[3, -3, -3]","[-3, 0, -3]",non-match,1.0658276410372842,3,1.0908771009023375,-1.3006734362487198,-1.6045957262929726,4th,1st,1st,1.2403423244996363,-1.180943231245616,-1.2974805957916282
mem,resp,577,1,mem1.1.1.bmp,mem2.2.2.bmp,mem1.1.1.bmp,ACC035,"[-3, -3, -3]","[0, 0, 0]","[-3, -3, -3]",match,1.5,,-0.14039378136807026,1.0125816941588837,-1.6781403969868216,2nd,4th,1st,-0.28699702940152666,1.2896877124163972,-1.2974805957916282
mem,resp,830,1,mem1.1.2.bmp,mem1.2.3.bmp,mem1.1.2.bmp,ACC035,"[-3, -3, 0]","[-3, 0, 3]","[-3, -3, 0]",match,1.591751709536137,,0.05343133538353269,1.1125899810169377,-1.8293489856054175,2nd,4th,1st,-0.28699702940152666,1.2896877124163972,-1.2974805957916282
mem,resp,650,1,mem2.3.2.bmp,mem2.2.3.bmp,mem2.3.2.bmp,ACC035,"[0, 3, 0]","[0, 0, 3]","[0, 3, 0]",match,1.591751709536137,,0.714920205610518,-0.43336259134720134,-1.9933608047309102,4th,2nd,1st,1.2403423244996363,-0.37106227207152487,-1.2974805957916282
mem,resp,913,1,mem1.3.3.bmp,mem2.1.2.bmp,mem1.2.2.bmp,ACC035,"[-3, 3, 3]","[0, -3, 0]","[-3, 0, 0]",non-match,1.1835034190722742,4,-1.2373114880045974,-0.6898133487184561,-1.8556206788467202,1st,2nd,1st,-1.3177718503139921,-0.37106227207152487,-1.2974805957916282
mem,resp,583,1,mem3.1.1.bmp,mem3.2.2.bmp,mem3.1.1.bmp,ACC035,"[3, -3, -3]","[3, 0, 0]","[3, -3, -3]",match,1.591751709536137,,-0.28551215675063946,-1.6347221062147916,-1.7629332957159423,2nd,1st,1st,-0.28699702940152666,-1.180943231245616,-1.2974805957916282
mem,resp,602,1,mem2.3.3.bmp,mem2.3.1.bmp,mem1.1.1.bmp,ACC035,"[0, 3, 3]","[0, 3, -3]","[-3, -3, -3]",non-match,0.4884773718476586,1,1.7829466580228561,0.46250836679500124,-1.6397630639156768,4th,3rd,1st,1.2403423244996363,0.2657245154578964,-1.2974805957916282
mem,resp,925,1,mem2.2.3.bmp,mem2.1.3.bmp,mem2.1.1.bmp,ACC035,"[0, 0, 3]","[0, -3, 3]","[0, -3, -3]",non-match,0.7771525064424715,2,-0.4678102835258397,0.14041495983761304,-1.6650954238119213,2nd,3rd,1st,-0.28699702940152666,0.2657245154578964,-1.2974805957916282
mem,resp,637,1,mem1.3.2.bmp,mem3.3.3.bmp,mem3.2.3.bmp,ACC035,"[-3, 3, 0]","[3, 3, 3]","[3, 0, 3]",non-match,1.0042180842186395,3,-0.8902163686203501,-1.229167316599316,-1.9828204983911195,1st,1st,1st,-1.3177718503139921,-1.180943231245616,-1.2974805957916282
mem,resp,610,1,mem2.2.2.bmp,mem3.2.1.bmp,mem1.2.1.bmp,ACC035,"[0, 0, 0]","[3, 0, -3]","[-3, 0, -3]",non-match,1.0144014403465114,3,1.3676774853896123,-1.325893864843986,-1.840478441204575,4th,1st,1st,1.2403423244996363,-1.180943231245616,-1.2974805957916282
mem,resp,509,1,mem3.1.2.bmp,mem3.1.3.bmp,mem3.1.3.bmp,ACC035,"[3, -3, 0]","[3, -3, 3]","[3, -3, 3]",match,1.7113248654051871,,-0.3936174347052677,-0.6738021021740351,-1.727265179245486,2nd,2nd,1st,-0.28699702940152666,-0.37106227207152487,-1.2974805957916282
mem,resp,922,1,mem2.1.2.bmp,mem3.3.2.bmp,mem2.1.2.bmp,ACC035,"[0, -3, 0]","[3, 3, 0]","[0, -3, 0]",match,1.3545027756320973,,-1.3186545558248777,-1.8322684244726066,-1.6510738464567052,1st,1st,1st,-1.3177718503139921,-1.180943231245616,-1.2974805957916282
mem,resp,746,0,mem3.1.1.bmp,mem1.3.3.bmp,mem1.3.2.bmp,ACC035,"[3, -3, -3]","[-3, 3, 3]","[-3, 3, 0]",non-match,0.8452994616207485,2,-0.18944136039609277,-0.9506203825535555,-1.7234190262246294,2nd,1st,1st,-0.28699702940152666,-1.180943231245616,-1.2974805957916282
mem,resp,615,1,mem3.2.1.bmp,mem2.1.1.bmp,mem3.2.2.bmp,ACC035,"[3, 0, -3]","[0, -3, -3]","[3, 0, 0]",non-match,1.2113248654051871,4,-1.255444599021372,-1.3319509856528275,-1.8685901300894474,1st,1st,1st,-1.3177718503139921,-1.180943231245616,-1.2974805957916282
mem,resp,586,1,mem1.3.1.bmp,mem1.2.2.bmp,mem1.2.3.bmp,ACC035,"[-3, 3, -3]","[-3, 0, 0]","[-3, 0, 3]",non-match,1.0658276410372842,3,1.2113059960431938,-1.2386190842528566,-2.0013470894132315,4th,1st,1st,1.2403423244996363,-1.180943231245616,-1.2974805957916282
mem,resp,720,1,mem3.1.3.bmp,mem1.2.1.bmp,mem2.3.3.bmp,ACC035,"[3, -3, 3]","[-3, 0, -3]","[0, 3, 3]",non-match,0.6473959944455496,1,0.2986989624115945,-0.6655216679054136,-2.1821803632775905,3rd,2nd,1st,0.3691593676212837,-0.37106227207152487,-1.2974805957916282
mem,resp,729,0,mem3.3.3.bmp,mem1.1.2.bmp,mem3.3.2.bmp,ACC035,"[3, 3, 3]","[-3, -3, 0]","[3, 3, 0]",non-match,0.8948282844774612,2,-0.46324471792684263,-0.31602223453895845,-2.1099336747794317,2nd,2nd,1st,-0.28699702940152666,-0.37106227207152487,-1.2974805957916282
mem,resp,600,1,mem2.3.2.bmp,mem1.1.3.bmp,mem3.1.1.bmp,ACC035,"[0, 3, 0]","[-3, -3, 3]","[3, -3, -3]",non-match,0.4763966378857265,1,0.5856310952878483,-1.3593425404730504,-2.247209767123478,3rd,1st,1st,0.3691593676212837,-1.180943231245616,-1.2974805957916282
mem,resp,1155,1,mem1.2.3.bmp,mem2.2.1.bmp,mem1.3.3.bmp,ACC035,"[-3, 0, 3]","[0, 0, -3]","[-3, 3, 3]",non-match,1.0042180842186395,3,-0.46627448829137874,-0.915815823483893,-2.3158427347377275,2nd,1st,1st,-0.28699702940152666,-1.180943231245616,-1.2974805957916282
mem,resp,637,1,mem3.2.3.bmp,mem3.3.1.bmp,mem3.2.3.bmp,ACC035,"[3, 0, 3]","[3, 3, -3]","[3, 0, 3]",match,1.3545027756320973,,0.2901505416378833,-0.312394132619784,-2.5380225139361374,3rd,2nd,1st,0.3691593676212837,-0.37106227207152487,-1.2974805957916282
mem,resp,608,1,mem1.1.1.bmp,mem1.3.2.bmp,mem3.2.2.bmp,ACC035,"[-3, -3, -3]","[-3, 3, 0]","[3, 0, 0]",non-match,0.6473959944455496,1,1.1219226831217544,-0.9867683824812425,-2.7011714820540242,4th,1st,1st,1.2403423244996363,-1.180943231245616,-1.2974805957916282
