mode,type,rt,acc,item_1,item_2,item_cue,subj_idx,item_1_number,item_2_number,item_cue_number,trial_type,summed_similarity,similarity_bin,ams,pams,slps,ams_quantile,pams_quantile,slps_quantile,ams_bin,pam_bin,slp_bin
mem,resp,0,0,mem1.1.3.bmp,mem1.1.1.bmp,mem1.3.3.bmp,ACC025,"[-3, -3, 3]","[-3, -3, -3]","[-3, 3, 3]",non-match,0.6061531498826483,1,-0.49450037642132094,0.9314125730497448,1.7144346572253724,2nd,4th,4th,-0.30764310534014966,1.2057793136702424,1.2655661666578275
mem,resp,0,0,mem2.3.3.bmp,mem1.3.1.bmp,mem3.1.3.bmp,ACC025,"[0, 3, 3]","[-3, 3, -3]","[3, -3, 3]",non-match,0.3545027756320972,1,-0.7050114742917027,0.0994008210682764,1.69354943519421,1st,3rd,4th,-1.2688227210262983,0.30195642130541334,1.2655661666578275
mem,resp,0,0,mem2.1.2.bmp,mem2.2.2.bmp,mem1.2.1.bmp,ACC025,"[0, -3, 0]","[0, 0, 0]","[-3, 0, -3]",non-match,1.091751709536137,4,-0.6685498108216384,0.7601753796719405,1.5112233913947837,2nd,4th,4th,-0.30764310534014966,1.2057793136702424,1.2655661666578275
mem,resp,1134,1,mem2.3.2.bmp,mem2.2.1.bmp,mem1.2.3.bmp,ACC025,"[0, 3, 0]","[0, 0, -3]","[-3, 0, 3]",non-match,0.8545027756320972,2,1.5403696422668696,3.5925072383750187,1.600660149739353,4th,4th,4th,1.2503952752121033,1.2057793136702424,1.2655661666578275
mem,resp,1488,1,mem1.2.2.bmp,mem3.3.1.bmp,mem2.1.3.bmp,ACC025,"[-3, 0, 0]","[3, 3, -3]","[0, -3, 3]",non-match,0.6339745962155614,1,-0.8553834094519415,0.6110162117124756,1.169820521024477,1st,3rd,4th,-1.2688227210262983,0.30195642130541334,1.2655661666578275
mem,resp,1262,1,mem1.1.1.bmp,mem3.1.2.bmp,mem3.1.2.bmp,ACC025,"[-3, -3, -3]","[3, -3, 0]","[3, -3, 0]",match,1.3545027756320973,,-2.0115123835513007,-0.7604809740711226,1.0369792565645088,1st,1st,4th,-1.2688227210262983,-1.1832784688684475,1.2655661666578275
mem,resp,1334,1,mem1.3.1.bmp,mem2.2.3.bmp,mem2.2.2.bmp,ACC025,"[-3, 3, -3]","[0, 0, 3]","[0, 0, 0]",non-match,1.2113248654051871,4,0.8968106613834635,-0.2668177465815876,1.1607757826585343,4th,2nd,4th,1.2503952752121033,-0.3088878125694661,1.2655661666578275
mem,resp,1548,1,mem3.2.3.bmp,mem1.2.3.bmp,mem1.2.3.bmp,ACC025,"[3, 0, 3]","[-3, 0, 3]","[-3, 0, 3]",match,1.4226497308103743,,-1.066474737473702,0.4432991411869793,1.3946449806395786,1st,3rd,4th,-1.2688227210262983,0.30195642130541334,1.2655661666578275
mem,resp,1058,1,mem2.1.3.bmp,mem3.2.2.bmp,mem2.1.3.bmp,ACC025,"[0, -3, 3]","[3, 0, 0]","[0, -3, 3]",match,1.5,,-1.6494744505703018,0.021830148444132336,1.1586021723974984,1st,3rd,4th,-1.2688227210262983,0.30195642130541334,1.2655661666578275
mem,resp,1057,1,mem1.3.3.bmp,mem2.3.1.bmp,mem3.1.2.bmp,ACC025,"[-3, 3, 3]","[0, 3, -3]","[3, -3, 0]",non-match,0.42686781502901383,1,0.6381230190769681,1.001142160205408,0.8937722598416158,3rd,4th,4th,0.3427655869573223,1.2057793136702424,1.2655661666578275
mem,resp,1258,0,mem2.1.1.bmp,mem1.2.1.bmp,mem2.1.1.bmp,ACC025,"[0, -3, -3]","[-3, 0, -3]","[0, -3, -3]",match,1.591751709536137,,-0.16858979222983,2.139941214535686,0.8555166746117482,2nd,4th,4th,-0.30764310534014966,1.2057793136702424,1.2655661666578275
mem,resp,1148,1,mem2.2.2.bmp,mem3.2.1.bmp,mem2.2.2.bmp,ACC025,"[0, 0, 0]","[3, 0, -3]","[0, 0, 0]",match,1.591751709536137,,-0.6379271914951331,1.2602000754934275,0.6508962293117149,2nd,4th,3rd,-0.30764310534014966,1.2057793136702424,0.39290150473567836
mem,resp,1129,1,mem2.2.1.bmp,mem1.2.2.bmp,mem1.2.2.bmp,ACC025,"[0, 0, -3]","[-3, 0, 0]","[-3, 0, 0]",match,1.591751709536137,,-1.7732794374322436,0.5517601454538755,0.608314402573741,1st,3rd,3rd,-1.2688227210262983,0.30195642130541334,0.39290150473567836
mem,resp,1450,1,mem3.3.3.bmp,mem3.1.3.bmp,mem3.1.3.bmp,ACC025,"[3, 3, 3]","[3, -3, 3]","[3, -3, 3]",match,1.4226497308103743,,0.38775090857240724,0.5290411352046099,0.726436315222541,3rd,3rd,3rd,0.3427655869573223,0.30195642130541334,0.39290150473567836
mem,resp,810,1,mem2.2.3.bmp,mem3.1.1.bmp,mem3.1.1.bmp,ACC025,"[0, 0, 3]","[3, -3, -3]","[3, -3, -3]",match,1.2928932188134525,,0.8740787925541088,-0.00327143375435576,0.9060123333877553,4th,3rd,4th,1.2503952752121033,0.30195642130541334,1.2655661666578275
mem,resp,775,1,mem3.2.1.bmp,mem3.3.2.bmp,mem1.2.3.bmp,ACC025,"[3, 0, -3]","[3, 3, 0]","[-3, 0, 3]",non-match,0.4763966378857265,1,0.6088344802151089,0.4636831155383034,1.2536984911185773,3rd,3rd,4th,0.3427655869573223,0.30195642130541334,1.2655661666578275
mem,resp,1033,1,mem1.2.1.bmp,mem2.1.2.bmp,mem2.3.2.bmp,ACC025,"[-3, 0, -3]","[0, -3, 0]","[0, 3, 0]",non-match,0.9226497308103743,3,0.6551136645375898,1.2090735639622112,1.1905939092879654,3rd,4th,4th,0.3427655869573223,1.2057793136702424,1.2655661666578275
mem,resp,868,1,mem1.3.2.bmp,mem2.1.1.bmp,mem2.1.1.bmp,ACC025,"[-3, 3, 0]","[0, -3, -3]","[0, -3, -3]",match,1.2928932188134525,,-0.8557843954467169,-1.2000686787693493,1.6006970272702175,1st,1st,4th,-1.2688227210262983,-1.1832784688684475,1.2655661666578275
mem,resp,906,1,mem3.1.2.bmp,mem3.2.3.bmp,mem3.1.2.bmp,ACC025,"[3, -3, 0]","[3, 0, 3]","[3, -3, 0]",match,1.591751709536137,,-0.8492874808967754,0.5246446488813992,1.6365673183495413,1st,3rd,4th,-1.2688227210262983,0.30195642130541334,1.2655661666578275
mem,resp,811,1,mem1.1.2.bmp,mem2.1.3.bmp,mem2.1.3.bmp,ACC025,"[-3, -3, 0]","[0, -3, 3]","[0, -3, 3]",match,1.591751709536137,,-1.1115066808403478,-0.3235392114538799,1.8220130538205859,1st,2nd,4th,-1.2688227210262983,-0.3088878125694661,1.2655661666578275
mem,resp,696,1,mem3.2.2.bmp,mem3.3.3.bmp,mem3.2.2.bmp,ACC025,"[3, 0, 0]","[3, 3, 3]","[3, 0, 0]",match,1.591751709536137,,1.5672746036396965,1.5518395501750635,1.4721369625640985,4th,4th,4th,1.2503952752121033,1.2057793136702424,1.2655661666578275
mem,resp,973,1,mem3.1.3.bmp,mem1.2.1.bmp,mem3.2.1.bmp,ACC025,"[3, -3, 3]","[-3, 0, -3]","[3, 0, -3]",non-match,0.7771525064424715,2,-0.8924798803024192,-0.41456768083487444,1.762918102194696,1st,2nd,4th,-1.2688227210262983,-0.3088878125694661,1.2655661666578275
mem,resp,736,1,mem3.1.1.bmp,mem1.2.2.bmp,mem3.3.2.bmp,ACC025,"[3, -3, -3]","[-3, 0, 0]","[3, 3, 0]",non-match,0.7090055512641944,2,1.8178870788532546,-0.3933063609896387,1.791422674621925,4th,2nd,4th,1.2503952752121033,-0.3088878125694661,1.2655661666578275
mem,resp,1358,1,mem3.3.1.bmp,mem1.1.2.bmp,mem2.3.2.bmp,ACC025,"[3, 3, -3]","[-3, -3, 0]","[0, 3, 0]",non-match,0.9462544851682343,3,-0.40533414649195343,0.1480971632225513,1.8952595487998092,2nd,3rd,4th,-0.30764310534014966,0.30195642130541334,1.2655661666578275
mem,resp,870,1,mem2.3.1.bmp,mem1.3.3.bmp,mem2.1.3.bmp,ACC025,"[0, 3, -3]","[-3, 3, 3]","[0, -3, 3]",non-match,0.5380061947043713,1,-0.10358995923557508,-0.7554740530390327,1.8614205397379788,2nd,1st,4th,-0.30764310534014966,-1.1832784688684475,1.2655661666578275
mem,resp,688,1,mem2.3.3.bmp,mem3.1.2.bmp,mem1.3.1.bmp,ACC025,"[0, 3, 3]","[3, -3, 0]","[-3, 3, -3]",non-match,0.4884773718476586,1,0.19525982486232954,-0.6334135031315767,1.8373567576495882,3rd,2nd,4th,0.3427655869573223,-0.3088878125694661,1.2655661666578275
mem,resp,819,1,mem1.3.2.bmp,mem2.2.2.bmp,mem2.2.3.bmp,ACC025,"[-3, 3, 0]","[0, 0, 0]","[0, 0, 3]",non-match,1.2113248654051871,4,0.9150594605994574,1.0795379776628902,1.8972173692755296,4th,4th,4th,1.2503952752121033,1.2057793136702424,1.2655661666578275
mem,resp,615,1,mem3.1.3.bmp,mem3.2.3.bmp,mem3.2.3.bmp,ACC025,"[3, -3, 3]","[3, 0, 3]","[3, 0, 3]",match,1.7113248654051871,,0.08299389081526123,0.45804041132841383,1.62173490651944,3rd,3rd,4th,0.3427655869573223,0.30195642130541334,1.2655661666578275
mem,resp,939,0,mem3.2.2.bmp,mem2.1.3.bmp,mem3.2.2.bmp,ACC025,"[3, 0, 0]","[0, -3, 3]","[3, 0, 0]",match,1.5,,1.707154714876451,1.5863245770423722,1.7747528974082147,4th,4th,4th,1.2503952752121033,1.2057793136702424,1.2655661666578275
mem,resp,872,1,mem3.3.3.bmp,mem1.3.1.bmp,mem3.3.3.bmp,ACC025,"[3, 3, 3]","[-3, 3, -3]","[3, 3, 3]",match,1.1835034190722742,,0.10048703189388192,0.3947298789477162,1.9019581702433617,3rd,3rd,4th,0.3427655869573223,0.30195642130541334,1.2655661666578275
mem,resp,1199,1,mem1.2.3.bmp,mem3.3.1.bmp,mem3.3.1.bmp,ACC025,"[-3, 0, 3]","[3, 3, -3]","[3, 3, -3]",match,1.1339745962155614,,0.4726378424856526,0.6857383424696121,1.9377385214140948,3rd,4th,4th,0.3427655869573223,1.2057793136702424,1.2655661666578275
mem,resp,781,1,mem2.2.1.bmp,mem3.2.1.bmp,mem2.2.1.bmp,ACC025,"[0, 0, -3]","[3, 0, -3]","[0, 0, -3]",match,1.7113248654051871,,0.8295747420762057,0.29482143581934395,2.0138450507538295,4th,3rd,4th,1.2503952752121033,0.30195642130541334,1.2655661666578275
mem,resp,918,1,mem1.3.3.bmp,mem2.3.3.bmp,mem2.1.1.bmp,ACC025,"[-3, 3, 3]","[0, 3, 3]","[0, -3, -3]",non-match,0.3174780152878355,1,-0.38740965101060915,0.17219398244170606,1.9478653134009762,2nd,3rd,4th,-0.30764310534014966,0.30195642130541334,1.2655661666578275
mem,resp,806,0,mem2.1.3.bmp,mem1.1.1.bmp,mem2.1.3.bmp,ACC025,"[0, -3, 3]","[-3, -3, -3]","[0, -3, 3]",match,1.3545027756320973,,0.16113614407009377,0.4022111143598258,1.8514613973403882,3rd,3rd,4th,0.3427655869573223,0.30195642130541334,1.2655661666578275
mem,resp,598,1,mem3.1.2.bmp,mem3.1.1.bmp,mem1.1.2.bmp,ACC025,"[3, -3, 0]","[3, -3, -3]","[-3, -3, 0]",non-match,0.7771525064424715,2,-0.25811612949359575,0.5263346491035026,1.6908053881409542,2nd,3rd,4th,-0.30764310534014966,0.30195642130541334,1.2655661666578275
mem,resp,662,1,mem2.2.2.bmp,mem3.3.2.bmp,mem1.2.1.bmp,ACC025,"[0, 0, 0]","[3, 3, 0]","[-3, 0, -3]",non-match,0.8846449283495895,2,1.0458417285612505,1.1238484516177394,1.6677598923464836,4th,4th,4th,1.2503952752121033,1.2057793136702424,1.2655661666578275
mem,resp,653,1,mem3.3.3.bmp,mem1.1.3.bmp,mem3.3.1.bmp,ACC025,"[3, 3, 3]","[-3, -3, 3]","[3, 3, -3]",non-match,0.42264973081037427,1,0.5359252085840511,0.7492166780319774,1.2820568505156327,3rd,4th,4th,0.3427655869573223,1.2057793136702424,1.2655661666578275
mem,resp,950,1,mem2.1.2.bmp,mem2.3.3.bmp,mem2.3.3.bmp,ACC025,"[0, -3, 0]","[0, 3, 3]","[0, 3, 3]",match,1.3545027756320973,,-0.5106194731161856,0.18408649589859932,1.3832194252358065,2nd,3rd,4th,-0.30764310534014966,0.30195642130541334,1.2655661666578275
mem,resp,706,1,mem2.2.3.bmp,mem2.2.1.bmp,mem3.1.2.bmp,ACC025,"[0, 0, 3]","[0, 0, -3]","[3, -3, 0]",non-match,1.0,3,-0.1948916892762658,-0.1343411854995346,1.329216240068149,2nd,2nd,4th,-0.30764310534014966,-0.3088878125694661,1.2655661666578275
mem,resp,651,1,mem2.3.2.bmp,mem2.3.1.bmp,mem1.3.1.bmp,ACC025,"[0, 3, 0]","[0, 3, -3]","[-3, 3, -3]",non-match,1.3030765749413242,4,0.6572943220447373,-0.25906286432036846,1.6031733450993482,3rd,2nd,4th,0.3427655869573223,-0.3088878125694661,1.2655661666578275
mem,resp,775,1,mem1.3.2.bmp,mem3.2.1.bmp,mem1.3.2.bmp,ACC025,"[-3, 3, 0]","[3, 0, -3]","[-3, 3, 0]",match,1.2928932188134525,,-0.6867589326459841,1.0268699355132478,1.400876173857569,1st,4th,4th,-1.2688227210262983,1.2057793136702424,1.2655661666578275
mem,resp,670,1,mem3.3.1.bmp,mem2.1.3.bmp,mem1.1.1.bmp,ACC025,"[3, 3, -3]","[0, -3, 3]","[-3, -3, -3]",non-match,0.5380061947043713,1,0.24188260721016552,-0.6841987616671548,1.4606632824698507,3rd,1st,4th,0.3427655869573223,-1.1832784688684475,1.2655661666578275
mem,resp,742,1,mem1.3.3.bmp,mem1.2.2.bmp,mem1.2.2.bmp,ACC025,"[-3, 3, 3]","[-3, 0, 0]","[-3, 0, 0]",match,1.591751709536137,,-0.7969669769307377,1.147997379432811,1.3936958143689768,1st,4th,4th,-1.2688227210262983,1.2057793136702424,1.2655661666578275
mem,resp,852,1,mem1.2.1.bmp,mem2.3.2.bmp,mem2.3.1.bmp,ACC025,"[-3, 0, -3]","[0, 3, 0]","[0, 3, -3]",non-match,1.3030765749413242,4,1.1480180852993127,0.20082796278011478,1.1524234375503573,4th,3rd,4th,1.2503952752121033,0.30195642130541334,1.2655661666578275
mem,resp,741,1,mem1.1.3.bmp,mem1.1.2.bmp,mem1.1.3.bmp,ACC025,"[-3, -3, 3]","[-3, -3, 0]","[-3, -3, 3]",match,1.7113248654051871,,0.39194830841087014,0.7606266192445901,1.0328652742360012,3rd,4th,4th,0.3427655869573223,1.2057793136702424,1.2655661666578275
mem,resp,807,1,mem3.3.2.bmp,mem3.2.2.bmp,mem3.2.2.bmp,ACC025,"[3, 3, 0]","[3, 0, 0]","[3, 0, 0]",match,1.7113248654051871,,0.690843037878333,-1.2046313609787567,1.0913893237736032,3rd,1st,4th,0.3427655869573223,-1.1832784688684475,1.2655661666578275
mem,resp,850,1,mem2.1.1.bmp,mem3.1.3.bmp,mem3.1.3.bmp,ACC025,"[0, -3, -3]","[3, -3, 3]","[3, -3, 3]",match,1.3545027756320973,,0.8078419986263589,-0.004094522477018384,1.1970351443277054,4th,3rd,4th,1.2503952752121033,0.30195642130541334,1.2655661666578275
mem,resp,492,1,mem1.3.1.bmp,mem1.3.2.bmp,mem1.3.1.bmp,ACC025,"[-3, 3, -3]","[-3, 3, 0]","[-3, 3, -3]",match,1.7113248654051871,,0.44157535857174723,-0.047525165192214766,1.1278425582040805,3rd,2nd,4th,0.3427655869573223,-0.3088878125694661,1.2655661666578275
mem,resp,761,0,mem1.1.1.bmp,mem3.2.3.bmp,mem2.1.3.bmp,ACC025,"[-3, -3, -3]","[3, 0, 3]","[0, -3, 3]",non-match,0.9462544851682343,3,0.10280614014212691,0.3271152624713149,1.0658272936273647,3rd,3rd,4th,0.3427655869573223,0.30195642130541334,1.2655661666578275
mem,resp,1075,1,mem2.3.1.bmp,mem1.3.3.bmp,mem2.3.1.bmp,ACC025,"[0, 3, -3]","[-3, 3, 3]","[0, 3, -3]",match,1.3545027756320973,,-0.11275558485810937,0.422689178790702,1.1484439309851933,2nd,3rd,4th,-0.30764310534014966,0.30195642130541334,1.2655661666578275
mem,resp,901,0,mem3.2.1.bmp,mem2.1.1.bmp,mem3.2.1.bmp,ACC025,"[3, 0, -3]","[0, -3, -3]","[3, 0, -3]",match,1.591751709536137,,0.841821204413532,1.6360693208234451,0.9360042388168605,4th,4th,4th,1.2503952752121033,1.2057793136702424,1.2655661666578275
mem,resp,809,0,mem3.1.1.bmp,mem2.2.2.bmp,mem3.3.2.bmp,ACC025,"[3, -3, -3]","[0, 0, 0]","[3, 3, 0]",non-match,0.9462544851682343,3,-0.28148254390804384,2.0636054358453966,0.8051561307476965,2nd,4th,4th,-0.30764310534014966,1.2057793136702424,1.2655661666578275
mem,resp,852,1,mem3.1.3.bmp,mem2.1.2.bmp,mem3.3.1.bmp,ACC025,"[3, -3, 3]","[0, -3, 0]","[3, 3, -3]",non-match,0.4763966378857265,1,0.1766363701157547,-0.07936167600416726,0.6856313945090758,3rd,2nd,3rd,0.3427655869573223,-0.3088878125694661,0.39290150473567836
mem,resp,906,1,mem2.3.3.bmp,mem3.3.3.bmp,mem2.3.3.bmp,ACC025,"[0, 3, 3]","[3, 3, 3]","[0, 3, 3]",match,1.7113248654051871,,0.32035645810302643,-0.008218159844814003,0.5307742093437536,3rd,3rd,3rd,0.3427655869573223,0.30195642130541334,0.39290150473567836
mem,resp,612,1,mem1.2.3.bmp,mem2.2.3.bmp,mem3.1.2.bmp,ACC025,"[-3, 0, 3]","[0, 0, 3]","[3, -3, 0]",non-match,0.7928932188134524,2,-0.3883150722010742,0.5323828060632461,0.33184703482238537,2nd,3rd,3rd,-0.30764310534014966,0.30195642130541334,0.39290150473567836
mem,resp,828,1,mem1.2.2.bmp,mem3.3.2.bmp,mem3.3.2.bmp,ACC025,"[-3, 0, 0]","[3, 3, 0]","[3, 3, 0]",match,1.3545027756320973,,0.11430016675479322,1.496992644474135,0.6293556369614064,3rd,4th,3rd,0.3427655869573223,1.2057793136702424,0.39290150473567836
mem,resp,951,1,mem2.2.1.bmp,mem1.3.3.bmp,mem2.2.1.bmp,ACC025,"[0, 0, -3]","[-3, 3, 3]","[0, 0, -3]",match,1.2928932188134525,,-1.3730413590871744,0.4858201850900607,0.6923086657139631,1st,3rd,3rd,-1.2688227210262983,0.30195642130541334,0.39290150473567836
mem,resp,1340,1,mem3.2.2.bmp,mem2.3.3.bmp,mem1.1.1.bmp,ACC025,"[3, 0, 0]","[0, 3, 3]","[-3, -3, -3]",non-match,0.42686781502901383,1,-0.22873633210742328,-0.9094675361426408,0.6884079919459996,2nd,1st,3rd,-0.30764310534014966,-1.1832784688684475,0.39290150473567836
mem,resp,797,1,mem3.2.3.bmp,mem1.3.1.bmp,mem2.1.1.bmp,ACC025,"[3, 0, 3]","[-3, 3, -3]","[0, -3, -3]",non-match,0.6473959944455496,1,-0.23695884455341856,-0.5171498964228659,0.324768414275543,2nd,2nd,3rd,-0.30764310534014966,-0.3088878125694661,0.39290150473567836
mem,resp,901,1,mem1.1.2.bmp,mem1.2.2.bmp,mem2.3.2.bmp,ACC025,"[-3, -3, 0]","[-3, 0, 0]","[0, 3, 0]",non-match,0.9462544851682343,3,0.4204314134296769,-0.7807256545962591,0.3856076618742735,3rd,1st,3rd,0.3427655869573223,-1.1832784688684475,0.39290150473567836
mem,resp,644,1,mem1.3.2.bmp,mem2.1.3.bmp,mem3.1.1.bmp,ACC025,"[-3, 3, 0]","[0, -3, 3]","[3, -3, -3]",non-match,0.4884773718476586,1,0.6867667426164935,1.2110336818882361,0.44283425298142326,3rd,4th,3rd,0.3427655869573223,1.2057793136702424,0.39290150473567836
mem,resp,1071,0,mem3.2.2.bmp,mem1.2.1.bmp,mem2.1.2.bmp,ACC025,"[3, 0, 0]","[-3, 0, -3]","[0, -3, 0]",non-match,1.091751709536137,4,-0.7960329960825014,-0.10273409981306635,0.6185036533138029,1st,2nd,3rd,-1.2688227210262983,-0.3088878125694661,0.39290150473567836
mem,resp,735,1,mem1.1.1.bmp,mem2.1.1.bmp,mem2.2.3.bmp,ACC025,"[-3, -3, -3]","[0, -3, -3]","[0, 0, 3]",non-match,0.6473959944455496,1,-1.3210328807979888,0.03773266079374517,0.6087993704348877,1st,3rd,3rd,-1.2688227210262983,0.30195642130541334,0.39290150473567836
mem,resp,813,1,mem2.2.1.bmp,mem2.3.2.bmp,mem2.2.1.bmp,ACC025,"[0, 0, -3]","[0, 3, 0]","[0, 0, -3]",match,1.591751709536137,,0.8748581392244086,-0.7078056741576791,0.637275592544426,4th,1st,3rd,1.2503952752121033,-1.1832784688684475,0.39290150473567836
mem,resp,802,1,mem2.3.3.bmp,mem1.1.2.bmp,mem1.1.2.bmp,ACC025,"[0, 3, 3]","[-3, -3, 0]","[-3, -3, 0]",match,1.2928932188134525,,-1.1653809036296587,0.705537767624811,0.4921058488062356,1st,4th,3rd,-1.2688227210262983,1.2057793136702424,0.39290150473567836
mem,resp,813,1,mem2.2.2.bmp,mem1.3.2.bmp,mem1.3.2.bmp,ACC025,"[0, 0, 0]","[-3, 3, 0]","[-3, 3, 0]",match,1.591751709536137,,-0.048354693693924956,-0.5720555700632418,0.31713234673141727,2nd,2nd,3rd,-0.30764310534014966,-0.3088878125694661,0.39290150473567836
mem,resp,862,1,mem1.1.3.bmp,mem3.2.1.bmp,mem3.2.1.bmp,ACC025,"[-3, -3, 3]","[3, 0, -3]","[3, 0, -3]",match,1.1339745962155614,,-0.4542019877507799,-0.8225458562971929,-0.061852419321686766,2nd,1st,2nd,-0.30764310534014966,-1.1832784688684475,-0.337735929139258
mem,resp,1371,1,mem2.2.3.bmp,mem2.3.1.bmp,mem1.3.1.bmp,ACC025,"[0, 0, 3]","[0, 3, -3]","[-3, 3, -3]",non-match,1.0042180842186395,3,0.30953255600198154,0.7160336909217678,-0.1665845814479534,3rd,4th,2nd,0.3427655869573223,1.2057793136702424,-0.337735929139258
mem,resp,757,1,mem2.3.2.bmp,mem3.3.3.bmp,mem2.1.1.bmp,ACC025,"[0, 3, 0]","[3, 3, 3]","[0, -3, -3]",non-match,0.4884773718476586,1,0.6925742334535667,0.17816096906210901,-0.5802623194017276,4th,3rd,2nd,1.2503952752121033,0.30195642130541334,-0.337735929139258
mem,resp,962,0,mem3.3.1.bmp,mem3.2.3.bmp,mem3.2.2.bmp,ACC025,"[3, 3, -3]","[3, 0, 3]","[3, 0, 0]",non-match,1.3030765749413242,4,-1.5982131108524866,-0.3948069842120945,-0.5480732463856454,1st,2nd,2nd,-1.2688227210262983,-0.3088878125694661,-0.337735929139258
mem,resp,898,1,mem2.1.2.bmp,mem3.1.2.bmp,mem2.1.2.bmp,ACC025,"[0, -3, 0]","[3, -3, 0]","[0, -3, 0]",match,1.7113248654051871,,0.08337553553216955,-0.4133961580733198,-1.0217690696492219,3rd,2nd,1st,0.3427655869573223,-0.3088878125694661,-1.3035793819652324
mem,resp,633,1,mem1.2.1.bmp,mem1.1.3.bmp,mem1.1.3.bmp,ACC025,"[-3, 0, -3]","[-3, -3, 3]","[-3, -3, 3]",match,1.3545027756320973,,1.1256176106941886,1.489369015725717,-0.6579391506297202,4th,4th,2nd,1.2503952752121033,1.2057793136702424,-0.337735929139258
mem,resp,938,1,mem2.3.2.bmp,mem3.3.3.bmp,mem3.3.3.bmp,ACC025,"[0, 3, 0]","[3, 3, 3]","[3, 3, 3]",match,1.591751709536137,,0.061979394482228875,-0.06557585287408176,-0.8749668619217889,3rd,2nd,1st,0.3427655869573223,-0.3088878125694661,-1.3035793819652324
mem,resp,601,0,mem2.2.3.bmp,mem1.2.1.bmp,mem2.2.3.bmp,ACC025,"[0, 0, 3]","[-3, 0, -3]","[0, 0, 3]",match,1.3545027756320973,,1.3993716305383543,0.5443073273325906,-1.1073831810283408,4th,3rd,1st,1.2503952752121033,0.30195642130541334,-1.3035793819652324
mem,resp,744,0,mem3.2.2.bmp,mem1.3.2.bmp,mem2.2.1.bmp,ACC025,"[3, 0, 0]","[-3, 3, 0]","[0, 0, -3]",non-match,1.091751709536137,4,0.11154871183526703,1.005919640767904,-1.0937088185638637,3rd,4th,1st,0.3427655869573223,1.2057793136702424,-1.3035793819652324
mem,resp,700,1,mem1.1.2.bmp,mem2.3.3.bmp,mem2.3.3.bmp,ACC025,"[-3, -3, 0]","[0, 3, 3]","[0, 3, 3]",match,1.2928932188134525,,-0.2034808810009168,0.2597081597320083,-1.0881305817616513,2nd,3rd,1st,-0.30764310534014966,0.30195642130541334,-1.3035793819652324
mem,resp,733,1,mem1.1.3.bmp,mem1.2.2.bmp,mem1.1.3.bmp,ACC025,"[-3, -3, 3]","[-3, 0, 0]","[-3, -3, 3]",match,1.591751709536137,,0.6934182884932723,-0.24298005868394135,-1.2833478105376936,4th,2nd,1st,1.2503952752121033,-0.3088878125694661,-1.3035793819652324
mem,resp,616,1,mem1.2.1.bmp,mem1.2.3.bmp,mem1.2.3.bmp,ACC025,"[-3, 0, -3]","[-3, 0, 3]","[-3, 0, 3]",match,1.4226497308103743,,-0.04479410093632618,1.8768877545061111,-1.4616505404874036,2nd,4th,1st,-0.30764310534014966,1.2057793136702424,-1.3035793819652324
mem,resp,659,1,mem3.3.2.bmp,mem3.1.3.bmp,mem3.1.3.bmp,ACC025,"[3, 3, 0]","[3, -3, 3]","[3, -3, 3]",match,1.3545027756320973,,1.043428519394797,-1.1158968282983646,-0.9414995746898034,4th,1st,1st,1.2503952752121033,-1.1832784688684475,-1.3035793819652324
mem,resp,573,1,mem2.1.2.bmp,mem2.2.2.bmp,mem2.1.2.bmp,ACC025,"[0, -3, 0]","[0, 0, 0]","[0, -3, 0]",match,1.7113248654051871,,1.1789470008468352,0.9246860836965136,-1.0543286994186987,4th,4th,1st,1.2503952752121033,1.2057793136702424,-1.3035793819652324
mem,resp,1067,0,mem2.3.1.bmp,mem3.1.1.bmp,mem2.3.1.bmp,ACC025,"[0, 3, -3]","[3, -3, -3]","[0, 3, -3]",match,1.3545027756320973,,-1.3123734607792519,1.164144108629482,-1.1389092934528406,1st,4th,1st,-1.2688227210262983,1.2057793136702424,-1.3035793819652324
mem,resp,546,1,mem1.3.1.bmp,mem3.2.2.bmp,mem1.3.1.bmp,ACC025,"[-3, 3, -3]","[3, 0, 0]","[-3, 3, -3]",match,1.2928932188134525,,0.8573885436542278,-1.1028145172454829,-1.4136230722168566,4th,1st,1st,1.2503952752121033,-1.1832784688684475,-1.3035793819652324
mem,resp,868,1,mem2.1.3.bmp,mem3.2.3.bmp,mem1.3.3.bmp,ACC025,"[0, -3, 3]","[3, 0, 3]","[-3, 3, 3]",non-match,0.7090055512641944,2,1.1839198774961937,-0.7745573379148956,-1.5911159190679909,4th,1st,1st,1.2503952752121033,-1.1832784688684475,-1.3035793819652324
mem,resp,839,1,mem3.1.3.bmp,mem1.1.1.bmp,mem1.2.1.bmp,ACC025,"[3, -3, 3]","[-3, -3, -3]","[-3, 0, -3]",non-match,0.8452994616207485,2,0.17788727749544808,-0.050822246068596796,-1.9382792948875485,3rd,2nd,1st,0.3427655869573223,-0.3088878125694661,-1.3035793819652324
mem,resp,583,1,mem3.1.1.bmp,mem2.1.1.bmp,mem2.1.1.bmp,ACC025,"[3, -3, -3]","[0, -3, -3]","[0, -3, -3]",match,1.7113248654051871,,-0.06491487699846633,-0.16666385907739556,-1.9754648518215556,2nd,2nd,1st,-0.30764310534014966,-0.3088878125694661,-1.3035793819652324
mem,resp,1046,1,mem3.3.3.bmp,mem2.2.1.bmp,mem2.2.1.bmp,ACC025,"[3, 3, 3]","[0, 0, -3]","[0, 0, -3]",match,1.2928932188134525,,-1.0326818924558614,-1.1756805477950047,-1.9870608509356398,1st,1st,1st,-1.2688227210262983,-1.1832784688684475,-1.3035793819652324
mem,resp,949,1,mem3.1.2.bmp,mem1.3.3.bmp,mem2.1.2.bmp,ACC025,"[3, -3, 0]","[-3, 3, 3]","[0, -3, 0]",non-match,1.0042180842186395,3,-1.840431177800611,-0.9619267142735497,-1.6632267620585601,1st,1st,1st,-1.2688227210262983,-1.1832784688684475,-1.3035793819652324
mem,resp,760,1,mem1.3.2.bmp,mem3.2.2.bmp,mem1.1.1.bmp,ACC025,"[-3, 3, 0]","[3, 0, 0]","[-3, -3, -3]",non-match,0.6473959944455496,1,0.9779193046866045,-1.6975714282588523,-1.5221837140488617,4th,1st,1st,1.2503952752121033,-1.1832784688684475,-1.3035793819652324
mem,resp,704,1,mem3.3.1.bmp,mem2.3.1.bmp,mem3.3.1.bmp,ACC025,"[3, 3, -3]","[0, 3, -3]","[3, 3, -3]",match,1.7113248654051871,,0.1486794945149081,1.257459065145909,-1.8748585305168157,3rd,4th,1st,0.3427655869573223,1.2057793136702424,-1.3035793819652324
mem,resp,1163,1,mem2.3.3.bmp,mem3.1.3.bmp,mem3.1.3.bmp,ACC025,"[0, 3, 3]","[3, -3, 3]","[3, -3, 3]",match,1.3545027756320973,,-0.2631098896575231,-0.8521426948518467,-1.6413770292929775,2nd,1st,1st,-0.30764310534014966,-1.1832784688684475,-1.3035793819652324
mem,resp,959,1,mem3.2.3.bmp,mem3.1.1.bmp,mem3.2.3.bmp,ACC025,"[3, 0, 3]","[3, -3, -3]","[3, 0, 3]",match,1.3545027756320973,,-1.2988552215402462,-1.1303352364061698,-1.7503177456482628,1st,1st,1st,-1.2688227210262983,-1.1832784688684475,-1.3035793819652324
mem,resp,1298,1,mem2.1.1.bmp,mem3.2.1.bmp,mem1.2.1.bmp,ACC025,"[0, -3, -3]","[3, 0, -3]","[-3, 0, -3]",non-match,1.0144014403465114,3,-0.7047643004092289,-1.56502317949714,-1.7436814026112026,1st,1st,1st,-1.2688227210262983,-1.1832784688684475,-1.3035793819652324
mem,resp,1143,1,mem1.3.3.bmp,mem1.1.2.bmp,mem1.3.2.bmp,ACC025,"[-3, 3, 3]","[-3, -3, 0]","[-3, 3, 0]",non-match,1.1339745962155614,4,-0.46767517607087,0.40447498427783163,-1.951019060908411,2nd,3rd,1st,-0.30764310534014966,0.30195642130541334,-1.3035793819652324
mem,resp,768,1,mem1.2.3.bmp,mem3.3.1.bmp,mem1.1.3.bmp,ACC025,"[-3, 0, 3]","[3, 3, -3]","[-3, -3, 3]",non-match,0.7113248654051871,2,0.2053501750820989,-0.9331167063107721,-1.87158736517339,3rd,1st,1st,0.3427655869573223,-1.1832784688684475,-1.3035793819652324
mem,resp,662,1,mem2.2.1.bmp,mem1.3.1.bmp,mem2.2.3.bmp,ACC025,"[0, 0, -3]","[-3, 3, -3]","[0, 0, 3]",non-match,0.7155429496238267,2,0.4572569765636156,-0.15779901462200024,-1.8614267076770832,3rd,2nd,1st,0.3427655869573223,-0.3088878125694661,-1.3035793819652324
mem,resp,664,1,mem1.1.1.bmp,mem3.3.2.bmp,mem3.2.3.bmp,ACC025,"[-3, -3, -3]","[3, 3, 0]","[3, 0, 3]",non-match,0.7257263057516985,2,0.9457987125053852,-0.015778141226959894,-1.683782527354932,4th,2nd,1st,1.2503952752121033,-0.3088878125694661,-1.3035793819652324
mem,resp,739,1,mem2.2.2.bmp,mem2.1.3.bmp,mem2.1.3.bmp,ACC025,"[0, 0, 0]","[0, -3, 3]","[0, -3, 3]",match,1.591751709536137,,-0.8439691141919016,-0.23948847587533295,-1.860861802152406,1st,2nd,1st,-1.2688227210262983,-0.3088878125694661,-1.3035793819652324
mem,resp,762,1,mem1.2.2.bmp,mem2.3.2.bmp,mem1.2.2.bmp,ACC025,"[-3, 0, 0]","[0, 3, 0]","[-3, 0, 0]",match,1.591751709536137,,0.07508689709267094,-0.8614362383830123,-2.183790895535179,3rd,1st,1st,0.3427655869573223,-1.1832784688684475,-1.3035793819652324
mem,resp,991,0,mem3.3.3.bmp,mem1.1.3.bmp,mem3.3.3.bmp,ACC025,"[3, 3, 3]","[-3, -3, 3]","[3, 3, 3]",match,1.1835034190722742,,0.36277249621353236,-0.10353162524927562,-2.3540181591612552,3rd,2nd,1st,0.3427655869573223,-0.3088878125694661,-1.3035793819652324
mem,resp,703,1,mem3.3.1.bmp,mem3.2.3.bmp,mem3.2.3.bmp,ACC025,"[3, 3, -3]","[3, 0, 3]","[3, 0, 3]",match,1.3545027756320973,,-0.08217942601803975,-0.3996745346974498,-2.169542597864913,2nd,2nd,1st,-0.30764310534014966,-0.3088878125694661,-1.3035793819652324
mem,resp,758,1,mem1.1.2.bmp,mem2.2.1.bmp,mem3.1.3.bmp,ACC025,"[-3, -3, 0]","[0, 0, -3]","[3, -3, 3]",non-match,0.6473959944455496,1,1.1519515791576453,-0.7410922953835608,-1.910182949316998,4th,1st,1st,1.2503952752121033,-1.1832784688684475,-1.3035793819652324
mem,resp,983,1,mem1.3.2.bmp,mem2.2.3.bmp,mem2.2.3.bmp,ACC025,"[-3, 3, 0]","[0, 0, 3]","[0, 0, 3]",match,1.5,,-1.0323715973048342,-0.5556904021234991,-1.9057795641201674,1st,2nd,1st,-1.2688227210262983,-0.3088878125694661,-1.3035793819652324
mem,resp,655,1,mem1.1.3.bmp,mem2.1.2.bmp,mem1.1.3.bmp,ACC025,"[-3, -3, 3]","[0, -3, 0]","[-3, -3, 3]",match,1.591751709536137,,0.0036717588425252607,1.165453083924082,-1.6923707565642974,2nd,4th,1st,-0.30764310534014966,1.2057793136702424,-1.3035793819652324
mem,resp,940,1,mem3.2.3.bmp,mem1.3.3.bmp,mem2.2.2.bmp,ACC025,"[3, 0, 3]","[-3, 3, 3]","[0, 0, 0]",non-match,1.091751709536137,4,-0.3174587812303605,0.09028813855597742,-1.5086645739581002,2nd,3rd,1st,-0.30764310534014966,0.30195642130541334,-1.3035793819652324
mem,resp,746,0,mem1.2.1.bmp,mem1.2.3.bmp,mem1.2.3.bmp,ACC025,"[-3, 0, -3]","[-3, 0, 3]","[-3, 0, 3]",match,1.4226497308103743,,0.22126976500653933,1.1973312079610423,-1.543572564273831,3rd,4th,1st,0.3427655869573223,1.2057793136702424,-1.3035793819652324
mem,resp,900,1,mem1.3.1.bmp,mem1.3.2.bmp,mem1.3.2.bmp,ACC025,"[-3, 3, -3]","[-3, 3, 0]","[-3, 3, 0]",match,1.7113248654051871,,-0.17565869332403788,1.596166411638877,-1.362597456973567,2nd,4th,1st,-0.30764310534014966,1.2057793136702424,-1.3035793819652324
mem,resp,624,1,mem3.1.2.bmp,mem3.3.3.bmp,mem1.1.2.bmp,ACC025,"[3, -3, 0]","[3, 3, 3]","[-3, -3, 0]",non-match,0.5566243270259357,1,0.3933310086649003,0.04189993680900431,-1.43465355199477,3rd,3rd,1st,0.3427655869573223,0.30195642130541334,-1.3035793819652324
mem,resp,595,0,mem3.2.1.bmp,mem3.2.2.bmp,mem3.2.2.bmp,ACC025,"[3, 0, -3]","[3, 0, 0]","[3, 0, 0]",match,1.7113248654051871,,-0.24504095307789336,-0.6224321535859682,-1.620302372960305,2nd,2nd,1st,-0.30764310534014966,-0.3088878125694661,-1.3035793819652324
mem,resp,768,1,mem2.1.1.bmp,mem2.1.3.bmp,mem2.3.1.bmp,ACC025,"[0, -3, -3]","[0, -3, 3]","[0, 3, -3]",non-match,0.6061531498826483,1,-0.6762940501319448,-0.6132459727890865,-1.619265317399302,2nd,2nd,1st,-0.30764310534014966,-0.3088878125694661,-1.3035793819652324
mem,resp,774,1,mem3.1.1.bmp,mem2.3.2.bmp,mem3.1.1.bmp,ACC025,"[3, -3, -3]","[0, 3, 0]","[3, -3, -3]",match,1.2928932188134525,,-0.9200127092532131,-0.2597174133441062,-1.2545089440262374,1st,2nd,1st,-1.2688227210262983,-0.3088878125694661,-1.3035793819652324
mem,resp,1028,1,mem2.1.3.bmp,mem3.1.1.bmp,mem3.1.1.bmp,ACC025,"[0, -3, 3]","[3, -3, -3]","[3, -3, -3]",match,1.3545027756320973,,1.2345262885831956,-0.7323971414353042,-1.14971625658325,4th,1st,1st,1.2503952752121033,-1.1832784688684475,-1.3035793819652324
mem,resp,652,1,mem3.1.2.bmp,mem2.1.1.bmp,mem2.1.1.bmp,ACC025,"[3, -3, 0]","[0, -3, -3]","[0, -3, -3]",match,1.591751709536137,,1.56204942536855,-1.1054990229097086,-1.1432629374365417,4th,1st,1st,1.2503952752121033,-1.1832784688684475,-1.3035793819652324
mem,resp,563,0,mem3.2.1.bmp,mem1.2.2.bmp,mem1.1.2.bmp,ACC025,"[3, 0, -3]","[-3, 0, 0]","[-3, -3, 0]",non-match,1.0042180842186395,3,0.07221526802619065,1.1774277497433248,-1.179061639494387,3rd,4th,1st,0.3427655869573223,1.2057793136702424,-1.3035793819652324
mem,resp,747,1,mem2.1.2.bmp,mem1.3.3.bmp,mem2.1.2.bmp,ACC025,"[0, -3, 0]","[-3, 3, 3]","[0, -3, 0]",match,1.2928932188134525,,-0.5049874719256817,-1.1886461515509068,-1.211598642401263,2nd,1st,1st,-0.30764310534014966,-1.1832784688684475,-1.3035793819652324
mem,resp,441,0,mem3.2.2.bmp,mem3.1.3.bmp,mem3.1.1.bmp,ACC025,"[3, 0, 0]","[3, -3, 3]","[3, -3, -3]",non-match,1.0144014403465114,3,-0.47182491441676105,0.897521547350024,-1.1285886984131228,2nd,4th,1st,-0.30764310534014966,1.2057793136702424,-1.3035793819652324
mem,resp,493,1,mem1.3.2.bmp,mem1.2.3.bmp,mem1.2.3.bmp,ACC025,"[-3, 3, 0]","[-3, 0, 3]","[-3, 0, 3]",match,1.591751709536137,,-0.21597489184203003,0.2943309767027712,-1.2081365635375245,2nd,3rd,1st,-0.30764310534014966,0.30195642130541334,-1.3035793819652324
mem,resp,549,1,mem2.1.1.bmp,mem3.3.2.bmp,mem3.3.2.bmp,ACC025,"[0, -3, -3]","[3, 3, 0]","[3, 3, 0]",match,1.2928932188134525,,0.014350652086996814,0.001222579728939723,-1.140536108587818,3rd,3rd,1st,0.3427655869573223,0.30195642130541334,-1.3035793819652324
mem,resp,818,1,mem2.3.2.bmp,mem3.2.3.bmp,mem3.1.2.bmp,ACC025,"[0, 3, 0]","[3, 0, 3]","[3, -3, 0]",non-match,0.9462544851682343,3,-0.1530424251975717,-0.651650790529269,-1.1475603327844592,2nd,1st,1st,-0.30764310534014966,-1.1832784688684475,-1.3035793819652324
mem,resp,552,1,mem1.1.2.bmp,mem1.1.3.bmp,mem1.1.3.bmp,ACC025,"[-3, -3, 0]","[-3, -3, 3]","[-3, -3, 3]",match,1.7113248654051871,,1.6327956128458174,1.171118313286741,-1.1182297361100297,4th,4th,1st,1.2503952752121033,1.2057793136702424,-1.3035793819652324
mem,resp,525,1,mem2.3.3.bmp,mem2.1.3.bmp,mem2.3.3.bmp,ACC025,"[0, 3, 3]","[0, -3, 3]","[0, 3, 3]",match,1.4226497308103743,,1.3398359423046668,0.04642104798970476,-1.2415032518446114,4th,3rd,1st,1.2503952752121033,0.30195642130541334,-1.3035793819652324
mem,resp,828,1,mem3.3.2.bmp,mem1.3.2.bmp,mem1.2.1.bmp,ACC025,"[3, 3, 0]","[-3, 3, 0]","[-3, 0, -3]",non-match,0.8846449283495895,2,0.6532637019453827,-0.14433026217095543,-1.4639216220611033,3rd,2nd,1st,0.3427655869573223,-0.3088878125694661,-1.3035793819652324
mem,resp,581,1,mem2.2.2.bmp,mem2.2.3.bmp,mem2.2.3.bmp,ACC025,"[0, 0, 0]","[0, 0, 3]","[0, 0, 3]",match,1.7113248654051871,,1.4884449400980786,0.3453573832635048,-1.119259603250036,4th,3rd,1st,1.2503952752121033,0.30195642130541334,-1.3035793819652324
mem,resp,824,0,mem1.2.2.bmp,mem3.2.1.bmp,mem1.2.2.bmp,ACC025,"[-3, 0, 0]","[3, 0, -3]","[-3, 0, 0]",match,1.3545027756320973,,-0.6012830751621131,-0.05448344266379574,-1.2633046903383394,2nd,2nd,1st,-0.30764310534014966,-0.3088878125694661,-1.3035793819652324
mem,resp,847,1,mem3.3.1.bmp,mem1.3.1.bmp,mem1.3.1.bmp,ACC025,"[3, 3, -3]","[-3, 3, -3]","[-3, 3, -3]",match,1.4226497308103743,,0.6114471350596562,-0.6214987867482131,-1.1749775215512017,3rd,2nd,1st,0.3427655869573223,-0.3088878125694661,-1.3035793819652324
mem,resp,781,1,mem3.2.3.bmp,mem3.1.2.bmp,mem3.2.3.bmp,ACC025,"[3, 0, 3]","[3, -3, 0]","[3, 0, 3]",match,1.591751709536137,,1.4900792003145569,-0.12994178379551583,-0.909940800372548,4th,2nd,1st,1.2503952752121033,-0.3088878125694661,-1.3035793819652324
mem,resp,464,1,mem3.1.1.bmp,mem3.3.3.bmp,mem3.1.1.bmp,ACC025,"[3, -3, -3]","[3, 3, 3]","[3, -3, -3]",match,1.1835034190722742,,0.6701487284208193,0.8323165698320311,-0.9009508968443118,3rd,4th,1st,0.3427655869573223,1.2057793136702424,-1.3035793819652324
mem,resp,687,1,mem1.2.1.bmp,mem1.1.1.bmp,mem1.2.3.bmp,ACC025,"[-3, 0, -3]","[-3, -3, -3]","[-3, 0, 3]",non-match,0.7771525064424715,2,0.8662007849614488,-0.7299175947139399,-0.9354968078945387,4th,1st,1st,1.2503952752121033,-1.1832784688684475,-1.3035793819652324
mem,resp,904,1,mem2.3.1.bmp,mem1.1.2.bmp,mem1.1.2.bmp,ACC025,"[0, 3, -3]","[-3, -3, 0]","[-3, -3, 0]",match,1.2928932188134525,,-0.28134033800746683,-0.8989245371176883,-0.8118475555220912,2nd,1st,1st,-0.30764310534014966,-1.1832784688684475,-1.3035793819652324
mem,resp,695,0,mem3.1.3.bmp,mem3.3.1.bmp,mem3.1.3.bmp,ACC025,"[3, -3, 3]","[3, 3, -3]","[3, -3, 3]",match,1.1835034190722742,,0.32190574909906494,3.2293113068587322,-0.6508162172622186,3rd,4th,2nd,0.3427655869573223,1.2057793136702424,-0.337735929139258
mem,resp,899,1,mem2.2.1.bmp,mem2.3.3.bmp,mem1.3.1.bmp,ACC025,"[0, 0, -3]","[0, 3, 3]","[-3, 3, -3]",non-match,0.9462544851682343,3,0.14280573726882134,3.5139787864348793,-0.9809798879101774,3rd,4th,1st,0.3427655869573223,1.2057793136702424,-1.3035793819652324
mem,resp,926,0,mem3.3.3.bmp,mem2.2.2.bmp,mem3.3.3.bmp,ACC025,"[3, 3, 3]","[0, 0, 0]","[3, 3, 3]",match,1.5,,-0.042647816341077054,-0.8245616733407614,-0.7016094745560374,2nd,1st,1st,-0.30764310534014966,-1.1832784688684475,-1.3035793819652324
mem,resp,760,1,mem1.1.1.bmp,mem1.2.1.bmp,mem3.2.3.bmp,ACC025,"[-3, -3, -3]","[-3, 0, -3]","[3, 0, 3]",non-match,0.3174780152878355,1,0.6101885726676465,-1.2382358737935382,-0.8194649954915493,3rd,1st,1st,0.3427655869573223,-1.1832784688684475,-1.3035793819652324
mem,resp,793,1,mem1.2.3.bmp,mem3.3.1.bmp,mem3.3.1.bmp,ACC025,"[-3, 0, 3]","[3, 3, -3]","[3, 3, -3]",match,1.1339745962155614,,-1.9457210684235633,-1.6601094619341197,-0.7908177003359613,1st,1st,1st,-1.2688227210262983,-1.1832784688684475,-1.3035793819652324
mem,resp,796,1,mem1.1.3.bmp,mem3.3.2.bmp,mem1.1.3.bmp,ACC025,"[-3, -3, 3]","[3, 3, 0]","[-3, -3, 3]",match,1.1339745962155614,,1.5669528401812305,-0.6430566008216284,-0.5967556664704075,4th,2nd,2nd,1.2503952752121033,-0.3088878125694661,-0.337735929139258
mem,resp,599,1,mem1.3.1.bmp,mem1.2.2.bmp,mem1.2.2.bmp,ACC025,"[-3, 3, -3]","[-3, 0, 0]","[-3, 0, 0]",match,1.591751709536137,,0.9530182241599572,0.6937593222780601,-0.29929625744262495,4th,4th,2nd,1.2503952752121033,1.2057793136702424,-0.337735929139258
mem,resp,886,1,mem2.2.3.bmp,mem2.1.1.bmp,mem2.2.3.bmp,ACC025,"[0, 0, 3]","[0, -3, -3]","[0, 0, 3]",match,1.3545027756320973,,-1.7679401862737358,0.271424430747,-0.4516591768541363,1st,3rd,2nd,-1.2688227210262983,0.30195642130541334,-0.337735929139258
mem,resp,536,0,mem1.3.3.bmp,mem2.3.1.bmp,mem1.3.2.bmp,ACC025,"[-3, 3, 3]","[0, 3, -3]","[-3, 3, 0]",non-match,1.3030765749413242,4,-0.40627976308876795,0.8182671349004587,-0.4267830156376182,2nd,4th,2nd,-0.30764310534014966,1.2057793136702424,-0.337735929139258
mem,resp,587,1,mem1.3.3.bmp,mem1.1.1.bmp,mem1.1.1.bmp,ACC025,"[-3, 3, 3]","[-3, -3, -3]","[-3, -3, -3]",match,1.1835034190722742,,0.5403877388361532,-0.29018691743926933,-0.9045765887875303,3rd,2nd,1st,0.3427655869573223,-0.3088878125694661,-1.3035793819652324
mem,resp,650,0,mem2.3.2.bmp,mem3.2.1.bmp,mem2.3.3.bmp,ACC025,"[0, 3, 0]","[3, 0, -3]","[0, 3, 3]",non-match,1.0042180842186395,3,-0.5690118362338965,0.29486986182897684,-0.8770564786598468,2nd,3rd,1st,-0.30764310534014966,0.30195642130541334,-1.3035793819652324
mem,resp,823,1,mem1.3.1.bmp,mem3.1.1.bmp,mem1.1.3.bmp,ACC025,"[-3, 3, -3]","[3, -3, -3]","[-3, -3, 3]",non-match,0.36700683814454815,1,0.6293915712520538,-1.2649084049545765,-0.6390937278922152,3rd,1st,2nd,0.3427655869573223,-1.1832784688684475,-0.337735929139258
mem,resp,838,1,mem2.2.1.bmp,mem2.1.2.bmp,mem3.3.1.bmp,ACC025,"[0, 0, -3]","[0, -3, 0]","[3, 3, -3]",non-match,0.8846449283495895,2,-1.3489607298377673,-2.6906593623635486,-0.6642905181417008,1st,1st,2nd,-1.2688227210262983,-1.1832784688684475,-0.337735929139258
mem,resp,830,0,mem3.2.2.bmp,mem1.1.2.bmp,mem2.3.1.bmp,ACC025,"[3, 0, 0]","[-3, -3, 0]","[0, 3, -3]",non-match,0.7928932188134524,2,-1.2301010887932642,-0.8007989184019368,-0.6709823449667646,1st,1st,2nd,-1.2688227210262983,-1.1832784688684475,-0.337735929139258
mem,resp,561,1,mem3.3.2.bmp,mem1.2.3.bmp,mem1.2.3.bmp,ACC025,"[3, 3, 0]","[-3, 0, 3]","[-3, 0, 3]",match,1.2928932188134525,,-0.35923243884594974,0.05615464523768272,-0.5702615163155142,2nd,3rd,2nd,-0.30764310534014966,0.30195642130541334,-0.337735929139258
mem,resp,744,1,mem2.2.2.bmp,mem3.3.3.bmp,mem2.2.2.bmp,ACC025,"[0, 0, 0]","[3, 3, 3]","[0, 0, 0]",match,1.5,,-0.8887870260433021,-0.8446368628321833,-0.4967874357192038,1st,1st,2nd,-1.2688227210262983,-1.1832784688684475,-0.337735929139258
mem,resp,623,0,mem1.2.1.bmp,mem2.1.3.bmp,mem1.1.1.bmp,ACC025,"[-3, 0, -3]","[0, -3, 3]","[-3, -3, -3]",non-match,1.0658276410372842,4,0.2562593479484152,-0.8415692224253954,-0.7046934883082591,3rd,1st,1st,0.3427655869573223,-1.1832784688684475,-1.3035793819652324
mem,resp,691,1,mem3.2.3.bmp,mem3.1.2.bmp,mem1.3.1.bmp,ACC025,"[3, 0, 3]","[3, -3, 0]","[-3, 3, -3]",non-match,0.2679491924311228,1,0.6003594331491376,0.03785458508795983,-0.6800734596001927,3rd,3rd,1st,0.3427655869573223,0.30195642130541334,-1.3035793819652324
mem,resp,653,1,mem3.2.1.bmp,mem3.1.3.bmp,mem3.1.3.bmp,ACC025,"[3, 0, -3]","[3, -3, 3]","[3, -3, 3]",match,1.3545027756320973,,-0.8001991580160746,-2.0388090145749977,-0.6488667278046308,1st,1st,2nd,-1.2688227210262983,-1.1832784688684475,-0.337735929139258
mem,resp,837,1,mem1.2.2.bmp,mem2.2.3.bmp,mem2.2.1.bmp,ACC025,"[-3, 0, 0]","[0, 0, 3]","[0, 0, -3]",non-match,1.0144014403465114,3,-1.3327236934436204,-0.19932192420105968,-0.3971489196334855,1st,2nd,2nd,-1.2688227210262983,-0.3088878125694661,-0.337735929139258
mem,resp,580,0,mem2.1.2.bmp,mem1.3.2.bmp,mem1.1.2.bmp,ACC025,"[0, -3, 0]","[-3, 3, 0]","[-3, -3, 0]",non-match,1.1339745962155614,4,0.30157997289455984,0.3441530547958051,-0.24770738847876142,3rd,3rd,2nd,0.3427655869573223,0.30195642130541334,-0.337735929139258
mem,resp,571,1,mem1.2.3.bmp,mem2.3.3.bmp,mem1.2.3.bmp,ACC025,"[-3, 0, 3]","[0, 3, 3]","[-3, 0, 3]",match,1.591751709536137,,-0.24679135035443775,0.6141301452976737,-0.13240871283610778,2nd,3rd,2nd,-0.30764310534014966,0.30195642130541334,-0.337735929139258
mem,resp,886,0,mem2.3.2.bmp,mem2.2.1.bmp,mem2.3.2.bmp,ACC025,"[0, 3, 0]","[0, 0, -3]","[0, 3, 0]",match,1.591751709536137,,0.01692230244890831,1.3250070268105731,-0.022307169796618967,3rd,4th,2nd,0.3427655869573223,1.2057793136702424,-0.337735929139258
mem,resp,659,0,mem3.2.3.bmp,mem1.2.3.bmp,mem3.2.3.bmp,ACC025,"[3, 0, 3]","[-3, 0, 3]","[3, 0, 3]",match,1.4226497308103743,,-0.7518540152434848,1.159540937151089,0.04716858654797523,1st,4th,3rd,-1.2688227210262983,1.2057793136702424,0.39290150473567836
mem,resp,802,0,mem1.1.1.bmp,mem2.2.3.bmp,mem1.1.1.bmp,ACC025,"[-3, -3, -3]","[0, 0, 3]","[-3, -3, -3]",match,1.2928932188134525,,-0.017469037786758287,0.5868623124059215,0.2918973147816388,2nd,3rd,3rd,-0.30764310534014966,0.30195642130541334,0.39290150473567836
mem,resp,679,1,mem1.1.3.bmp,mem2.3.2.bmp,mem2.1.1.bmp,ACC025,"[-3, -3, 3]","[0, 3, 0]","[0, -3, -3]",non-match,0.7090055512641944,2,0.6905347302692852,-0.19243499683872792,0.1540916060657654,3rd,2nd,3rd,0.3427655869573223,-0.3088878125694661,0.39290150473567836
mem,resp,725,1,mem2.1.2.bmp,mem2.3.1.bmp,mem2.3.1.bmp,ACC025,"[0, -3, 0]","[0, 3, -3]","[0, 3, -3]",match,1.3545027756320973,,1.208740642989119,0.1832650950279833,0.3279561779238735,4th,3rd,3rd,1.2503952752121033,0.30195642130541334,0.39290150473567836
mem,resp,798,1,mem2.1.3.bmp,mem3.1.3.bmp,mem3.3.3.bmp,ACC025,"[0, -3, 3]","[3, -3, 3]","[3, 3, 3]",non-match,0.7771525064424715,2,0.908203036618485,-0.5255218573923849,0.5815461985791097,4th,2nd,3rd,1.2503952752121033,-0.3088878125694661,0.39290150473567836
mem,resp,792,1,mem3.1.2.bmp,mem1.1.1.bmp,mem1.2.3.bmp,ACC025,"[3, -3, 0]","[-3, -3, -3]","[-3, 0, 3]",non-match,0.6473959944455496,1,-2.087712448790248,-4.364391579264856,0.4097578812258182,1st,1st,3rd,-1.2688227210262983,-1.1832784688684475,0.39290150473567836
mem,resp,663,0,mem1.1.2.bmp,mem3.2.1.bmp,mem2.2.1.bmp,ACC025,"[-3, -3, 0]","[3, 0, -3]","[0, 0, -3]",non-match,1.2113248654051871,4,0.3387974115098455,-0.8119526820341229,0.35268141690594285,3rd,1st,3rd,0.3427655869573223,-1.1832784688684475,0.39290150473567836
mem,resp,894,1,mem2.2.2.bmp,mem1.3.3.bmp,mem1.3.3.bmp,ACC025,"[0, 0, 0]","[-3, 3, 3]","[-3, 3, 3]",match,1.5,,1.2835670128752572,0.05978137896290875,0.831524433223338,4th,3rd,4th,1.2503952752121033,0.30195642130541334,1.2655661666578275
mem,resp,708,1,mem1.3.1.bmp,mem1.1.3.bmp,mem2.1.1.bmp,ACC025,"[-3, 3, -3]","[-3, -3, 3]","[0, -3, -3]",non-match,0.7090055512641944,2,1.0877482576366062,-1.0026774161971015,0.9315938762477132,4th,1st,4th,1.2503952752121033,-1.1832784688684475,1.2655661666578275
mem,resp,753,0,mem2.2.3.bmp,mem3.3.1.bmp,mem2.3.2.bmp,ACC025,"[0, 0, 3]","[3, 3, -3]","[0, 3, 0]",non-match,1.1835034190722742,4,-0.5481160992700219,-0.6507930701514285,0.7827574876604605,2nd,1st,4th,-0.30764310534014966,-1.1832784688684475,1.2655661666578275
mem,resp,612,1,mem1.2.2.bmp,mem1.2.1.bmp,mem1.2.1.bmp,ACC025,"[-3, 0, 0]","[-3, 0, -3]","[-3, 0, -3]",match,1.7113248654051871,,1.0565829633995485,1.1080446939569724,0.6834072024623598,4th,4th,3rd,1.2503952752121033,1.2057793136702424,0.39290150473567836
mem,resp,927,0,mem3.2.2.bmp,mem1.1.2.bmp,mem3.2.3.bmp,ACC025,"[3, 0, 0]","[-3, -3, 0]","[3, 0, 3]",non-match,1.0042180842186395,3,-0.7498861645334117,0.8804975647240978,0.7288446348317367,1st,4th,4th,-1.2688227210262983,1.2057793136702424,1.2655661666578275
mem,resp,628,1,mem1.3.2.bmp,mem2.3.3.bmp,mem3.3.2.bmp,ACC025,"[-3, 3, 0]","[0, 3, 3]","[3, 3, 0]",non-match,1.0144014403465114,3,1.2824278643875429,1.093038338979538,0.5327216412389891,4th,4th,3rd,1.2503952752121033,1.2057793136702424,0.39290150473567836
mem,resp,813,1,mem3.3.1.bmp,mem1.3.1.bmp,mem1.3.1.bmp,ACC025,"[3, 3, -3]","[-3, 3, -3]","[-3, 3, -3]",match,1.4226497308103743,,-0.6297181051772709,-1.1407922930737224,0.6121250791618222,2nd,1st,3rd,-0.30764310534014966,-1.1832784688684475,0.39290150473567836
mem,resp,756,1,mem3.3.3.bmp,mem3.1.2.bmp,mem3.1.2.bmp,ACC025,"[3, 3, 3]","[3, -3, 0]","[3, -3, 0]",match,1.3545027756320973,,1.5673185511116237,0.73381248098301,0.48999185952578544,4th,4th,3rd,1.2503952752121033,1.2057793136702424,0.39290150473567836
mem,resp,678,1,mem3.1.1.bmp,mem2.1.2.bmp,mem1.1.3.bmp,ACC025,"[3, -3, -3]","[0, -3, 0]","[-3, -3, 3]",non-match,0.7752551286084112,2,0.9461566496649814,0.7561441138434316,0.41424533203319136,4th,4th,3rd,1.2503952752121033,1.2057793136702424,0.39290150473567836
mem,resp,501,1,mem2.2.1.bmp,mem2.2.2.bmp,mem2.2.1.bmp,ACC025,"[0, 0, -3]","[0, 0, 0]","[0, 0, -3]",match,1.7113248654051871,,1.730601508315387,-1.175426157803337,0.25672498062321686,4th,1st,3rd,1.2503952752121033,-1.1832784688684475,0.39290150473567836
mem,resp,842,0,mem3.2.1.bmp,mem3.3.2.bmp,mem3.2.1.bmp,ACC025,"[3, 0, -3]","[3, 3, 0]","[3, 0, -3]",match,1.591751709536137,,-1.4157008659750716,0.12996536657778204,0.2716451807495576,1st,3rd,3rd,-1.2688227210262983,0.30195642130541334,0.39290150473567836
mem,resp,838,1,mem2.3.1.bmp,mem3.2.3.bmp,mem2.1.3.bmp,ACC025,"[0, 3, -3]","[3, 0, 3]","[0, -3, 3]",non-match,0.7752551286084112,2,-0.46128536395784814,-0.46025869501110656,0.41848541068112144,2nd,2nd,3rd,-0.30764310534014966,-0.3088878125694661,0.39290150473567836
mem,resp,711,1,mem1.2.3.bmp,mem2.1.1.bmp,mem2.1.1.bmp,ACC025,"[-3, 0, 3]","[0, -3, -3]","[0, -3, -3]",match,1.2928932188134525,,-1.8750666687272255,1.5418977333609525,0.7164517704740787,1st,4th,3rd,-1.2688227210262983,1.2057793136702424,0.39290150473567836
mem,resp,966,0,mem1.2.1.bmp,mem1.3.2.bmp,mem1.2.1.bmp,ACC025,"[-3, 0, -3]","[-3, 3, 0]","[-3, 0, -3]",match,1.591751709536137,,0.8554039792761721,0.8875942153752958,1.0125121271881672,4th,4th,4th,1.2503952752121033,1.2057793136702424,1.2655661666578275
mem,resp,679,1,mem2.3.3.bmp,mem1.3.1.bmp,mem2.2.3.bmp,ACC025,"[0, 3, 3]","[-3, 3, -3]","[0, 0, 3]",non-match,1.0042180842186395,3,1.5533137226009852,0.7495052700437566,0.9124782520348993,4th,4th,4th,1.2503952752121033,1.2057793136702424,1.2655661666578275
mem,resp,877,1,mem3.3.2.bmp,mem2.2.1.bmp,mem3.3.3.bmp,ACC025,"[3, 3, 0]","[0, 0, -3]","[3, 3, 3]",non-match,1.0042180842186395,3,-0.03605258891461721,0.9224875796850461,0.8772915466374428,2nd,4th,4th,-0.30764310534014966,1.2057793136702424,1.2655661666578275
mem,resp,728,0,mem2.1.1.bmp,mem1.1.3.bmp,mem1.2.3.bmp,ACC025,"[0, -3, -3]","[-3, -3, 3]","[-3, 0, 3]",non-match,1.0042180842186395,3,-0.7000307140478214,0.5837479491856569,0.7900371513677805,1st,3rd,4th,-1.2688227210262983,0.30195642130541334,1.2655661666578275
mem,resp,529,1,mem3.1.3.bmp,mem3.1.1.bmp,mem3.1.3.bmp,ACC025,"[3, -3, 3]","[3, -3, -3]","[3, -3, 3]",match,1.4226497308103743,,-0.1236637942442008,1.168979958184577,0.8021738707997402,2nd,4th,4th,-0.30764310534014966,1.2057793136702424,1.2655661666578275
mem,resp,473,0,mem3.2.2.bmp,mem2.2.2.bmp,mem2.2.3.bmp,ACC025,"[3, 0, 0]","[0, 0, 0]","[0, 0, 3]",non-match,1.3030765749413242,4,1.1554375413734541,0.4992144265452955,0.581187695991284,4th,3rd,3rd,1.2503952752121033,0.30195642130541334,0.39290150473567836
mem,resp,765,1,mem2.2.1.bmp,mem3.2.3.bmp,mem1.2.2.bmp,ACC025,"[0, 0, -3]","[3, 0, 3]","[-3, 0, 0]",non-match,0.9462544851682343,3,-1.0221599403785027,-0.8630474926350792,0.7120258493787451,1st,1st,3rd,-1.2688227210262983,-1.1832784688684475,0.39290150473567836
mem,resp,673,0,mem2.1.3.bmp,mem2.3.1.bmp,mem2.3.1.bmp,ACC025,"[0, -3, 3]","[0, 3, -3]","[0, 3, -3]",match,1.1835034190722742,,0.956007541353808,0.20500100818055259,0.8828163346472443,4th,3rd,4th,1.2503952752121033,0.30195642130541334,1.2655661666578275
mem,resp,984,0,mem2.1.1.bmp,mem2.3.2.bmp,mem3.1.3.bmp,ACC025,"[0, -3, -3]","[0, 3, 0]","[3, -3, 3]",non-match,0.6473959944455496,1,-2.2520484204392237,-0.5328236894760318,0.7771339464492854,1st,2nd,4th,-1.2688227210262983,-0.3088878125694661,1.2655661666578275
mem,resp,1339,1,mem3.2.1.bmp,mem2.1.2.bmp,mem2.1.2.bmp,ACC025,"[3, 0, -3]","[0, -3, 0]","[0, -3, 0]",match,1.5,,-2.3442889234984365,-1.066847579297274,0.7685021231235056,1st,1st,4th,-1.2688227210262983,-1.1832784688684475,1.2655661666578275
mem,resp,613,1,mem3.1.1.bmp,mem2.2.3.bmp,mem2.2.3.bmp,ACC025,"[3, -3, -3]","[0, 0, 3]","[0, 0, 3]",match,1.2928932188134525,,-0.17750402417433625,0.6688968933704902,0.7740438207148793,2nd,4th,4th,-0.30764310534014966,1.2057793136702424,1.2655661666578275
mem,resp,606,1,mem3.1.2.bmp,mem1.2.2.bmp,mem3.1.2.bmp,ACC025,"[3, -3, 0]","[-3, 0, 0]","[3, -3, 0]",match,1.3545027756320973,,1.4587353159332865,0.8414282089448832,0.6536612830933569,4th,4th,3rd,1.2503952752121033,1.2057793136702424,0.39290150473567836
mem,resp,970,1,mem2.3.2.bmp,mem3.2.2.bmp,mem2.3.2.bmp,ACC025,"[0, 3, 0]","[3, 0, 0]","[0, 3, 0]",match,1.591751709536137,,0.12826681622070263,1.2968349348568182,0.7459134542092096,3rd,4th,4th,0.3427655869573223,1.2057793136702424,1.2655661666578275
mem,resp,1083,1,mem1.3.3.bmp,mem3.2.1.bmp,mem2.2.1.bmp,ACC025,"[-3, 3, 3]","[3, 0, -3]","[0, 0, -3]",non-match,1.0042180842186395,3,0.8658875378977716,0.18637749420222963,0.6605085475824963,4th,3rd,3rd,1.2503952752121033,0.30195642130541334,0.39290150473567836
mem,resp,637,1,mem2.2.3.bmp,mem1.1.2.bmp,mem1.1.2.bmp,ACC025,"[0, 0, 3]","[-3, -3, 0]","[-3, -3, 0]",match,1.5,,1.948104417462251,-0.4069866166462534,0.7904402311658085,4th,2nd,4th,1.2503952752121033,-0.3088878125694661,1.2655661666578275
mem,resp,631,0,mem1.1.3.bmp,mem2.3.3.bmp,mem1.2.3.bmp,ACC025,"[-3, -3, 3]","[0, 3, 3]","[-3, 0, 3]",non-match,1.3030765749413242,4,0.4529127850712723,-0.3779316553191609,0.8141124471173218,3rd,2nd,4th,0.3427655869573223,-0.3088878125694661,1.2655661666578275
mem,resp,1113,1,mem1.2.2.bmp,mem3.3.1.bmp,mem1.2.2.bmp,ACC025,"[-3, 0, 0]","[3, 3, -3]","[-3, 0, 0]",match,1.2928932188134525,,-1.0103982497662525,1.1913711261899211,0.640195540476043,1st,4th,3rd,-1.2688227210262983,1.2057793136702424,0.39290150473567836
mem,resp,550,0,mem2.3.1.bmp,mem3.1.1.bmp,mem2.2.1.bmp,ACC025,"[0, 3, -3]","[3, -3, -3]","[0, 0, -3]",non-match,1.3030765749413242,4,0.8177212505924062,0.5551454242717561,0.9023164339010693,4th,3rd,4th,1.2503952752121033,0.30195642130541334,1.2655661666578275
mem,resp,601,1,mem1.2.1.bmp,mem3.1.2.bmp,mem3.1.2.bmp,ACC025,"[-3, 0, -3]","[3, -3, 0]","[3, -3, 0]",match,1.2928932188134525,,1.2347862784415278,1.02358985591021,0.7063945574280522,4th,4th,3rd,1.2503952752121033,1.2057793136702424,0.39290150473567836
mem,resp,819,1,mem1.2.3.bmp,mem3.3.3.bmp,mem3.2.1.bmp,ACC025,"[-3, 0, 3]","[3, 3, 3]","[3, 0, -3]",non-match,0.5380061947043713,1,0.9878463642888395,0.10664483654726661,0.5971735237554288,4th,3rd,3rd,1.2503952752121033,0.30195642130541334,0.39290150473567836
mem,resp,517,1,mem1.1.2.bmp,mem1.2.2.bmp,mem1.1.2.bmp,ACC025,"[-3, -3, 0]","[-3, 0, 0]","[-3, -3, 0]",match,1.7113248654051871,,0.13293563039401507,-1.5889704665330326,0.6577336377887041,3rd,1st,3rd,0.3427655869573223,-1.1832784688684475,0.39290150473567836
mem,resp,800,1,mem3.2.2.bmp,mem1.3.2.bmp,mem1.3.2.bmp,ACC025,"[3, 0, 0]","[-3, 3, 0]","[-3, 3, 0]",match,1.3545027756320973,,1.047382121307771,-0.06741895662093737,0.8152086379031798,4th,2nd,4th,1.2503952752121033,-0.3088878125694661,1.2655661666578275
mem,resp,762,1,mem2.1.2.bmp,mem1.1.3.bmp,mem3.1.1.bmp,ACC025,"[0, -3, 0]","[-3, -3, 3]","[3, -3, -3]",non-match,0.7752551286084112,2,0.0005791934243376796,-0.9418025617286618,0.9613979216520938,2nd,1st,4th,-0.30764310534014966,-1.1832784688684475,1.2655661666578275
mem,resp,809,1,mem2.2.3.bmp,mem2.3.3.bmp,mem3.1.3.bmp,ACC025,"[0, 0, 3]","[0, 3, 3]","[3, -3, 3]",non-match,0.9462544851682343,3,-0.23228928858323342,-0.5639603554529549,1.0695071705144286,2nd,2nd,4th,-0.30764310534014966,-0.3088878125694661,1.2655661666578275
mem,resp,657,0,mem3.2.1.bmp,mem3.3.1.bmp,mem3.3.3.bmp,ACC025,"[3, 0, -3]","[3, 3, -3]","[3, 3, 3]",non-match,0.7771525064424715,2,-0.9732653197337153,-0.26190161664550443,1.0846225504518534,1st,2nd,4th,-1.2688227210262983,-0.3088878125694661,1.2655661666578275
mem,resp,528,0,mem2.1.1.bmp,mem1.2.1.bmp,mem2.2.2.bmp,ACC025,"[0, -3, -3]","[-3, 0, -3]","[0, 0, 0]",non-match,1.1835034190722742,4,1.1273824133122667,0.6217745806585964,1.0290877080221799,4th,3rd,4th,1.2503952752121033,0.30195642130541334,1.2655661666578275
mem,resp,580,1,mem2.3.2.bmp,mem1.3.3.bmp,mem1.3.3.bmp,ACC025,"[0, 3, 0]","[-3, 3, 3]","[-3, 3, 3]",match,1.591751709536137,,-0.1675036568311369,-0.3160637761151677,1.272968544157722,2nd,2nd,4th,-0.30764310534014966,-0.3088878125694661,1.2655661666578275
mem,resp,439,1,mem1.3.2.bmp,mem3.1.3.bmp,mem3.1.3.bmp,ACC025,"[-3, 3, 0]","[3, -3, 3]","[3, -3, 3]",match,1.1339745962155614,,1.0562032221843647,-0.8807967606296122,1.1356013117408676,4th,1st,4th,1.2503952752121033,-1.1832784688684475,1.2655661666578275
mem,resp,886,0,mem3.1.2.bmp,mem2.1.3.bmp,mem3.2.2.bmp,ACC025,"[3, -3, 0]","[0, -3, 3]","[3, 0, 0]",non-match,1.2113248654051871,4,-1.2196061901256232,0.5113796048282904,1.1845231048328815,1st,3rd,4th,-1.2688227210262983,0.30195642130541334,1.2655661666578275
mem,resp,716,1,mem1.1.1.bmp,mem2.1.2.bmp,mem1.1.1.bmp,ACC025,"[-3, -3, -3]","[0, -3, 0]","[-3, -3, -3]",match,1.591751709536137,,-0.8786068740394113,0.7866751478177542,1.4058212702339121,1st,4th,4th,-1.2688227210262983,1.2057793136702424,1.2655661666578275
mem,resp,747,1,mem3.3.1.bmp,mem2.3.1.bmp,mem2.3.1.bmp,ACC025,"[3, 3, -3]","[0, 3, -3]","[0, 3, -3]",match,1.7113248654051871,,0.513706957246007,-1.4428333679340999,1.1646949043442776,3rd,1st,4th,0.3427655869573223,-1.1832784688684475,1.2655661666578275
mem,resp,1035,0,mem3.1.3.bmp,mem1.2.3.bmp,mem3.1.3.bmp,ACC025,"[3, -3, 3]","[-3, 0, 3]","[3, -3, 3]",match,1.3545027756320973,,-0.5242321330946952,0.3200125355527486,0.6723973013435748,2nd,3rd,3rd,-0.30764310534014966,0.30195642130541334,0.39290150473567836
mem,resp,1162,0,mem3.3.3.bmp,mem3.3.2.bmp,mem2.3.3.bmp,ACC025,"[3, 3, 3]","[3, 3, 0]","[0, 3, 3]",non-match,1.3030765749413242,4,-0.4984987485849912,-0.8690269540165187,0.7026753491489823,2nd,1st,3rd,-0.30764310534014966,-1.1832784688684475,0.39290150473567836
mem,resp,735,1,mem2.1.3.bmp,mem2.2.1.bmp,mem1.3.3.bmp,ACC025,"[0, -3, 3]","[0, 0, -3]","[-3, 3, 3]",non-match,0.6473959944455496,1,0.8223656318298213,-0.44944321528936737,0.6312702083253204,4th,2nd,3rd,1.2503952752121033,-0.3088878125694661,0.39290150473567836
mem,resp,687,1,mem3.2.3.bmp,mem1.1.2.bmp,mem3.1.2.bmp,ACC025,"[3, 0, 3]","[-3, -3, 0]","[3, -3, 0]",non-match,1.0144014403465114,3,0.4707867027228044,-0.1523987780306838,0.2611266516051244,3rd,2nd,3rd,0.3427655869573223,-0.3088878125694661,0.39290150473567836
mem,resp,640,1,mem3.1.1.bmp,mem2.1.1.bmp,mem2.1.1.bmp,ACC025,"[3, -3, -3]","[0, -3, -3]","[0, -3, -3]",match,1.7113248654051871,,0.2581140309499856,0.6385883489841512,0.2433904661586185,3rd,4th,3rd,0.3427655869573223,1.2057793136702424,0.39290150473567836
mem,resp,741,0,mem1.3.1.bmp,mem3.3.2.bmp,mem3.1.3.bmp,ACC025,"[-3, 3, -3]","[3, 3, 0]","[3, -3, 3]",non-match,0.3545027756320972,1,1.9986165272055996,0.50658576744505,0.5062449652498364,4th,3rd,3rd,1.2503952752121033,0.30195642130541334,0.39290150473567836
mem,resp,1401,0,mem2.2.1.bmp,mem2.3.1.bmp,mem3.2.1.bmp,ACC025,"[0, 0, -3]","[0, 3, -3]","[3, 0, -3]",non-match,1.3030765749413242,4,-2.57663733530133,-3.6985379669702665,0.42594913517856287,1st,1st,3rd,-1.2688227210262983,-1.1832784688684475,0.39290150473567836
mem,resp,725,1,mem2.2.2.bmp,mem2.3.3.bmp,mem3.3.1.bmp,ACC025,"[0, 0, 0]","[0, 3, 3]","[3, 3, -3]",non-match,0.8545027756320972,2,0.8922701902782718,0.05655834875905139,-0.0026935111993807866,4th,3rd,2nd,1.2503952752121033,0.30195642130541334,-0.337735929139258
mem,resp,959,1,mem1.2.2.bmp,mem3.2.2.bmp,mem2.3.2.bmp,ACC025,"[-3, 0, 0]","[3, 0, 0]","[0, 3, 0]",non-match,1.1835034190722742,4,-2.0462760001492524,-0.3409982916492441,-0.44625558302423707,1st,2nd,2nd,-1.2688227210262983,-0.3088878125694661,-0.337735929139258
mem,resp,713,1,mem1.3.3.bmp,mem2.1.3.bmp,mem1.1.2.bmp,ACC025,"[-3, 3, 3]","[0, -3, 3]","[-3, -3, 0]",non-match,0.9462544851682343,3,-0.13757494926708574,1.0461593224681314,-0.393020795266433,2nd,4th,2nd,-0.30764310534014966,1.2057793136702424,-0.337735929139258
mem,resp,704,1,mem3.3.2.bmp,mem3.1.2.bmp,mem1.1.1.bmp,ACC025,"[3, 3, 0]","[3, -3, 0]","[-3, -3, -3]",non-match,0.4884773718476586,1,0.6378562031206764,-0.3737506309817752,-0.22149191645790256,3rd,2nd,2nd,0.3427655869573223,-0.3088878125694661,-0.337735929139258
mem,resp,799,1,mem1.1.3.bmp,mem2.2.3.bmp,mem1.1.3.bmp,ACC025,"[-3, -3, 3]","[0, 0, 3]","[-3, -3, 3]",match,1.591751709536137,,-1.3133138104742752,-0.35181380205920243,-0.26837968179364496,1st,2nd,2nd,-1.2688227210262983,-0.3088878125694661,-0.337735929139258
mem,resp,621,1,mem2.3.3.bmp,mem1.3.2.bmp,mem3.2.2.bmp,ACC025,"[0, 3, 3]","[-3, 3, 0]","[3, 0, 0]",non-match,0.8545027756320972,2,-0.48661498435538975,-1.2925838657735509,-0.14255767762533014,2nd,1st,2nd,-0.30764310534014966,-1.1832784688684475,-0.337735929139258
mem,resp,796,0,mem3.2.1.bmp,mem1.2.3.bmp,mem3.2.1.bmp,ACC025,"[3, 0, -3]","[-3, 0, 3]","[3, 0, -3]",match,1.1835034190722742,,0.8848189087188728,-1.4376267960620344,-0.02484465072887535,4th,1st,2nd,1.2503952752121033,-1.1832784688684475,-0.337735929139258
mem,resp,646,1,mem2.1.1.bmp,mem2.3.2.bmp,mem2.1.2.bmp,ACC025,"[0, -3, -3]","[0, 3, 0]","[0, -3, 0]",non-match,1.1339745962155614,4,-0.7326585922103607,-0.7285963671478917,-0.2523682373103879,1st,1st,2nd,-1.2688227210262983,-1.1832784688684475,-0.337735929139258
mem,resp,880,1,mem3.3.3.bmp,mem1.1.3.bmp,mem3.3.3.bmp,ACC025,"[3, 3, 3]","[-3, -3, 3]","[3, 3, 3]",match,1.1835034190722742,,-0.5542350065886092,-0.21875846116620187,-0.11906793537872563,2nd,2nd,2nd,-0.30764310534014966,-0.3088878125694661,-0.337735929139258
mem,resp,1129,0,mem1.3.3.bmp,mem3.3.1.bmp,mem3.2.2.bmp,ACC025,"[-3, 3, 3]","[3, 3, -3]","[3, 0, 0]",non-match,0.8846449283495895,2,-1.0607432683232612,0.015170467343733935,0.14978349585757184,1st,3rd,3rd,-1.2688227210262983,0.30195642130541334,0.39290150473567836
mem,resp,781,1,mem3.1.1.bmp,mem2.2.2.bmp,mem1.2.1.bmp,ACC025,"[3, -3, -3]","[0, 0, 0]","[-3, 0, -3]",non-match,0.9462544851682343,3,-0.14835677201474562,0.14641775043601418,0.22438252821771165,2nd,3rd,3rd,-0.30764310534014966,0.30195642130541334,0.39290150473567836
mem,resp,744,1,mem1.3.1.bmp,mem1.2.2.bmp,mem1.2.2.bmp,ACC025,"[-3, 3, -3]","[-3, 0, 0]","[-3, 0, 0]",match,1.591751709536137,,-0.7084790802535513,-0.6477849188572343,0.29334827605650726,1st,2nd,3rd,-1.2688227210262983,-0.3088878125694661,0.39290150473567836
mem,resp,772,1,mem2.3.2.bmp,mem3.3.3.bmp,mem2.3.2.bmp,ACC025,"[0, 3, 0]","[3, 3, 3]","[0, 3, 0]",match,1.591751709536137,,1.859903258489434,0.4500205976722894,0.05520965700215933,4th,3rd,3rd,1.2503952752121033,0.30195642130541334,0.39290150473567836
mem,resp,970,1,mem3.3.1.bmp,mem3.1.3.bmp,mem3.1.3.bmp,ACC025,"[3, 3, -3]","[3, -3, 3]","[3, -3, 3]",match,1.1835034190722742,,-0.15933647144875596,0.3049329277964845,-0.10234294778959276,2nd,3rd,2nd,-0.30764310534014966,0.30195642130541334,-0.337735929139258
mem,resp,722,1,mem2.2.2.bmp,mem2.1.2.bmp,mem2.1.2.bmp,ACC025,"[0, 0, 0]","[0, -3, 0]","[0, -3, 0]",match,1.7113248654051871,,-0.21505763338363193,-0.690023600457001,-0.18046435660500207,2nd,1st,2nd,-0.30764310534014966,-1.1832784688684475,-0.337735929139258
mem,resp,1169,0,mem1.1.3.bmp,mem1.1.1.bmp,mem1.1.3.bmp,ACC025,"[-3, -3, 3]","[-3, -3, -3]","[-3, -3, 3]",match,1.4226497308103743,,-0.5408294866730403,0.2950295633208202,-0.25201998556337923,2nd,3rd,2nd,-0.30764310534014966,0.30195642130541334,-0.337735929139258
mem,resp,745,1,mem2.2.1.bmp,mem2.1.1.bmp,mem2.2.1.bmp,ACC025,"[0, 0, -3]","[0, -3, -3]","[0, 0, -3]",match,1.7113248654051871,,-1.4066917622089818,-0.8853793249689249,-0.4811336695832813,1st,1st,2nd,-1.2688227210262983,-1.1832784688684475,-0.337735929139258
mem,resp,646,1,mem1.2.2.bmp,mem1.1.2.bmp,mem3.3.2.bmp,ACC025,"[-3, 0, 0]","[-3, -3, 0]","[3, 3, 0]",non-match,0.5380061947043713,1,1.2995591744383113,-0.30106610590371957,-0.5508359585092104,4th,2nd,2nd,1.2503952752121033,-0.3088878125694661,-0.337735929139258
mem,resp,826,1,mem1.1.1.bmp,mem1.2.3.bmp,mem2.1.3.bmp,ACC025,"[-3, -3, -3]","[-3, 0, 3]","[0, -3, 3]",non-match,0.9462544851682343,3,-4.453784704713487,-4.723026474227481,-0.4099888447007147,1st,1st,2nd,-1.2688227210262983,-1.1832784688684475,-0.337735929139258
mem,resp,1182,1,mem2.3.2.bmp,mem1.3.3.bmp,mem2.2.3.bmp,ACC025,"[0, 3, 0]","[-3, 3, 3]","[0, 0, 3]",non-match,1.1835034190722742,4,-0.12674464956070283,1.4989539899289217,-0.3987846789692617,2nd,4th,2nd,-0.30764310534014966,1.2057793136702424,-0.337735929139258
mem,resp,888,1,mem1.1.3.bmp,mem2.2.2.bmp,mem2.2.2.bmp,ACC025,"[-3, -3, 3]","[0, 0, 0]","[0, 0, 0]",match,1.5,,-1.2445658608701056,-0.9815557699447636,-0.3388360392776009,1st,1st,2nd,-1.2688227210262983,-1.1832784688684475,-0.337735929139258
mem,resp,729,1,mem2.1.2.bmp,mem1.2.1.bmp,mem3.3.1.bmp,ACC025,"[0, -3, 0]","[-3, 0, -3]","[3, 3, -3]",non-match,0.6473959944455496,1,1.2631821451085417,-0.8568632794562567,-0.48447576666273073,4th,1st,2nd,1.2503952752121033,-1.1832784688684475,-0.337735929139258
mem,resp,751,1,mem3.2.2.bmp,mem1.1.1.bmp,mem1.1.1.bmp,ACC025,"[3, 0, 0]","[-3, -3, -3]","[-3, -3, -3]",match,1.2928932188134525,,0.06653539364149202,-1.1215561041465318,-0.5004662361628219,3rd,1st,2nd,0.3427655869573223,-1.1832784688684475,-0.337735929139258
mem,resp,654,1,mem3.3.2.bmp,mem2.2.3.bmp,mem2.3.1.bmp,ACC025,"[3, 3, 0]","[0, 0, 3]","[0, 3, -3]",non-match,0.9462544851682343,3,0.26582346615116315,-0.8081051619170695,-0.7746271858939251,3rd,1st,1st,0.3427655869573223,-1.1832784688684475,-1.3035793819652324
mem,resp,899,1,mem1.2.2.bmp,mem2.3.2.bmp,mem1.3.1.bmp,ACC025,"[-3, 0, 0]","[0, 3, 0]","[-3, 3, -3]",non-match,1.1835034190722742,4,-1.8029304323043664,-2.871404529366979,-0.6772865095579148,1st,1st,2nd,-1.2688227210262983,-1.1832784688684475,-0.337735929139258
mem,resp,1013,1,mem3.2.3.bmp,mem2.1.1.bmp,mem2.2.2.bmp,ACC025,"[3, 0, 3]","[0, -3, -3]","[0, 0, 0]",non-match,1.1835034190722742,4,-0.8208570701700385,0.4091228684913543,-0.7311446118738293,1st,3rd,1st,-1.2688227210262983,0.30195642130541334,-1.3035793819652324
mem,resp,684,0,mem1.3.2.bmp,mem2.3.1.bmp,mem2.3.3.bmp,ACC025,"[-3, 3, 0]","[0, 3, -3]","[0, 3, 3]",non-match,1.0144014403465114,3,0.01365122080910421,-0.787996859837312,-1.0432314312500566,2nd,1st,1st,-0.30764310534014966,-1.1832784688684475,-1.3035793819652324
mem,resp,1575,0,mem1.1.2.bmp,mem3.1.3.bmp,mem1.1.2.bmp,ACC025,"[-3, -3, 0]","[3, -3, 3]","[-3, -3, 0]",match,1.3545027756320973,,0.57839733247293,0.7353457871587347,-0.9934940217780495,3rd,4th,1st,0.3427655869573223,1.2057793136702424,-1.3035793819652324
mem,resp,828,1,mem1.2.3.bmp,mem3.2.2.bmp,mem3.2.2.bmp,ACC025,"[-3, 0, 3]","[3, 0, 0]","[3, 0, 0]",match,1.3545027756320973,,-0.2128136609041913,1.7163714290707694,-0.8073276898814106,2nd,4th,1st,-0.30764310534014966,1.2057793136702424,-1.3035793819652324
mem,resp,841,1,mem3.1.2.bmp,mem3.1.1.bmp,mem3.3.1.bmp,ACC025,"[3, -3, 0]","[3, -3, -3]","[3, 3, -3]",non-match,0.7771525064424715,2,3.3361070144727516,1.2657416313333874,-0.6511069061659358,4th,4th,2nd,1.2503952752121033,1.2057793136702424,-0.337735929139258
mem,resp,783,1,mem2.2.3.bmp,mem2.3.3.bmp,mem2.3.3.bmp,ACC025,"[0, 0, 3]","[0, 3, 3]","[0, 3, 3]",match,1.7113248654051871,,-0.19733230824270054,-1.3972735679513875,-0.6682343890669906,2nd,1st,2nd,-0.30764310534014966,-1.1832784688684475,-0.337735929139258
mem,resp,977,0,mem2.2.1.bmp,mem2.1.3.bmp,mem2.2.1.bmp,ACC025,"[0, 0, -3]","[0, -3, 3]","[0, 0, -3]",match,1.3545027756320973,,1.0351475939462533,0.681539273459436,-0.23857366184315315,4th,4th,2nd,1.2503952752121033,1.2057793136702424,-0.337735929139258
mem,resp,794,0,mem1.3.1.bmp,mem1.2.2.bmp,mem2.2.2.bmp,ACC025,"[-3, 3, -3]","[-3, 0, 0]","[0, 0, 0]",non-match,1.2113248654051871,4,0.4470719599245368,0.13595012167700501,-0.20031449069688714,3rd,3rd,2nd,0.3427655869573223,0.30195642130541334,-0.337735929139258
mem,resp,764,1,mem1.3.3.bmp,mem2.1.2.bmp,mem3.1.3.bmp,ACC025,"[-3, 3, 3]","[0, -3, 0]","[3, -3, 3]",non-match,0.7752551286084112,2,-0.4956861647300509,0.2571749086273379,-0.37456707031548575,2nd,3rd,2nd,-0.30764310534014966,0.30195642130541334,-0.337735929139258
mem,resp,1222,1,mem2.3.1.bmp,mem3.2.3.bmp,mem2.1.1.bmp,ACC025,"[0, 3, -3]","[3, 0, 3]","[0, -3, -3]",non-match,0.7155429496238267,2,-1.091928794560688,-0.8483153368946975,-0.46557372114644036,1st,1st,2nd,-1.2688227210262983,-1.1832784688684475,-0.337735929139258
mem,resp,858,1,mem3.3.1.bmp,mem3.3.3.bmp,mem1.2.3.bmp,ACC025,"[3, 3, -3]","[3, 3, 3]","[-3, 0, 3]",non-match,0.4884773718476586,1,-1.2951483351501916,0.2914074328284492,-0.6797551438564791,1st,3rd,1st,-1.2688227210262983,0.30195642130541334,-1.3035793819652324
mem,resp,801,0,mem3.1.1.bmp,mem2.2.1.bmp,mem3.2.1.bmp,ACC025,"[3, -3, -3]","[0, 0, -3]","[3, 0, -3]",non-match,1.4226497308103743,4,-1.012606759611039,1.0682952258675658,-0.6480879320069933,1st,4th,2nd,-1.2688227210262983,1.2057793136702424,-0.337735929139258
mem,resp,742,1,mem1.2.1.bmp,mem3.1.2.bmp,mem3.3.2.bmp,ACC025,"[-3, 0, -3]","[3, -3, 0]","[3, 3, 0]",non-match,0.7155429496238267,2,1.3324500374783141,0.4185066814188031,-0.6590967290386931,4th,3rd,2nd,1.2503952752121033,0.30195642130541334,-0.337735929139258
mem,resp,525,0,mem2.1.3.bmp,mem1.3.1.bmp,mem2.1.3.bmp,ACC025,"[0, -3, 3]","[-3, 3, -3]","[0, -3, 3]",match,1.1339745962155614,,-0.7848786790748955,0.8478737169646551,-0.5703222446163217,1st,4th,2nd,-1.2688227210262983,1.2057793136702424,-0.337735929139258
mem,resp,708,0,mem2.1.1.bmp,mem1.3.2.bmp,mem1.1.2.bmp,ACC025,"[0, -3, -3]","[-3, 3, 0]","[-3, -3, 0]",non-match,1.0144014403465114,3,0.3461163797301928,-0.3169726997864637,-0.8731103243671533,3rd,2nd,1st,0.3427655869573223,-0.3088878125694661,-1.3035793819652324
mem,resp,630,1,mem3.2.1.bmp,mem3.3.3.bmp,mem1.1.1.bmp,ACC025,"[3, 0, -3]","[3, 3, 3]","[-3, -3, -3]",non-match,0.3545027756320972,1,0.4571032571573322,0.3233856004594544,-1.111495912046882,3rd,3rd,1st,0.3427655869573223,0.30195642130541334,-1.3035793819652324
mem,resp,803,1,mem3.1.3.bmp,mem3.3.2.bmp,mem3.3.2.bmp,ACC025,"[3, -3, 3]","[3, 3, 0]","[3, 3, 0]",match,1.3545027756320973,,-1.399804737650912,-0.3240960491882192,-1.2335402157113295,1st,2nd,1st,-1.2688227210262983,-0.3088878125694661,-1.3035793819652324
mem,resp,754,1,mem2.3.3.bmp,mem3.2.2.bmp,mem3.2.3.bmp,ACC025,"[0, 3, 3]","[3, 0, 0]","[3, 0, 3]",non-match,1.3030765749413242,4,-0.018383883920438993,-0.28488595723652227,-1.2083476878041892,2nd,2nd,1st,-0.30764310534014966,-0.3088878125694661,-1.3035793819652324
mem,resp,537,1,mem2.2.2.bmp,mem1.1.2.bmp,mem1.1.2.bmp,ACC025,"[0, 0, 0]","[-3, -3, 0]","[-3, -3, 0]",match,1.591751709536137,,0.5168462077388116,-0.2054564684973782,-1.0507533333786658,3rd,2nd,1st,0.3427655869573223,-0.3088878125694661,-1.3035793819652324
mem,resp,778,1,mem1.2.2.bmp,mem2.2.3.bmp,mem2.2.3.bmp,ACC025,"[-3, 0, 0]","[0, 0, 3]","[0, 0, 3]",match,1.591751709536137,,-0.2125484955225287,-1.3641688051114909,-0.36335060916709994,2nd,1st,2nd,-0.30764310534014966,-1.1832784688684475,-0.337735929139258
mem,resp,761,1,mem1.3.3.bmp,mem1.3.1.bmp,mem3.2.1.bmp,ACC025,"[-3, 3, 3]","[-3, 3, -3]","[3, 0, -3]",non-match,0.4884773718476586,1,1.8100411748332406,-0.3585317600875427,-0.35215974989752236,4th,2nd,2nd,1.2503952752121033,-0.3088878125694661,-0.337735929139258
mem,resp,725,0,mem2.3.3.bmp,mem2.3.2.bmp,mem1.3.2.bmp,ACC025,"[0, 3, 3]","[0, 3, 0]","[-3, 3, 0]",non-match,1.3030765749413242,4,0.0011998411763266526,-0.9545536548335292,-0.30851769388726047,2nd,1st,2nd,-0.30764310534014966,-1.1832784688684475,-0.337735929139258
mem,resp,544,1,mem2.2.2.bmp,mem2.1.3.bmp,mem2.2.2.bmp,ACC025,"[0, 0, 0]","[0, -3, 3]","[0, 0, 0]",match,1.591751709536137,,0.45167461824328897,-0.8273218791692846,-0.168681495932547,3rd,1st,2nd,0.3427655869573223,-1.1832784688684475,-0.337735929139258
mem,resp,727,1,mem1.1.1.bmp,mem3.2.3.bmp,mem2.1.2.bmp,ACC025,"[-3, -3, -3]","[3, 0, 3]","[0, -3, 0]",non-match,1.091751709536137,4,-1.0874729199316733,-0.4051421165854322,-0.16298293354345397,1st,2nd,2nd,-1.2688227210262983,-0.3088878125694661,-0.337735929139258
mem,resp,812,1,mem2.2.3.bmp,mem3.1.3.bmp,mem3.1.3.bmp,ACC025,"[0, 0, 3]","[3, -3, 3]","[3, -3, 3]",match,1.591751709536137,,1.3511602934629563,1.1790229847450564,-0.3953950192723135,4th,4th,2nd,1.2503952752121033,1.2057793136702424,-0.337735929139258
mem,resp,825,1,mem3.2.2.bmp,mem1.3.2.bmp,mem1.3.3.bmp,ACC025,"[3, 0, 0]","[-3, 3, 0]","[-3, 3, 3]",non-match,1.0042180842186395,3,0.12439778590251785,1.504147971000122,-0.22965561633115011,3rd,4th,2nd,0.3427655869573223,1.2057793136702424,-0.337735929139258
mem,resp,769,1,mem3.1.2.bmp,mem2.3.1.bmp,mem3.1.2.bmp,ACC025,"[3, -3, 0]","[0, 3, -3]","[3, -3, 0]",match,1.2928932188134525,,-0.43020896722033947,-0.7051469696136049,0.1309402227286769,2nd,1st,3rd,-0.30764310534014966,-1.1832784688684475,0.39290150473567836
mem,resp,1376,0,mem1.2.3.bmp,mem3.1.1.bmp,mem1.3.1.bmp,ACC025,"[-3, 0, 3]","[3, -3, -3]","[-3, 3, -3]",non-match,0.5380061947043713,1,1.1142362680240558,0.5151413053408199,0.3625957019399781,4th,3rd,3rd,1.2503952752121033,0.30195642130541334,0.39290150473567836
mem,resp,960,1,mem3.3.2.bmp,mem1.1.3.bmp,mem2.1.1.bmp,ACC025,"[3, 3, 0]","[-3, -3, 3]","[0, -3, -3]",non-match,0.6473959944455496,1,0.09739661212253636,0.9191135941317696,0.28302003972558326,3rd,4th,3rd,0.3427655869573223,1.2057793136702424,0.39290150473567836
mem,resp,583,0,mem1.2.1.bmp,mem2.1.2.bmp,mem2.2.3.bmp,ACC025,"[-3, 0, -3]","[0, -3, 0]","[0, 0, 3]",non-match,0.9462544851682343,3,0.06115730054204743,0.3246723574834748,0.05920638292417605,3rd,3rd,3rd,0.3427655869573223,0.30195642130541334,0.39290150473567836
mem,resp,1091,0,mem2.2.1.bmp,mem1.2.2.bmp,mem3.2.2.bmp,ACC025,"[0, 0, -3]","[-3, 0, 0]","[3, 0, 0]",non-match,1.0144014403465114,3,-0.9050401899528532,-0.1607097921972048,0.08994390920460199,1st,2nd,3rd,-1.2688227210262983,-0.3088878125694661,0.39290150473567836
mem,resp,519,1,mem2.1.2.bmp,mem2.1.1.bmp,mem2.1.1.bmp,ACC025,"[0, -3, 0]","[0, -3, -3]","[0, -3, -3]",match,1.7113248654051871,,0.23496098779073785,-0.7015379736789795,0.05707789136386313,3rd,1st,3rd,0.3427655869573223,-1.1832784688684475,0.39290150473567836
mem,resp,410,1,mem1.2.2.bmp,mem1.1.3.bmp,mem1.1.3.bmp,ACC025,"[-3, 0, 0]","[-3, -3, 3]","[-3, -3, 3]",match,1.591751709536137,,1.6067907706439537,1.030608926743694,0.08310646516649367,4th,4th,3rd,1.2503952752121033,1.2057793136702424,0.39290150473567836
mem,resp,501,1,mem1.2.3.bmp,mem3.1.2.bmp,mem1.2.3.bmp,ACC025,"[-3, 0, 3]","[3, -3, 0]","[-3, 0, 3]",match,1.2928932188134525,,1.1978082565016175,0.31414365916859155,0.3013515356981581,4th,3rd,3rd,1.2503952752121033,0.30195642130541334,0.39290150473567836
mem,resp,995,1,mem3.2.2.bmp,mem1.2.1.bmp,mem2.3.3.bmp,ACC025,"[3, 0, 0]","[-3, 0, -3]","[0, 3, 3]",non-match,0.7928932188134524,2,0.060171686954141566,-0.477564242046653,0.4893839124565648,3rd,2nd,3rd,0.3427655869573223,-0.3088878125694661,0.39290150473567836
mem,resp,787,0,mem3.2.1.bmp,mem1.1.2.bmp,mem2.1.3.bmp,ACC025,"[3, 0, -3]","[-3, -3, 0]","[0, -3, 3]",non-match,0.8846449283495895,2,-0.3692184449171502,-1.0576150209293802,0.27332868342957767,2nd,1st,3rd,-0.30764310534014966,-1.1832784688684475,0.39290150473567836
mem,resp,590,1,mem1.3.1.bmp,mem1.3.2.bmp,mem3.2.3.bmp,ACC025,"[-3, 3, -3]","[-3, 3, 0]","[3, 0, 3]",non-match,0.42686781502901383,1,1.4393658602874027,1.1687588802546691,0.2528809555954875,4th,4th,3rd,1.2503952752121033,1.2057793136702424,0.39290150473567836
mem,resp,452,1,mem3.3.2.bmp,mem3.3.1.bmp,mem3.3.2.bmp,ACC025,"[3, 3, 0]","[3, 3, -3]","[3, 3, 0]",match,1.7113248654051871,,0.6813260042341531,-0.9270943734873447,-0.028265685797177306,3rd,1st,2nd,0.3427655869573223,-1.1832784688684475,-0.337735929139258
mem,resp,833,0,mem3.1.3.bmp,mem3.3.3.bmp,mem2.2.3.bmp,ACC025,"[3, -3, 3]","[3, 3, 3]","[0, 0, 3]",non-match,1.1835034190722742,4,-1.1701510388474519,-0.9207264759735047,0.011526247573736114,1st,1st,2nd,-1.2688227210262983,-1.1832784688684475,-0.337735929139258
mem,resp,658,1,mem2.2.2.bmp,mem1.2.2.bmp,mem2.2.2.bmp,ACC025,"[0, 0, 0]","[-3, 0, 0]","[0, 0, 0]",match,1.7113248654051871,,-0.4373631995833104,-1.0139546922388376,0.13233945530139593,2nd,1st,3rd,-0.30764310534014966,-1.1832784688684475,0.39290150473567836
mem,resp,950,1,mem2.1.3.bmp,mem1.3.3.bmp,mem2.1.3.bmp,ACC025,"[0, -3, 3]","[-3, 3, 3]","[0, -3, 3]",match,1.3545027756320973,,-1.444906263415361,-1.4922542579807185,0.03175848334659688,1st,1st,3rd,-1.2688227210262983,-1.1832784688684475,0.39290150473567836
mem,resp,460,1,mem2.3.1.bmp,mem2.3.2.bmp,mem2.3.1.bmp,ACC025,"[0, 3, -3]","[0, 3, 0]","[0, 3, -3]",match,1.7113248654051871,,0.08889589539487257,1.1417601216673912,0.058454833408017916,3rd,4th,3rd,0.3427655869573223,1.2057793136702424,0.39290150473567836
mem,resp,463,1,mem1.3.2.bmp,mem2.3.3.bmp,mem1.3.2.bmp,ACC025,"[-3, 3, 0]","[0, 3, 3]","[-3, 3, 0]",match,1.591751709536137,,0.25271672855354926,0.5389382392835916,0.13123495785462555,3rd,3rd,3rd,0.3427655869573223,0.30195642130541334,0.39290150473567836
mem,resp,524,1,mem3.3.1.bmp,mem2.2.3.bmp,mem2.2.3.bmp,ACC025,"[3, 3, -3]","[0, 0, 3]","[0, 0, 3]",match,1.2928932188134525,,-0.790562848759018,-0.1300671451702621,0.05545045484964319,1st,2nd,3rd,-1.2688227210262983,-0.3088878125694661,0.39290150473567836
mem,resp,384,0,mem1.2.1.bmp,mem2.2.2.bmp,mem1.1.1.bmp,ACC025,"[-3, 0, -3]","[0, 0, 0]","[-3, -3, -3]",non-match,1.2113248654051871,4,1.8009030477301167,1.9334154539634338,-0.10176982016144474,4th,4th,2nd,1.2503952752121033,1.2057793136702424,-0.337735929139258
mem,resp,637,0,mem1.1.3.bmp,mem3.3.2.bmp,mem3.3.2.bmp,ACC025,"[-3, -3, 3]","[3, 3, 0]","[3, 3, 0]",match,1.1339745962155614,,2.0710926674718806,0.8061268754513178,-0.23534767420259387,4th,4th,2nd,1.2503952752121033,1.2057793136702424,-0.337735929139258
mem,resp,645,1,mem2.1.1.bmp,mem3.2.1.bmp,mem3.2.1.bmp,ACC025,"[0, -3, -3]","[3, 0, -3]","[3, 0, -3]",match,1.591751709536137,,-2.1073188359100867,-0.4491518306496567,-0.41509255227894265,1st,2nd,2nd,-1.2688227210262983,-0.3088878125694661,-0.337735929139258
mem,resp,1222,1,mem3.1.2.bmp,mem1.2.3.bmp,mem1.3.3.bmp,ACC025,"[3, -3, 0]","[-3, 0, 3]","[-3, 3, 3]",non-match,0.8452994616207485,2,1.463333932362037,-1.109647417998208,-0.32617166530118163,4th,1st,2nd,1.2503952752121033,-1.1832784688684475,-0.337735929139258
mem,resp,989,1,mem3.3.3.bmp,mem2.3.1.bmp,mem3.3.3.bmp,ACC025,"[3, 3, 3]","[0, 3, -3]","[3, 3, 3]",match,1.3545027756320973,,-0.6071896108846782,0.9153053089027485,-0.3008560842855495,2nd,4th,2nd,-0.30764310534014966,1.2057793136702424,-0.337735929139258
mem,resp,722,1,mem3.2.3.bmp,mem3.1.3.bmp,mem3.2.3.bmp,ACC025,"[3, 0, 3]","[3, -3, 3]","[3, 0, 3]",match,1.7113248654051871,,-1.329964343769976,-0.49700366370438476,-0.25381941787177476,1st,2nd,2nd,-1.2688227210262983,-0.3088878125694661,-0.337735929139258
mem,resp,732,1,mem2.2.1.bmp,mem3.1.1.bmp,mem1.2.1.bmp,ACC025,"[0, 0, -3]","[3, -3, -3]","[-3, 0, -3]",non-match,1.0658276410372842,4,0.27297418107283683,-1.1753975026788157,-0.0894729431320955,3rd,1st,2nd,0.3427655869573223,-1.1832784688684475,-0.337735929139258
mem,resp,522,1,mem1.1.1.bmp,mem2.2.2.bmp,mem1.1.1.bmp,ACC025,"[-3, -3, -3]","[0, 0, 0]","[-3, -3, -3]",match,1.5,,1.0967990642274121,0.4484739114330663,0.01866822463604223,4th,3rd,3rd,1.2503952752121033,0.30195642130541334,0.39290150473567836
mem,resp,644,1,mem1.1.2.bmp,mem1.2.3.bmp,mem1.1.2.bmp,ACC025,"[-3, -3, 0]","[-3, 0, 3]","[-3, -3, 0]",match,1.591751709536137,,0.21367090442038209,-0.04375769529450732,0.386971465770891,3rd,2nd,3rd,0.3427655869573223,-0.3088878125694661,0.39290150473567836
mem,resp,454,1,mem2.3.2.bmp,mem2.2.3.bmp,mem2.3.2.bmp,ACC025,"[0, 3, 0]","[0, 0, 3]","[0, 3, 0]",match,1.591751709536137,,-0.953134131322127,-0.43472819891931525,0.29803823837804416,1st,2nd,3rd,-1.2688227210262983,-0.3088878125694661,0.39290150473567836
mem,resp,525,0,mem1.3.3.bmp,mem2.1.2.bmp,mem1.2.2.bmp,ACC025,"[-3, 3, 3]","[0, -3, 0]","[-3, 0, 0]",non-match,1.1835034190722742,4,-1.4854279437118791,-0.3864105340437878,0.23657709501179233,1st,2nd,3rd,-1.2688227210262983,-0.3088878125694661,0.39290150473567836
mem,resp,680,1,mem3.1.1.bmp,mem3.2.2.bmp,mem3.1.1.bmp,ACC025,"[3, -3, -3]","[3, 0, 0]","[3, -3, -3]",match,1.591751709536137,,-0.9539450573313041,-0.24073203923106556,0.11497619744761108,1st,2nd,3rd,-1.2688227210262983,-0.3088878125694661,0.39290150473567836
mem,resp,744,1,mem2.3.3.bmp,mem2.3.1.bmp,mem1.1.1.bmp,ACC025,"[0, 3, 3]","[0, 3, -3]","[-3, -3, -3]",non-match,0.4884773718476586,1,-0.24732296175269108,0.08675389912291423,0.0787701323429726,2nd,3rd,3rd,-0.30764310534014966,0.30195642130541334,0.39290150473567836
mem,resp,695,1,mem2.2.3.bmp,mem2.1.3.bmp,mem2.1.1.bmp,ACC025,"[0, 0, 3]","[0, -3, 3]","[0, -3, -3]",non-match,0.7771525064424715,2,0.4750797449258004,-0.056376506831235663,-0.20686426219927456,3rd,2nd,2nd,0.3427655869573223,-0.3088878125694661,-0.337735929139258
mem,resp,1061,0,mem1.3.2.bmp,mem3.3.3.bmp,mem3.2.3.bmp,ACC025,"[-3, 3, 0]","[3, 3, 3]","[3, 0, 3]",non-match,1.0042180842186395,3,-1.290946382795447,0.16467558359634848,-0.23176726514658458,1st,3rd,2nd,-1.2688227210262983,0.30195642130541334,-0.337735929139258
mem,resp,699,1,mem2.2.2.bmp,mem3.2.1.bmp,mem1.2.1.bmp,ACC025,"[0, 0, 0]","[3, 0, -3]","[-3, 0, -3]",non-match,1.0144014403465114,3,-0.7161622151871087,0.9599115559126309,-0.2669837986827313,1st,4th,2nd,-1.2688227210262983,1.2057793136702424,-0.337735929139258
mem,resp,775,1,mem3.1.2.bmp,mem3.1.3.bmp,mem3.1.3.bmp,ACC025,"[3, -3, 0]","[3, -3, 3]","[3, -3, 3]",match,1.7113248654051871,,-0.5487460452397256,-0.6865033855400355,-0.32090950110786143,2nd,1st,2nd,-0.30764310534014966,-1.1832784688684475,-0.337735929139258
mem,resp,1018,1,mem2.1.2.bmp,mem3.3.2.bmp,mem2.1.2.bmp,ACC025,"[0, -3, 0]","[3, 3, 0]","[0, -3, 0]",match,1.3545027756320973,,-0.9681414703451735,-0.36286079370532054,-0.20371394441108306,1st,2nd,2nd,-1.2688227210262983,-0.3088878125694661,-0.337735929139258
mem,resp,556,0,mem3.1.1.bmp,mem1.3.3.bmp,mem1.3.2.bmp,ACC025,"[3, -3, -3]","[-3, 3, 3]","[-3, 3, 0]",non-match,0.8452994616207485,2,0.9677014934726049,0.5174632373692348,-0.28127851683602295,4th,3rd,2nd,1.2503952752121033,0.30195642130541334,-0.337735929139258
mem,resp,613,0,mem3.2.1.bmp,mem2.1.1.bmp,mem3.2.2.bmp,ACC025,"[3, 0, -3]","[0, -3, -3]","[3, 0, 0]",non-match,1.2113248654051871,4,-0.2845041545902558,0.23805811221629147,-0.1542832628398169,2nd,3rd,2nd,-0.30764310534014966,0.30195642130541334,-0.337735929139258
mem,resp,646,0,mem1.3.1.bmp,mem1.2.2.bmp,mem1.2.3.bmp,ACC025,"[-3, 3, -3]","[-3, 0, 0]","[-3, 0, 3]",non-match,1.0658276410372842,4,-0.6756604824790354,-0.03241247553583398,-0.17551170535003294,2nd,2nd,2nd,-0.30764310534014966,-0.3088878125694661,-0.337735929139258
mem,resp,809,1,mem3.1.3.bmp,mem1.2.1.bmp,mem2.3.3.bmp,ACC025,"[3, -3, 3]","[-3, 0, -3]","[0, 3, 3]",non-match,0.6473959944455496,1,-0.5582306690122545,-0.2880552523688544,-0.21504075452873297,2nd,2nd,2nd,-0.30764310534014966,-0.3088878125694661,-0.337735929139258
mem,resp,680,1,mem3.3.3.bmp,mem1.1.2.bmp,mem3.3.2.bmp,ACC025,"[3, 3, 3]","[-3, -3, 0]","[3, 3, 0]",non-match,0.8948282844774612,2,-0.8262419283896164,-0.42982481993823995,0.2052949516996155,1st,2nd,3rd,-1.2688227210262983,-0.3088878125694661,0.39290150473567836
mem,resp,785,1,mem2.3.2.bmp,mem1.1.3.bmp,mem3.1.1.bmp,ACC025,"[0, 3, 0]","[-3, -3, 3]","[3, -3, -3]",non-match,0.4763966378857265,1,-1.018960656364363,-0.14030574775063379,0.4225888396462273,1st,2nd,3rd,-1.2688227210262983,-0.3088878125694661,0.39290150473567836
mem,resp,782,1,mem1.2.3.bmp,mem2.2.1.bmp,mem1.3.3.bmp,ACC025,"[-3, 0, 3]","[0, 0, -3]","[-3, 3, 3]",non-match,1.0042180842186395,3,-1.8115293598159166,-0.186418448744588,-0.0013983413948612062,1st,2nd,2nd,-1.2688227210262983,-0.3088878125694661,-0.337735929139258
mem,resp,1211,0,mem3.2.3.bmp,mem3.3.1.bmp,mem3.2.3.bmp,ACC025,"[3, 0, 3]","[3, 3, -3]","[3, 0, 3]",match,1.3545027756320973,,-0.34632974866623023,-0.20976092085171166,-0.23709790909616438,2nd,2nd,2nd,-0.30764310534014966,-0.3088878125694661,-0.337735929139258
mem,resp,659,1,mem1.1.1.bmp,mem1.3.2.bmp,mem3.2.2.bmp,ACC025,"[-3, -3, -3]","[-3, 3, 0]","[3, 0, 0]",non-match,0.6473959944455496,1,0.6015577542983422,-0.3846346068083942,-1.2068083427714678,3rd,2nd,1st,0.3427655869573223,-0.3088878125694661,-1.3035793819652324
