mode,type,rt,acc,item_1,item_2,item_cue,subj_idx,item_1_number,item_2_number,item_cue_number,trial_type,summed_similarity,similarity_bin,ams,pams,slps,ams_quantile,pams_quantile,slps_quantile,ams_bin,pam_bin,slp_bin
mem,resp,1216,1,mem2.3.2.bmp,mem1.3.3.bmp,mem2.2.3.bmp,ACC026,"[0, 3, 0]","[-3, 3, 3]","[0, 0, 3]",non-match,1.1835034190722742,4,-3.5252423429667035,-1.3122262785319585,-1.5819518915013904,1st,1st,1st,-1.2690045783579398,-1.2416927999598315,-1.4718804888540002
mem,resp,1196,1,mem1.1.3.bmp,mem2.2.2.bmp,mem2.2.2.bmp,ACC026,"[-3, -3, 3]","[0, 0, 0]","[0, 0, 0]",match,1.5,,-2.0414920561226175,-0.32290691516942804,-1.3836669783829167,1st,2nd,1st,-1.2690045783579398,-0.28745316039254165,-1.4718804888540002
mem,resp,1009,1,mem2.1.2.bmp,mem1.2.1.bmp,mem3.3.1.bmp,ACC026,"[0, -3, 0]","[-3, 0, -3]","[3, 3, -3]",non-match,0.6473959944455496,1,-0.6557491814453982,-1.6099272025576623,-1.4827389439767626,1st,1st,1st,-1.2690045783579398,-1.2416927999598315,-1.4718804888540002
mem,resp,1016,1,mem3.2.2.bmp,mem1.1.1.bmp,mem1.1.1.bmp,ACC026,"[3, 0, 0]","[-3, -3, -3]","[-3, -3, -3]",match,1.2928932188134525,,-1.9929954894315538,-1.2492802223527948,-1.090073185561949,1st,1st,1st,-1.2690045783579398,-1.2416927999598315,-1.4718804888540002
mem,resp,860,1,mem3.3.2.bmp,mem2.2.3.bmp,mem2.3.1.bmp,ACC026,"[3, 3, 0]","[0, 0, 3]","[0, 3, -3]",non-match,0.9462544851682343,3,-2.200434989033606,-0.03560358502160431,-1.0535312833760089,1st,2nd,1st,-1.2690045783579398,-0.28745316039254165,-1.4718804888540002
mem,resp,1127,1,mem1.2.2.bmp,mem2.3.2.bmp,mem1.3.1.bmp,ACC026,"[-3, 0, 0]","[0, 3, 0]","[-3, 3, -3]",non-match,1.1835034190722742,4,-1.831553518867377,-0.21447933673817973,-0.5398117882116324,1st,2nd,1st,-1.2690045783579398,-0.28745316039254165,-1.4718804888540002
mem,resp,701,1,mem3.2.3.bmp,mem2.1.1.bmp,mem2.2.2.bmp,ACC026,"[3, 0, 3]","[0, -3, -3]","[0, 0, 0]",non-match,1.1835034190722742,4,-0.8511791429046583,0.22137772702696257,-0.6166744078180779,1st,3rd,1st,-1.2690045783579398,0.256238694328685,-1.4718804888540002
mem,resp,977,0,mem3.3.3.bmp,mem3.2.1.bmp,mem3.1.2.bmp,ACC026,"[3, 3, 3]","[3, 0, -3]","[3, -3, 0]",non-match,0.9462544851682343,3,-1.1199822525793863,-1.1545494621535042,-0.8994158829398494,1st,1st,1st,-1.2690045783579398,-1.2416927999598315,-1.4718804888540002
mem,resp,994,1,mem1.3.2.bmp,mem2.3.1.bmp,mem2.3.3.bmp,ACC026,"[-3, 3, 0]","[0, 3, -3]","[0, 3, 3]",non-match,1.0144014403465114,3,-1.8068250815404758,0.19821842754363123,-0.6097612779924638,1st,3rd,1st,-1.2690045783579398,0.256238694328685,-1.4718804888540002
mem,resp,1061,1,mem1.1.2.bmp,mem3.1.3.bmp,mem1.1.2.bmp,ACC026,"[-3, -3, 0]","[3, -3, 3]","[-3, -3, 0]",match,1.3545027756320973,,-0.5893209353110842,-0.014122570056685222,-0.5810791618097306,2nd,2nd,1st,-0.2645979623505311,-0.28745316039254165,-1.4718804888540002
mem,resp,1088,1,mem1.2.3.bmp,mem3.2.2.bmp,mem3.2.2.bmp,ACC026,"[-3, 0, 3]","[3, 0, 0]","[3, 0, 0]",match,1.3545027756320973,,-0.9597290499189381,1.9599573226266607,-0.4103885888070598,1st,4th,1st,-1.2690045783579398,1.2888264044847115,-1.4718804888540002
mem,resp,682,1,mem3.1.2.bmp,mem3.1.1.bmp,mem3.3.1.bmp,ACC026,"[3, -3, 0]","[3, -3, -3]","[3, 3, -3]",non-match,0.7771525064424715,2,1.853838324579288,-0.7675117669906031,-0.3477145111362429,4th,1st,1st,1.2527356196951864,-1.2416927999598315,-1.4718804888540002
mem,resp,735,0,mem2.2.3.bmp,mem2.3.3.bmp,mem2.3.3.bmp,ACC026,"[0, 0, 3]","[0, 3, 3]","[0, 3, 3]",match,1.7113248654051871,,-2.5938432143592607,-1.1893514252435593,-0.092651984660356,1st,1st,2nd,-1.2690045783579398,-1.2416927999598315,0.0662069325104375
mem,resp,821,0,mem2.2.1.bmp,mem2.1.3.bmp,mem2.2.1.bmp,ACC026,"[0, 0, -3]","[0, -3, 3]","[0, 0, -3]",match,1.3545027756320973,,-0.9583641654394359,-0.9050010272043768,-0.19303770935572237,1st,1st,2nd,-1.2690045783579398,-1.2416927999598315,0.0662069325104375
mem,resp,822,1,mem1.3.1.bmp,mem1.2.2.bmp,mem2.2.2.bmp,ACC026,"[-3, 3, -3]","[-3, 0, 0]","[0, 0, 0]",non-match,1.2113248654051871,4,-0.7383537914327064,-2.009498013928148,-0.2589149692919062,1st,1st,2nd,-1.2690045783579398,-1.2416927999598315,0.0662069325104375
mem,resp,1079,0,mem1.3.3.bmp,mem2.1.2.bmp,mem3.1.3.bmp,ACC026,"[-3, 3, 3]","[0, -3, 0]","[3, -3, 3]",non-match,0.7752551286084112,2,-3.8344218087776047,1.0564017623684163,-0.06207355561684323,1st,4th,2nd,-1.2690045783579398,1.2888264044847115,0.0662069325104375
mem,resp,833,0,mem2.3.1.bmp,mem3.2.3.bmp,mem2.1.1.bmp,ACC026,"[0, 3, -3]","[3, 0, 3]","[0, -3, -3]",non-match,0.7155429496238267,2,-1.0533027673719657,-1.4031657426311104,-0.19712941802696274,1st,1st,2nd,-1.2690045783579398,-1.2416927999598315,0.0662069325104375
mem,resp,586,1,mem3.3.1.bmp,mem3.3.3.bmp,mem1.2.3.bmp,ACC026,"[3, 3, -3]","[3, 3, 3]","[-3, 0, 3]",non-match,0.4884773718476586,1,-1.6990524766005772,-0.5580330240897378,0.08160812242361672,1st,2nd,2nd,-1.2690045783579398,-0.28745316039254165,0.0662069325104375
mem,resp,831,1,mem3.1.1.bmp,mem2.2.1.bmp,mem3.2.1.bmp,ACC026,"[3, -3, -3]","[0, 0, -3]","[3, 0, -3]",non-match,1.4226497308103743,4,-1.0346085969682277,0.1634815143554827,0.2435881632048033,1st,3rd,2nd,-1.2690045783579398,0.256238694328685,0.0662069325104375
mem,resp,655,1,mem1.2.1.bmp,mem3.1.2.bmp,mem3.3.2.bmp,ACC026,"[-3, 0, -3]","[3, -3, 0]","[3, 3, 0]",non-match,0.7155429496238267,2,-2.2535496207327688,-0.7899435373941166,0.3936159778835259,1st,1st,3rd,-1.2690045783579398,-1.2416927999598315,0.48618266273898925
mem,resp,606,0,mem2.1.3.bmp,mem1.3.1.bmp,mem2.1.3.bmp,ACC026,"[0, -3, 3]","[-3, 3, -3]","[0, -3, 3]",match,1.1339745962155614,,-1.8064816534160577,-0.11345523090319568,0.3544779528515315,1st,2nd,3rd,-1.2690045783579398,-0.28745316039254165,0.48618266273898925
mem,resp,680,1,mem2.1.1.bmp,mem1.3.2.bmp,mem1.1.2.bmp,ACC026,"[0, -3, -3]","[-3, 3, 0]","[-3, -3, 0]",non-match,1.0144014403465114,3,-0.3101640738581038,-2.6300411400572457,0.26728811883837883,2nd,1st,2nd,-0.2645979623505311,-1.2416927999598315,0.0662069325104375
mem,resp,712,1,mem3.2.1.bmp,mem3.3.3.bmp,mem1.1.1.bmp,ACC026,"[3, 0, -3]","[3, 3, 3]","[-3, -3, -3]",non-match,0.3545027756320972,1,-0.2307153190409575,-1.5666215130296723,0.33585143542020396,2nd,1st,3rd,-0.2645979623505311,-1.2416927999598315,0.48618266273898925
mem,resp,869,1,mem3.1.3.bmp,mem3.3.2.bmp,mem3.3.2.bmp,ACC026,"[3, -3, 3]","[3, 3, 0]","[3, 3, 0]",match,1.3545027756320973,,-1.5298841423216945,-1.450144825312034,0.23363985458263659,1st,1st,2nd,-1.2690045783579398,-1.2416927999598315,0.0662069325104375
mem,resp,541,1,mem2.3.3.bmp,mem3.2.2.bmp,mem3.2.3.bmp,ACC026,"[0, 3, 3]","[3, 0, 0]","[3, 0, 3]",non-match,1.3030765749413242,4,-0.8269130666753419,-0.24284218575733293,0.27846103065112865,1st,2nd,2nd,-1.2690045783579398,-0.28745316039254165,0.0662069325104375
mem,resp,542,0,mem2.2.2.bmp,mem1.1.2.bmp,mem1.1.2.bmp,ACC026,"[0, 0, 0]","[-3, -3, 0]","[-3, -3, 0]",match,1.591751709536137,,0.2814730563824724,0.23214175221040598,0.4531766968176503,3rd,3rd,3rd,0.297136210479412,0.256238694328685,0.48618266273898925
mem,resp,573,1,mem1.2.2.bmp,mem2.2.3.bmp,mem2.2.3.bmp,ACC026,"[-3, 0, 0]","[0, 0, 3]","[0, 0, 3]",match,1.591751709536137,,-1.936627345269222,0.06589415019668796,0.3764455014946197,1st,3rd,3rd,-1.2690045783579398,0.256238694328685,0.48618266273898925
mem,resp,534,1,mem1.3.3.bmp,mem1.3.1.bmp,mem3.2.1.bmp,ACC026,"[-3, 3, 3]","[-3, 3, -3]","[3, 0, -3]",non-match,0.4884773718476586,1,0.09982734265946087,-1.6162476639993129,0.5834543727580498,3rd,1st,3rd,0.297136210479412,-1.2416927999598315,0.48618266273898925
mem,resp,1118,0,mem2.3.3.bmp,mem2.3.2.bmp,mem1.3.2.bmp,ACC026,"[0, 3, 3]","[0, 3, 0]","[-3, 3, 0]",non-match,1.3030765749413242,4,0.6204330932320149,1.9859862537545447,0.8095273232927234,3rd,4th,4th,0.297136210479412,1.2888264044847115,0.9383611562821897
mem,resp,530,1,mem2.2.2.bmp,mem2.1.3.bmp,mem2.2.2.bmp,ACC026,"[0, 0, 0]","[0, -3, 3]","[0, 0, 0]",match,1.591751709536137,,-1.2377147076650765,-0.9483363895719205,0.8232152694476883,1st,1st,4th,-1.2690045783579398,-1.2416927999598315,0.9383611562821897
mem,resp,1177,0,mem1.1.1.bmp,mem3.2.3.bmp,mem2.1.2.bmp,ACC026,"[-3, -3, -3]","[3, 0, 3]","[0, -3, 0]",non-match,1.091751709536137,4,0.39961559841258615,1.4607613360940204,0.581671129597192,3rd,4th,3rd,0.297136210479412,1.2888264044847115,0.48618266273898925
mem,resp,571,1,mem2.2.3.bmp,mem3.1.3.bmp,mem3.1.3.bmp,ACC026,"[0, 0, 3]","[3, -3, 3]","[3, -3, 3]",match,1.591751709536137,,-0.812022466347564,-0.6190488583213766,0.4849212825049602,1st,1st,3rd,-1.2690045783579398,-1.2416927999598315,0.48618266273898925
mem,resp,744,1,mem3.2.2.bmp,mem1.3.2.bmp,mem1.3.3.bmp,ACC026,"[3, 0, 0]","[-3, 3, 0]","[-3, 3, 3]",non-match,1.0042180842186395,3,-0.5971423794086224,-0.18112855153463633,0.44241837855718164,2nd,2nd,3rd,-0.2645979623505311,-0.28745316039254165,0.48618266273898925
mem,resp,808,0,mem3.1.2.bmp,mem2.3.1.bmp,mem3.1.2.bmp,ACC026,"[3, -3, 0]","[0, 3, -3]","[3, -3, 0]",match,1.2928932188134525,,-1.0402379557037629,-1.1647460084580556,0.33942082486667485,1st,1st,3rd,-1.2690045783579398,-1.2416927999598315,0.48618266273898925
mem,resp,568,1,mem1.2.3.bmp,mem3.1.1.bmp,mem1.3.1.bmp,ACC026,"[-3, 0, 3]","[3, -3, -3]","[-3, 3, -3]",non-match,0.5380061947043713,1,1.224439207676501,-1.2473528036444086,0.1706455765708057,4th,1st,2nd,1.2527356196951864,-1.2416927999598315,0.0662069325104375
mem,resp,711,1,mem3.3.2.bmp,mem1.1.3.bmp,mem2.1.1.bmp,ACC026,"[3, 3, 0]","[-3, -3, 3]","[0, -3, -3]",non-match,0.6473959944455496,1,-0.9913087958356542,-1.99595981845824,0.08352876835157333,1st,1st,2nd,-1.2690045783579398,-1.2416927999598315,0.0662069325104375
mem,resp,1057,1,mem1.2.1.bmp,mem2.1.2.bmp,mem2.2.3.bmp,ACC026,"[-3, 0, -3]","[0, -3, 0]","[0, 0, 3]",non-match,0.9462544851682343,3,-0.7971468676862378,0.08157198802014036,-0.06675178455081157,1st,3rd,2nd,-1.2690045783579398,0.256238694328685,0.0662069325104375
mem,resp,721,0,mem2.2.1.bmp,mem1.2.2.bmp,mem3.2.2.bmp,ACC026,"[0, 0, -3]","[-3, 0, 0]","[3, 0, 0]",non-match,1.0144014403465114,3,-1.2095974118350674,-0.7904512777715749,-0.2675297963148772,1st,1st,1st,-1.2690045783579398,-1.2416927999598315,-1.4718804888540002
mem,resp,513,1,mem2.1.2.bmp,mem2.1.1.bmp,mem2.1.1.bmp,ACC026,"[0, -3, 0]","[0, -3, -3]","[0, -3, -3]",match,1.7113248654051871,,-0.7844682136677618,-0.1511276666095453,0.11494253481726469,1st,2nd,2nd,-1.2690045783579398,-0.28745316039254165,0.0662069325104375
mem,resp,1028,1,mem1.2.2.bmp,mem1.1.3.bmp,mem1.1.3.bmp,ACC026,"[-3, 0, 0]","[-3, -3, 3]","[-3, -3, 3]",match,1.591751709536137,,0.26786036522707685,0.06940652031406006,0.10859724880010171,3rd,3rd,2nd,0.297136210479412,0.256238694328685,0.0662069325104375
mem,resp,470,0,mem1.2.3.bmp,mem3.1.2.bmp,mem1.2.3.bmp,ACC026,"[-3, 0, 3]","[3, -3, 0]","[-3, 0, 3]",match,1.2928932188134525,,0.18249683852860007,0.7742391006763684,0.18318694933079457,3rd,4th,2nd,0.297136210479412,1.2888264044847115,0.0662069325104375
mem,resp,611,1,mem3.2.2.bmp,mem1.2.1.bmp,mem2.3.3.bmp,ACC026,"[3, 0, 0]","[-3, 0, -3]","[0, 3, 3]",non-match,0.7928932188134524,2,-1.6124084473757556,0.2431969601709029,0.3638623983555859,1st,3rd,3rd,-1.2690045783579398,0.256238694328685,0.48618266273898925
mem,resp,542,1,mem3.2.1.bmp,mem1.1.2.bmp,mem2.1.3.bmp,ACC026,"[3, 0, -3]","[-3, -3, 0]","[0, -3, 3]",non-match,0.8846449283495895,2,0.22813295449944074,-0.23118445842871094,0.31860377025537717,3rd,2nd,3rd,0.297136210479412,-0.28745316039254165,0.48618266273898925
mem,resp,633,1,mem1.3.1.bmp,mem1.3.2.bmp,mem3.2.3.bmp,ACC026,"[-3, 3, -3]","[-3, 3, 0]","[3, 0, 3]",non-match,0.42686781502901383,1,-0.16066498964281098,-1.6660860304879452,0.4007993370197031,2nd,1st,3rd,-0.2645979623505311,-1.2416927999598315,0.48618266273898925
mem,resp,364,1,mem3.3.2.bmp,mem3.3.1.bmp,mem3.3.2.bmp,ACC026,"[3, 3, 0]","[3, 3, -3]","[3, 3, 0]",match,1.7113248654051871,,-0.2972608050326869,0.488344767042965,0.4954374695561172,2nd,3rd,3rd,-0.2645979623505311,0.256238694328685,0.48618266273898925
mem,resp,491,1,mem3.1.3.bmp,mem3.3.3.bmp,mem2.2.3.bmp,ACC026,"[3, -3, 3]","[3, 3, 3]","[0, 0, 3]",non-match,1.1835034190722742,4,-0.184695519474268,-1.1300983267978568,0.5579641466637786,2nd,1st,3rd,-0.2645979623505311,-1.2416927999598315,0.48618266273898925
mem,resp,350,1,mem2.2.2.bmp,mem1.2.2.bmp,mem2.2.2.bmp,ACC026,"[0, 0, 0]","[-3, 0, 0]","[0, 0, 0]",match,1.7113248654051871,,-0.6356519436822482,0.1823990113897878,0.5059845864324022,2nd,3rd,3rd,-0.2645979623505311,0.256238694328685,0.48618266273898925
mem,resp,531,0,mem2.1.3.bmp,mem1.3.3.bmp,mem2.1.3.bmp,ACC026,"[0, -3, 3]","[-3, 3, 3]","[0, -3, 3]",match,1.3545027756320973,,1.167074834103875,0.021521943441213144,0.6723097701609608,4th,3rd,4th,1.2527356196951864,0.256238694328685,0.9383611562821897
mem,resp,532,1,mem2.3.1.bmp,mem2.3.2.bmp,mem2.3.1.bmp,ACC026,"[0, 3, -3]","[0, 3, 0]","[0, 3, -3]",match,1.7113248654051871,,0.5250147823724449,-0.16884254454559466,0.8854708001624071,3rd,2nd,4th,0.297136210479412,-0.28745316039254165,0.9383611562821897
mem,resp,644,0,mem1.3.2.bmp,mem2.3.3.bmp,mem1.3.2.bmp,ACC026,"[-3, 3, 0]","[0, 3, 3]","[-3, 3, 0]",match,1.591751709536137,,0.15023089383853444,0.8823934370610502,0.8812801525684063,3rd,4th,4th,0.297136210479412,1.2888264044847115,0.9383611562821897
mem,resp,514,0,mem3.3.1.bmp,mem2.2.3.bmp,mem2.2.3.bmp,ACC026,"[3, 3, -3]","[0, 0, 3]","[0, 0, 3]",match,1.2928932188134525,,-0.24438377041803855,0.0903750441488754,1.1019088218391648,2nd,3rd,4th,-0.2645979623505311,0.256238694328685,0.9383611562821897
mem,resp,607,1,mem1.2.1.bmp,mem2.2.2.bmp,mem1.1.1.bmp,ACC026,"[-3, 0, -3]","[0, 0, 0]","[-3, -3, -3]",non-match,1.2113248654051871,4,1.7689471826486047,-0.8462009026956977,1.4068424720965114,4th,1st,4th,1.2527356196951864,-1.2416927999598315,0.9383611562821897
mem,resp,721,1,mem1.1.3.bmp,mem3.3.2.bmp,mem3.3.2.bmp,ACC026,"[-3, -3, 3]","[3, 3, 0]","[3, 3, 0]",match,1.1339745962155614,,-1.128060529213353,0.7638295229511701,1.469777210025921,1st,4th,4th,-1.2690045783579398,1.2888264044847115,0.9383611562821897
mem,resp,552,1,mem2.1.1.bmp,mem3.2.1.bmp,mem3.2.1.bmp,ACC026,"[0, -3, -3]","[3, 0, -3]","[3, 0, -3]",match,1.591751709536137,,-0.5287170775855687,-0.278098671942883,1.3144290913446053,2nd,2nd,4th,-0.2645979623505311,-0.28745316039254165,0.9383611562821897
mem,resp,765,1,mem3.1.2.bmp,mem1.2.3.bmp,mem1.3.3.bmp,ACC026,"[3, -3, 0]","[-3, 0, 3]","[-3, 3, 3]",non-match,0.8452994616207485,2,-1.9147788968658457,0.6118426771146522,1.0933077650069547,1st,4th,4th,-1.2690045783579398,1.2888264044847115,0.9383611562821897
mem,resp,657,1,mem3.3.3.bmp,mem2.3.1.bmp,mem3.3.3.bmp,ACC026,"[3, 3, 3]","[0, 3, -3]","[3, 3, 3]",match,1.3545027756320973,,-1.7721504361999636,-0.19652762935658633,1.11436621404505,1st,2nd,4th,-1.2690045783579398,-0.28745316039254165,0.9383611562821897
mem,resp,499,1,mem3.2.3.bmp,mem3.1.3.bmp,mem3.2.3.bmp,ACC026,"[3, 0, 3]","[3, -3, 3]","[3, 0, 3]",match,1.7113248654051871,,0.17679455587095855,-1.1310603099468963,0.6120721996862768,3rd,1st,3rd,0.297136210479412,-1.2416927999598315,0.48618266273898925
mem,resp,488,1,mem2.2.1.bmp,mem3.1.1.bmp,mem1.2.1.bmp,ACC026,"[0, 0, -3]","[3, -3, -3]","[-3, 0, -3]",non-match,1.0658276410372842,3,0.678829937046708,-0.1805861985307608,0.8266798446817546,4th,2nd,4th,1.2527356196951864,-0.28745316039254165,0.9383611562821897
mem,resp,873,1,mem1.1.1.bmp,mem2.2.2.bmp,mem1.1.1.bmp,ACC026,"[-3, -3, -3]","[0, 0, 0]","[-3, -3, -3]",match,1.5,,0.0818307318547681,0.4345237558923349,1.0782420903217698,3rd,3rd,4th,0.297136210479412,0.256238694328685,0.9383611562821897
mem,resp,373,1,mem1.1.2.bmp,mem1.2.3.bmp,mem1.1.2.bmp,ACC026,"[-3, -3, 0]","[-3, 0, 3]","[-3, -3, 0]",match,1.591751709536137,,0.9769304136971756,-0.5653783368508204,0.9094615617061195,4th,2nd,4th,1.2527356196951864,-0.28745316039254165,0.9383611562821897
mem,resp,382,1,mem2.3.2.bmp,mem2.2.3.bmp,mem2.3.2.bmp,ACC026,"[0, 3, 0]","[0, 0, 3]","[0, 3, 0]",match,1.591751709536137,,1.2644331447139947,0.015926619104931643,0.858502645834973,4th,3rd,4th,1.2527356196951864,0.256238694328685,0.9383611562821897
mem,resp,515,0,mem1.3.3.bmp,mem2.1.2.bmp,mem1.2.2.bmp,ACC026,"[-3, 3, 3]","[0, -3, 0]","[-3, 0, 0]",non-match,1.1835034190722742,4,0.0656166093154938,1.5006611666043705,0.9901967041575372,3rd,4th,4th,0.297136210479412,1.2888264044847115,0.9383611562821897
mem,resp,535,1,mem3.1.1.bmp,mem3.2.2.bmp,mem3.1.1.bmp,ACC026,"[3, -3, -3]","[3, 0, 0]","[3, -3, -3]",match,1.591751709536137,,-1.3881609602975076,0.00451891119969552,0.9405195371887877,1st,3rd,4th,-1.2690045783579398,0.256238694328685,0.9383611562821897
mem,resp,476,1,mem2.3.3.bmp,mem2.3.1.bmp,mem1.1.1.bmp,ACC026,"[0, 3, 3]","[0, 3, -3]","[-3, -3, -3]",non-match,0.4884773718476586,1,-0.08526548562729583,-0.24721252409781055,0.49110785895400066,2nd,2nd,3rd,-0.2645979623505311,-0.28745316039254165,0.48618266273898925
mem,resp,658,0,mem2.2.3.bmp,mem2.1.3.bmp,mem2.1.1.bmp,ACC026,"[0, 0, 3]","[0, -3, 3]","[0, -3, -3]",non-match,0.7771525064424715,2,1.2707948528500819,0.9669996794477624,0.6162133121578139,4th,4th,3rd,1.2527356196951864,1.2888264044847115,0.48618266273898925
mem,resp,1175,1,mem1.3.2.bmp,mem3.3.3.bmp,mem3.2.3.bmp,ACC026,"[-3, 3, 0]","[3, 3, 3]","[3, 0, 3]",non-match,1.0042180842186395,3,0.50380703119158,0.8452857507639047,0.8961900801914039,3rd,4th,4th,0.297136210479412,1.2888264044847115,0.9383611562821897
mem,resp,547,0,mem2.2.2.bmp,mem3.2.1.bmp,mem1.2.1.bmp,ACC026,"[0, 0, 0]","[3, 0, -3]","[-3, 0, -3]",non-match,1.0144014403465114,3,0.7107176858269734,-0.10830568060551778,0.915298720893587,4th,2nd,4th,1.2527356196951864,-0.28745316039254165,0.9383611562821897
mem,resp,758,0,mem3.1.2.bmp,mem3.1.3.bmp,mem3.1.3.bmp,ACC026,"[3, -3, 0]","[3, -3, 3]","[3, -3, 3]",match,1.7113248654051871,,0.08184138068920799,1.2750960211525417,1.1359972884480805,3rd,4th,4th,0.297136210479412,1.2888264044847115,0.9383611562821897
mem,resp,733,0,mem2.1.2.bmp,mem3.3.2.bmp,mem2.1.2.bmp,ACC026,"[0, -3, 0]","[3, 3, 0]","[0, -3, 0]",match,1.3545027756320973,,-0.17158828220381592,0.6900257838935522,0.7703619379360925,2nd,4th,4th,-0.2645979623505311,1.2888264044847115,0.9383611562821897
mem,resp,746,0,mem3.1.1.bmp,mem1.3.3.bmp,mem1.3.2.bmp,ACC026,"[3, -3, -3]","[-3, 3, 3]","[-3, 3, 0]",non-match,0.8452994616207485,2,-0.7493106392890992,1.0255215750949864,0.5722298943834648,1st,4th,3rd,-1.2690045783579398,1.2888264044847115,0.48618266273898925
mem,resp,697,0,mem3.2.1.bmp,mem2.1.1.bmp,mem3.2.2.bmp,ACC026,"[3, 0, -3]","[0, -3, -3]","[3, 0, 0]",non-match,1.2113248654051871,4,-0.11176717804618412,0.012135518493837602,0.15435015870793672,2nd,3rd,2nd,-0.2645979623505311,0.256238694328685,0.0662069325104375
mem,resp,902,1,mem1.3.1.bmp,mem1.2.2.bmp,mem1.2.3.bmp,ACC026,"[-3, 3, -3]","[-3, 0, 0]","[-3, 0, 3]",non-match,1.0658276410372842,3,0.03331592751161726,-0.1129409102907067,0.08457149009236944,3rd,2nd,2nd,0.297136210479412,-0.28745316039254165,0.0662069325104375
mem,resp,672,1,mem3.1.3.bmp,mem1.2.1.bmp,mem2.3.3.bmp,ACC026,"[3, -3, 3]","[-3, 0, -3]","[0, 3, 3]",non-match,0.6473959944455496,1,0.31277120828254307,0.35222065478192793,0.09280756567599474,3rd,3rd,2nd,0.297136210479412,0.256238694328685,0.0662069325104375
mem,resp,533,0,mem3.3.3.bmp,mem1.1.2.bmp,mem3.3.2.bmp,ACC026,"[3, 3, 3]","[-3, -3, 0]","[3, 3, 0]",non-match,0.8948282844774612,2,0.012396976338028522,0.45579668198982565,-0.07257628861630483,2nd,3rd,2nd,-0.2645979623505311,0.256238694328685,0.0662069325104375
mem,resp,333,1,mem2.3.2.bmp,mem1.1.3.bmp,mem3.1.1.bmp,ACC026,"[0, 3, 0]","[-3, -3, 3]","[3, -3, -3]",non-match,0.4763966378857265,1,0.11890233252543242,1.2850160057852316,-0.1155519488481178,3rd,4th,2nd,0.297136210479412,1.2888264044847115,0.0662069325104375
mem,resp,423,1,mem1.2.3.bmp,mem2.2.1.bmp,mem1.3.3.bmp,ACC026,"[-3, 0, 3]","[0, 0, -3]","[-3, 3, 3]",non-match,1.0042180842186395,3,-0.5905508077187445,1.5787247078570623,-0.046991556362535034,2nd,4th,2nd,-0.2645979623505311,1.2888264044847115,0.0662069325104375
mem,resp,714,1,mem3.2.3.bmp,mem3.3.1.bmp,mem3.2.3.bmp,ACC026,"[3, 0, 3]","[3, 3, -3]","[3, 0, 3]",match,1.3545027756320973,,-0.5279084959686533,-0.06862361751456848,-0.40698233405682666,2nd,2nd,1st,-0.2645979623505311,-0.28745316039254165,-1.4718804888540002
mem,resp,525,1,mem1.1.1.bmp,mem1.3.2.bmp,mem3.2.2.bmp,ACC026,"[-3, -3, -3]","[-3, 3, 0]","[3, 0, 0]",non-match,0.6473959944455496,1,0.07043138001668667,-1.0078507203975633,-0.24638424647276966,3rd,1st,2nd,0.297136210479412,-1.2416927999598315,0.0662069325104375
mem,resp,738,1,mem2.3.1.bmp,mem3.1.1.bmp,mem2.2.1.bmp,ACC026,"[0, 3, -3]","[3, -3, -3]","[0, 0, -3]",non-match,1.3030765749413242,4,-1.0546591977487083,-0.22391689866900022,-0.2650320173169337,1st,2nd,2nd,-1.2690045783579398,-0.28745316039254165,0.0662069325104375
mem,resp,417,1,mem1.2.1.bmp,mem3.1.2.bmp,mem3.1.2.bmp,ACC026,"[-3, 0, -3]","[3, -3, 0]","[3, -3, 0]",match,1.2928932188134525,,-0.7110289482037374,-0.548528686051857,-0.25770579138058763,1st,2nd,2nd,-1.2690045783579398,-0.28745316039254165,0.0662069325104375
mem,resp,428,0,mem1.2.3.bmp,mem3.3.3.bmp,mem3.2.1.bmp,ACC026,"[-3, 0, 3]","[3, 3, 3]","[3, 0, -3]",non-match,0.5380061947043713,1,-0.034529531590782515,-0.7272821280186466,-0.28996672685809066,2nd,1st,1st,-0.2645979623505311,-1.2416927999598315,-1.4718804888540002
mem,resp,367,1,mem1.1.2.bmp,mem1.2.2.bmp,mem1.1.2.bmp,ACC026,"[-3, -3, 0]","[-3, 0, 0]","[-3, -3, 0]",match,1.7113248654051871,,1.2014319729019658,0.2975024300602508,0.05984232760457435,4th,3rd,2nd,1.2527356196951864,0.256238694328685,0.0662069325104375
mem,resp,455,0,mem3.2.2.bmp,mem1.3.2.bmp,mem1.3.2.bmp,ACC026,"[3, 0, 0]","[-3, 3, 0]","[-3, 3, 0]",match,1.3545027756320973,,-0.09385780746940735,0.6092048585929741,0.0529243217089917,2nd,4th,2nd,-0.2645979623505311,1.2888264044847115,0.0662069325104375
mem,resp,788,1,mem2.1.2.bmp,mem1.1.3.bmp,mem3.1.1.bmp,ACC026,"[0, -3, 0]","[-3, -3, 3]","[3, -3, -3]",non-match,0.7752551286084112,2,0.7287576696628074,-1.4259924267252244,0.11733356809347047,4th,1st,2nd,1.2527356196951864,-1.2416927999598315,0.0662069325104375
mem,resp,902,1,mem2.2.3.bmp,mem2.3.3.bmp,mem3.1.3.bmp,ACC026,"[0, 0, 3]","[0, 3, 3]","[3, -3, 3]",non-match,0.9462544851682343,3,0.29951248524318336,-1.2173612874395974,0.30936157831143574,3rd,1st,3rd,0.297136210479412,-1.2416927999598315,0.48618266273898925
mem,resp,571,1,mem3.2.1.bmp,mem3.3.1.bmp,mem3.3.3.bmp,ACC026,"[3, 0, -3]","[3, 3, -3]","[3, 3, 3]",non-match,0.7771525064424715,2,0.8443819084965036,-0.628834375998753,0.5404602705798199,4th,1st,3rd,1.2527356196951864,-1.2416927999598315,0.48618266273898925
mem,resp,1099,0,mem2.1.1.bmp,mem1.2.1.bmp,mem2.2.2.bmp,ACC026,"[0, -3, -3]","[-3, 0, -3]","[0, 0, 0]",non-match,1.1835034190722742,4,-0.012368198747751167,0.5764765990326717,0.44699855753997336,2nd,4th,3rd,-0.2645979623505311,1.2888264044847115,0.48618266273898925
mem,resp,901,0,mem2.3.2.bmp,mem1.3.3.bmp,mem1.3.3.bmp,ACC026,"[0, 3, 0]","[-3, 3, 3]","[-3, 3, 3]",match,1.591751709536137,,-1.3990460772149127,0.08448405185291778,0.4799154587465852,1st,3rd,3rd,-1.2690045783579398,0.256238694328685,0.48618266273898925
mem,resp,625,1,mem1.3.2.bmp,mem3.1.3.bmp,mem3.1.3.bmp,ACC026,"[-3, 3, 0]","[3, -3, 3]","[3, -3, 3]",match,1.1339745962155614,,-1.1482953278784132,0.09020333837468839,0.6115430470204103,1st,3rd,3rd,-1.2690045783579398,0.256238694328685,0.48618266273898925
mem,resp,1040,0,mem3.1.2.bmp,mem2.1.3.bmp,mem3.2.2.bmp,ACC026,"[3, -3, 0]","[0, -3, 3]","[3, 0, 0]",non-match,1.2113248654051871,4,-0.7869028411084052,0.31446580384490225,0.38174118128517637,1st,3rd,3rd,-1.2690045783579398,0.256238694328685,0.48618266273898925
mem,resp,842,1,mem1.1.1.bmp,mem2.1.2.bmp,mem1.1.1.bmp,ACC026,"[-3, -3, -3]","[0, -3, 0]","[-3, -3, -3]",match,1.591751709536137,,-0.7313400436118392,0.34804341535643185,0.5643620917944879,1st,3rd,3rd,-1.2690045783579398,0.256238694328685,0.48618266273898925
mem,resp,503,0,mem3.3.1.bmp,mem2.3.1.bmp,mem2.3.1.bmp,ACC026,"[3, 3, -3]","[0, 3, -3]","[0, 3, -3]",match,1.7113248654051871,,-0.2658018104091193,0.3791737695921501,0.6947188213160975,2nd,3rd,4th,-0.2645979623505311,0.256238694328685,0.9383611562821897
mem,resp,816,0,mem3.1.3.bmp,mem1.2.3.bmp,mem3.1.3.bmp,ACC026,"[3, -3, 3]","[-3, 0, 3]","[3, -3, 3]",match,1.3545027756320973,,0.5142904712462288,-0.7697776399402543,0.49999031883973244,3rd,1st,3rd,0.297136210479412,-1.2416927999598315,0.48618266273898925
mem,resp,1313,1,mem3.3.3.bmp,mem3.3.2.bmp,mem2.3.3.bmp,ACC026,"[3, 3, 3]","[3, 3, 0]","[0, 3, 3]",non-match,1.3030765749413242,4,-0.07774183471626826,0.3565083123217058,0.37687510707810173,2nd,3rd,3rd,-0.2645979623505311,0.256238694328685,0.48618266273898925
mem,resp,553,1,mem2.1.3.bmp,mem2.2.1.bmp,mem1.3.3.bmp,ACC026,"[0, -3, 3]","[0, 0, -3]","[-3, 3, 3]",non-match,0.6473959944455496,1,0.11647243524663783,-0.1896023303418127,0.3705432969515715,3rd,2nd,3rd,0.297136210479412,-0.28745316039254165,0.48618266273898925
mem,resp,684,1,mem3.2.3.bmp,mem1.1.2.bmp,mem3.1.2.bmp,ACC026,"[3, 0, 3]","[-3, -3, 0]","[3, -3, 0]",non-match,1.0144014403465114,3,0.9002980831383565,0.31090917205691976,0.3963268862171501,4th,3rd,3rd,1.2527356196951864,0.256238694328685,0.48618266273898925
mem,resp,656,0,mem3.1.1.bmp,mem2.1.1.bmp,mem2.1.1.bmp,ACC026,"[3, -3, -3]","[0, -3, -3]","[0, -3, -3]",match,1.7113248654051871,,-1.5130322396449283,0.4840233526024019,0.6447461081309531,1st,3rd,3rd,-1.2690045783579398,0.256238694328685,0.48618266273898925
mem,resp,779,1,mem1.3.1.bmp,mem3.3.2.bmp,mem3.1.3.bmp,ACC026,"[-3, 3, -3]","[3, 3, 0]","[3, -3, 3]",non-match,0.3545027756320972,1,-0.2578155978219416,-0.172912493681532,0.8731253925452189,2nd,2nd,4th,-0.2645979623505311,-0.28745316039254165,0.9383611562821897
mem,resp,548,1,mem2.2.1.bmp,mem2.3.1.bmp,mem3.2.1.bmp,ACC026,"[0, 0, -3]","[0, 3, -3]","[3, 0, -3]",non-match,1.3030765749413242,4,1.318768143128111,-1.6226703662116002,0.8134372352175945,4th,1st,4th,1.2527356196951864,-1.2416927999598315,0.9383611562821897
mem,resp,589,1,mem2.2.2.bmp,mem2.3.3.bmp,mem3.3.1.bmp,ACC026,"[0, 0, 0]","[0, 3, 3]","[3, 3, -3]",non-match,0.8545027756320972,2,-0.3236774098281237,0.23845081073916602,0.7092888971329246,2nd,3rd,4th,-0.2645979623505311,0.256238694328685,0.9383611562821897
mem,resp,642,1,mem1.2.2.bmp,mem3.2.2.bmp,mem2.3.2.bmp,ACC026,"[-3, 0, 0]","[3, 0, 0]","[0, 3, 0]",non-match,1.1835034190722742,4,-0.22633506688698804,0.18437479335026025,0.5450617793826181,2nd,3rd,3rd,-0.2645979623505311,0.256238694328685,0.48618266273898925
mem,resp,683,1,mem1.3.3.bmp,mem2.1.3.bmp,mem1.1.2.bmp,ACC026,"[-3, 3, 3]","[0, -3, 3]","[-3, -3, 0]",non-match,0.9462544851682343,3,-1.1072165766507518,0.2911088022328454,0.48853757986543467,1st,3rd,3rd,-1.2690045783579398,0.256238694328685,0.48618266273898925
mem,resp,584,1,mem3.3.2.bmp,mem3.1.2.bmp,mem1.1.1.bmp,ACC026,"[3, 3, 0]","[3, -3, 0]","[-3, -3, -3]",non-match,0.4884773718476586,1,-0.012400443887818496,-1.3867849741512819,0.5025101101957584,2nd,1st,3rd,-0.2645979623505311,-1.2416927999598315,0.48618266273898925
mem,resp,354,1,mem1.1.3.bmp,mem2.2.3.bmp,mem1.1.3.bmp,ACC026,"[-3, -3, 3]","[0, 0, 3]","[-3, -3, 3]",match,1.591751709536137,,0.34574079262969964,2.0651383960420016,0.44427703391839507,3rd,4th,3rd,0.297136210479412,1.2888264044847115,0.48618266273898925
mem,resp,473,1,mem2.3.3.bmp,mem1.3.2.bmp,mem3.2.2.bmp,ACC026,"[0, 3, 3]","[-3, 3, 0]","[3, 0, 0]",non-match,0.8545027756320972,2,1.7008982758444118,0.07476436603362908,0.5736499142932463,4th,3rd,3rd,1.2527356196951864,0.256238694328685,0.48618266273898925
mem,resp,552,0,mem3.2.1.bmp,mem1.2.3.bmp,mem3.2.1.bmp,ACC026,"[3, 0, -3]","[-3, 0, 3]","[3, 0, -3]",match,1.1835034190722742,,0.29419791991800126,1.62624368333067,0.4817677425528222,3rd,4th,3rd,0.297136210479412,1.2888264044847115,0.48618266273898925
mem,resp,522,1,mem2.1.1.bmp,mem2.3.2.bmp,mem2.1.2.bmp,ACC026,"[0, -3, -3]","[0, 3, 0]","[0, -3, 0]",non-match,1.1339745962155614,4,-1.624339700725756,-0.20004905836254314,0.2960321716829326,1st,2nd,2nd,-1.2690045783579398,-0.28745316039254165,0.0662069325104375
mem,resp,635,1,mem3.3.3.bmp,mem1.1.3.bmp,mem3.3.3.bmp,ACC026,"[3, 3, 3]","[-3, -3, 3]","[3, 3, 3]",match,1.1835034190722742,,0.5826551593824483,0.49942611889690247,0.5898843706353858,3rd,3rd,3rd,0.297136210479412,0.256238694328685,0.48618266273898925
mem,resp,567,1,mem1.3.3.bmp,mem3.3.1.bmp,mem3.2.2.bmp,ACC026,"[-3, 3, 3]","[3, 3, -3]","[3, 0, 0]",non-match,0.8846449283495895,2,-0.25510587975250715,0.07695726624233402,0.3166769297416924,2nd,3rd,3rd,-0.2645979623505311,0.256238694328685,0.48618266273898925
mem,resp,516,1,mem3.1.1.bmp,mem2.2.2.bmp,mem1.2.1.bmp,ACC026,"[3, -3, -3]","[0, 0, 0]","[-3, 0, -3]",non-match,0.9462544851682343,3,0.16692501397466528,-1.737124964118008,0.122514549523296,3rd,1st,2nd,0.297136210479412,-1.2416927999598315,0.0662069325104375
mem,resp,589,1,mem1.3.1.bmp,mem1.2.2.bmp,mem1.2.2.bmp,ACC026,"[-3, 3, -3]","[-3, 0, 0]","[-3, 0, 0]",match,1.591751709536137,,0.3183451626613146,2.6774628455024834,0.10712592175061363,3rd,4th,2nd,0.297136210479412,1.2888264044847115,0.0662069325104375
mem,resp,578,1,mem2.3.2.bmp,mem3.3.3.bmp,mem2.3.2.bmp,ACC026,"[0, 3, 0]","[3, 3, 3]","[0, 3, 0]",match,1.591751709536137,,-0.9704767967562795,-0.2833980627494658,0.39156099429653907,1st,2nd,3rd,-1.2690045783579398,-0.28745316039254165,0.48618266273898925
mem,resp,527,0,mem3.3.1.bmp,mem3.1.3.bmp,mem3.1.3.bmp,ACC026,"[3, 3, -3]","[3, -3, 3]","[3, -3, 3]",match,1.1835034190722742,,0.5578887449701168,0.7722947740098092,-0.08812301313808425,3rd,4th,2nd,0.297136210479412,1.2888264044847115,0.0662069325104375
mem,resp,455,1,mem2.2.2.bmp,mem2.1.2.bmp,mem2.1.2.bmp,ACC026,"[0, 0, 0]","[0, -3, 0]","[0, -3, 0]",match,1.7113248654051871,,1.0065256081155936,-0.0905054661685323,-0.14027577047065365,4th,2nd,2nd,1.2527356196951864,-0.28745316039254165,0.0662069325104375
mem,resp,629,1,mem1.1.3.bmp,mem1.1.1.bmp,mem1.1.3.bmp,ACC026,"[-3, -3, 3]","[-3, -3, -3]","[-3, -3, 3]",match,1.4226497308103743,,-0.6748300175286344,-0.5554951189125171,0.2146862580273145,1st,2nd,2nd,-1.2690045783579398,-0.28745316039254165,0.0662069325104375
mem,resp,408,1,mem2.2.1.bmp,mem2.1.1.bmp,mem2.2.1.bmp,ACC026,"[0, 0, -3]","[0, -3, -3]","[0, 0, -3]",match,1.7113248654051871,,0.7592344785441353,-0.9963590481031803,0.14141622659030553,4th,1st,2nd,1.2527356196951864,-1.2416927999598315,0.0662069325104375
mem,resp,641,1,mem1.2.2.bmp,mem1.1.2.bmp,mem3.3.2.bmp,ACC026,"[-3, 0, 0]","[-3, -3, 0]","[3, 3, 0]",non-match,0.5380061947043713,1,-0.399729569820428,-0.19085779787477708,0.11365358015476835,2nd,2nd,2nd,-0.2645979623505311,-0.28745316039254165,0.0662069325104375
mem,resp,431,0,mem3.1.2.bmp,mem3.2.3.bmp,mem3.2.1.bmp,ACC026,"[3, -3, 0]","[3, 0, 3]","[3, 0, -3]",non-match,1.0144014403465114,3,0.09796356449357464,-0.3687696779443673,-0.08681104077612739,3rd,2nd,2nd,0.297136210479412,-0.28745316039254165,0.0662069325104375
mem,resp,701,1,mem2.1.3.bmp,mem1.1.1.bmp,mem2.1.3.bmp,ACC026,"[0, -3, 3]","[-3, -3, -3]","[0, -3, 3]",match,1.3545027756320973,,0.9011581860289143,-1.54972238598203,-0.291512581201977,4th,1st,1st,1.2527356196951864,-1.2416927999598315,-1.4718804888540002
mem,resp,443,1,mem3.1.2.bmp,mem3.1.1.bmp,mem1.1.2.bmp,ACC026,"[3, -3, 0]","[3, -3, -3]","[-3, -3, 0]",non-match,0.7771525064424715,2,-0.7659458946119869,-0.8250252637502078,-0.1498720350646403,1st,1st,2nd,-1.2690045783579398,-1.2416927999598315,0.0662069325104375
mem,resp,562,1,mem2.2.2.bmp,mem3.3.2.bmp,mem1.2.1.bmp,ACC026,"[0, 0, 0]","[3, 3, 0]","[-3, 0, -3]",non-match,0.8846449283495895,2,-1.0349492980527883,-0.21208501642041805,0.12869328019975096,1st,2nd,2nd,-1.2690045783579398,-0.28745316039254165,0.0662069325104375
mem,resp,533,1,mem3.3.3.bmp,mem1.1.3.bmp,mem3.3.1.bmp,ACC026,"[3, 3, 3]","[-3, -3, 3]","[3, 3, -3]",non-match,0.42264973081037427,1,-0.47427109928834627,-0.19423587808351805,0.6883676404212749,2nd,2nd,4th,-0.2645979623505311,-0.28745316039254165,0.9383611562821897
mem,resp,581,0,mem2.1.2.bmp,mem2.3.3.bmp,mem2.3.3.bmp,ACC026,"[0, -3, 0]","[0, 3, 3]","[0, 3, 3]",match,1.3545027756320973,,0.5781567756558688,1.359900437792465,0.789356402673043,3rd,4th,4th,0.297136210479412,1.2888264044847115,0.9383611562821897
mem,resp,704,1,mem2.2.3.bmp,mem2.2.1.bmp,mem3.1.2.bmp,ACC026,"[0, 0, 3]","[0, 0, -3]","[3, -3, 0]",non-match,1.0,3,-0.29841513216425225,0.1388712582939923,0.9627325695625084,2nd,3rd,4th,-0.2645979623505311,0.256238694328685,0.9383611562821897
mem,resp,676,1,mem2.3.2.bmp,mem2.3.1.bmp,mem1.3.1.bmp,ACC026,"[0, 3, 0]","[0, 3, -3]","[-3, 3, -3]",non-match,1.3030765749413242,4,-0.6516851911327011,-0.26083160408228595,1.0205950236457189,1st,2nd,4th,-1.2690045783579398,-0.28745316039254165,0.9383611562821897
mem,resp,819,1,mem1.3.2.bmp,mem3.2.1.bmp,mem1.3.2.bmp,ACC026,"[-3, 3, 0]","[3, 0, -3]","[-3, 3, 0]",match,1.2928932188134525,,-0.8721100629632275,0.4287507357024439,1.2237663181496432,1st,3rd,4th,-1.2690045783579398,0.256238694328685,0.9383611562821897
mem,resp,528,0,mem3.3.1.bmp,mem2.1.3.bmp,mem1.1.1.bmp,ACC026,"[3, 3, -3]","[0, -3, 3]","[-3, -3, -3]",non-match,0.5380061947043713,1,-1.086694740544004,0.386257938496633,1.0848714467592404,1st,3rd,4th,-1.2690045783579398,0.256238694328685,0.9383611562821897
mem,resp,722,0,mem1.3.3.bmp,mem1.2.2.bmp,mem1.2.2.bmp,ACC026,"[-3, 3, 3]","[-3, 0, 0]","[-3, 0, 0]",match,1.591751709536137,,-1.5688234668001597,0.9148748935460315,1.3110685186109254,1st,4th,4th,-1.2690045783579398,1.2888264044847115,0.9383611562821897
mem,resp,511,1,mem1.2.1.bmp,mem2.3.2.bmp,mem2.3.1.bmp,ACC026,"[-3, 0, -3]","[0, 3, 0]","[0, 3, -3]",non-match,1.3030765749413242,4,1.1604385379373923,-0.496323875049663,1.316731401807342,4th,2nd,4th,1.2527356196951864,-0.28745316039254165,0.9383611562821897
mem,resp,499,1,mem1.1.3.bmp,mem1.1.2.bmp,mem1.1.3.bmp,ACC026,"[-3, -3, 3]","[-3, -3, 0]","[-3, -3, 3]",match,1.7113248654051871,,0.16306218634689787,-0.7009673550219625,1.2856643545581203,3rd,1st,4th,0.297136210479412,-1.2416927999598315,0.9383611562821897
mem,resp,1004,1,mem3.3.2.bmp,mem3.2.2.bmp,mem3.2.2.bmp,ACC026,"[3, 3, 0]","[3, 0, 0]","[3, 0, 0]",match,1.7113248654051871,,0.27239640237416207,-0.27940241420459294,0.9034316481399798,3rd,2nd,4th,0.297136210479412,-0.28745316039254165,0.9383611562821897
mem,resp,568,1,mem2.1.1.bmp,mem3.1.3.bmp,mem3.1.3.bmp,ACC026,"[0, -3, -3]","[3, -3, 3]","[3, -3, 3]",match,1.3545027756320973,,-0.1009289065103558,0.11192941545588529,0.8425714547777868,2nd,3rd,4th,-0.2645979623505311,0.256238694328685,0.9383611562821897
mem,resp,377,1,mem1.3.1.bmp,mem1.3.2.bmp,mem1.3.1.bmp,ACC026,"[-3, 3, -3]","[-3, 3, 0]","[-3, 3, -3]",match,1.7113248654051871,,-1.5505638074027652,0.48536011407038676,0.662718902503629,1st,3rd,4th,-1.2690045783579398,0.256238694328685,0.9383611562821897
mem,resp,748,1,mem1.1.1.bmp,mem3.2.3.bmp,mem2.1.3.bmp,ACC026,"[-3, -3, -3]","[3, 0, 3]","[0, -3, 3]",non-match,0.9462544851682343,3,0.4670353184110707,-0.8177782118978797,0.4993308028023477,3rd,1st,3rd,0.297136210479412,-1.2416927999598315,0.48618266273898925
mem,resp,578,1,mem2.3.1.bmp,mem1.3.3.bmp,mem2.3.1.bmp,ACC026,"[0, 3, -3]","[-3, 3, 3]","[0, 3, -3]",match,1.3545027756320973,,-0.6106921779125681,0.6625000410967571,0.6586031420705132,2nd,4th,4th,-0.2645979623505311,1.2888264044847115,0.9383611562821897
mem,resp,530,1,mem3.2.1.bmp,mem2.1.1.bmp,mem3.2.1.bmp,ACC026,"[3, 0, -3]","[0, -3, -3]","[3, 0, -3]",match,1.591751709536137,,0.33054345857595596,0.029878900945759387,0.3184913113820227,3rd,3rd,3rd,0.297136210479412,0.256238694328685,0.48618266273898925
mem,resp,397,0,mem3.1.1.bmp,mem2.2.2.bmp,mem3.3.2.bmp,ACC026,"[3, -3, -3]","[0, 0, 0]","[3, 3, 0]",non-match,0.9462544851682343,3,0.9698900850849461,1.5151792306267176,0.14478621480240944,4th,4th,2nd,1.2527356196951864,1.2888264044847115,0.0662069325104375
mem,resp,624,1,mem3.1.3.bmp,mem2.1.2.bmp,mem3.3.1.bmp,ACC026,"[3, -3, 3]","[0, -3, 0]","[3, 3, -3]",non-match,0.4763966378857265,1,0.46326341248416053,-0.17800046124150057,0.45220177560039554,3rd,2nd,3rd,0.297136210479412,-0.28745316039254165,0.48618266273898925
mem,resp,575,1,mem2.3.3.bmp,mem3.3.3.bmp,mem2.3.3.bmp,ACC026,"[0, 3, 3]","[3, 3, 3]","[0, 3, 3]",match,1.7113248654051871,,-0.38899382265483595,0.21697687764154436,0.3684438598461844,2nd,3rd,3rd,-0.2645979623505311,0.256238694328685,0.48618266273898925
mem,resp,475,1,mem1.2.3.bmp,mem2.2.3.bmp,mem3.1.2.bmp,ACC026,"[-3, 0, 3]","[0, 0, 3]","[3, -3, 0]",non-match,0.7928932188134524,2,0.6808476245646723,-1.027442057105236,0.29097645819353174,4th,1st,2nd,1.2527356196951864,-1.2416927999598315,0.0662069325104375
mem,resp,462,1,mem1.2.2.bmp,mem3.3.2.bmp,mem3.3.2.bmp,ACC026,"[-3, 0, 0]","[3, 3, 0]","[3, 3, 0]",match,1.3545027756320973,,0.5539565302788958,-1.0057902658612135,0.04797611894897916,3rd,1st,2nd,0.297136210479412,-1.2416927999598315,0.0662069325104375
mem,resp,1028,1,mem2.2.1.bmp,mem1.3.3.bmp,mem2.2.1.bmp,ACC026,"[0, 0, -3]","[-3, 3, 3]","[0, 0, -3]",match,1.2928932188134525,,-0.9289817439332728,-0.4981893274191953,0.21765950495868408,1st,2nd,2nd,-1.2690045783579398,-0.28745316039254165,0.0662069325104375
mem,resp,690,1,mem3.2.2.bmp,mem2.3.3.bmp,mem1.1.1.bmp,ACC026,"[3, 0, 0]","[0, 3, 3]","[-3, -3, -3]",non-match,0.42686781502901383,1,0.204855561749277,-0.624362147292531,0.1615795666490077,3rd,1st,2nd,0.297136210479412,-1.2416927999598315,0.0662069325104375
mem,resp,499,1,mem3.2.3.bmp,mem1.3.1.bmp,mem2.1.1.bmp,ACC026,"[3, 0, 3]","[-3, 3, -3]","[0, -3, -3]",non-match,0.6473959944455496,1,-1.3139357599960992,-1.4982420822785165,0.5408447180048039,1st,1st,3rd,-1.2690045783579398,-1.2416927999598315,0.48618266273898925
mem,resp,530,1,mem1.1.2.bmp,mem1.2.2.bmp,mem2.3.2.bmp,ACC026,"[-3, -3, 0]","[-3, 0, 0]","[0, 3, 0]",non-match,0.9462544851682343,3,1.3397713663332422,0.05627679735984934,0.593489063437978,4th,3rd,3rd,1.2527356196951864,0.256238694328685,0.48618266273898925
mem,resp,507,1,mem1.3.2.bmp,mem2.1.3.bmp,mem3.1.1.bmp,ACC026,"[-3, 3, 0]","[0, -3, 3]","[3, -3, -3]",non-match,0.4884773718476586,1,1.0532580637510416,-0.909513312722501,0.4946335279726764,4th,1st,3rd,1.2527356196951864,-1.2416927999598315,0.48618266273898925
mem,resp,810,1,mem3.2.2.bmp,mem1.2.1.bmp,mem2.1.2.bmp,ACC026,"[3, 0, 0]","[-3, 0, -3]","[0, -3, 0]",non-match,1.091751709536137,4,-0.571103280215061,1.2349446663220043,0.6280381641359496,2nd,4th,3rd,-0.2645979623505311,1.2888264044847115,0.48618266273898925
mem,resp,622,1,mem1.1.1.bmp,mem2.1.1.bmp,mem2.2.3.bmp,ACC026,"[-3, -3, -3]","[0, -3, -3]","[0, 0, 3]",non-match,0.6473959944455496,1,0.26335662819514327,0.4213075751415322,0.5291102385700682,3rd,3rd,3rd,0.297136210479412,0.256238694328685,0.48618266273898925
mem,resp,702,1,mem2.2.1.bmp,mem2.3.2.bmp,mem2.2.1.bmp,ACC026,"[0, 0, -3]","[0, 3, 0]","[0, 0, -3]",match,1.591751709536137,,1.36116481460735,3.502431337468059,0.5632047448887951,4th,4th,3rd,1.2527356196951864,1.2888264044847115,0.48618266273898925
mem,resp,583,1,mem2.3.3.bmp,mem1.1.2.bmp,mem1.1.2.bmp,ACC026,"[0, 3, 3]","[-3, -3, 0]","[-3, -3, 0]",match,1.2928932188134525,,-1.1947993979245342,0.24030271903749117,0.5770693904956044,1st,3rd,3rd,-1.2690045783579398,0.256238694328685,0.48618266273898925
mem,resp,825,0,mem2.2.2.bmp,mem1.3.2.bmp,mem1.3.2.bmp,ACC026,"[0, 0, 0]","[-3, 3, 0]","[-3, 3, 0]",match,1.591751709536137,,-0.7793274889324775,-1.58883789968917,0.5734984980394795,1st,1st,3rd,-1.2690045783579398,-1.2416927999598315,0.48618266273898925
mem,resp,656,1,mem1.1.3.bmp,mem3.2.1.bmp,mem3.2.1.bmp,ACC026,"[-3, -3, 3]","[3, 0, -3]","[3, 0, -3]",match,1.1339745962155614,,0.186759914035424,0.2079323888535215,0.6821044501517057,3rd,3rd,4th,0.297136210479412,0.256238694328685,0.9383611562821897
mem,resp,607,1,mem2.2.3.bmp,mem2.3.1.bmp,mem1.3.1.bmp,ACC026,"[0, 0, 3]","[0, 3, -3]","[-3, 3, -3]",non-match,1.0042180842186395,3,0.5276445833923851,-0.3685034587495377,0.6669668240634421,3rd,2nd,4th,0.297136210479412,-0.28745316039254165,0.9383611562821897
mem,resp,549,1,mem2.3.2.bmp,mem3.3.3.bmp,mem2.1.1.bmp,ACC026,"[0, 3, 0]","[3, 3, 3]","[0, -3, -3]",non-match,0.4884773718476586,1,0.34966775645390086,0.5102815591840463,0.473544017532411,3rd,3rd,3rd,0.297136210479412,0.256238694328685,0.48618266273898925
mem,resp,548,0,mem3.3.1.bmp,mem3.2.3.bmp,mem3.2.2.bmp,ACC026,"[3, 3, -3]","[3, 0, 3]","[3, 0, 0]",non-match,1.3030765749413242,4,0.7590013292470156,1.2251643715217597,0.1027716147485132,4th,4th,2nd,1.2527356196951864,1.2888264044847115,0.0662069325104375
mem,resp,878,1,mem2.1.2.bmp,mem3.1.2.bmp,mem2.1.2.bmp,ACC026,"[0, -3, 0]","[3, -3, 0]","[0, -3, 0]",match,1.7113248654051871,,-0.6954214032179744,-0.09916599971790323,0.24290800519509453,1st,2nd,2nd,-1.2690045783579398,-0.28745316039254165,0.0662069325104375
mem,resp,591,1,mem1.2.1.bmp,mem1.1.3.bmp,mem1.1.3.bmp,ACC026,"[-3, 0, -3]","[-3, -3, 3]","[-3, -3, 3]",match,1.3545027756320973,,0.3145742241271896,0.4044383901919397,0.33128822772394695,3rd,3rd,3rd,0.297136210479412,0.256238694328685,0.48618266273898925
mem,resp,669,1,mem1.2.2.bmp,mem1.3.2.bmp,mem1.3.2.bmp,ACC026,"[-3, 0, 0]","[-3, 3, 0]","[-3, 3, 0]",match,1.7113248654051871,,-1.4851846631096923,-1.3909675323541966,0.2107210289585174,1st,1st,2nd,-1.2690045783579398,-1.2416927999598315,0.0662069325104375
mem,resp,519,1,mem3.2.1.bmp,mem3.1.2.bmp,mem1.2.2.bmp,ACC026,"[3, 0, -3]","[3, -3, 0]","[-3, 0, 0]",non-match,0.7090055512641944,2,2.1905912250745914,0.9903689562964675,0.08354122355685988,4th,4th,2nd,1.2527356196951864,1.2888264044847115,0.0662069325104375
mem,resp,800,1,mem2.3.2.bmp,mem3.3.3.bmp,mem3.3.3.bmp,ACC026,"[0, 3, 0]","[3, 3, 3]","[3, 3, 3]",match,1.591751709536137,,0.10415620930220272,1.594736573754719,0.1992997043348471,3rd,4th,2nd,0.297136210479412,1.2888264044847115,0.0662069325104375
mem,resp,913,0,mem2.2.3.bmp,mem1.2.1.bmp,mem2.2.3.bmp,ACC026,"[0, 0, 3]","[-3, 0, -3]","[0, 0, 3]",match,1.3545027756320973,,0.30785933592052195,0.47592984056132653,0.2583674330673768,3rd,3rd,2nd,0.297136210479412,0.256238694328685,0.0662069325104375
mem,resp,685,1,mem3.2.2.bmp,mem1.3.2.bmp,mem2.2.1.bmp,ACC026,"[3, 0, 0]","[-3, 3, 0]","[0, 0, -3]",non-match,1.091751709536137,4,-0.262589359168223,-0.21303959311657522,0.40124906392320775,2nd,2nd,3rd,-0.2645979623505311,-0.28745316039254165,0.48618266273898925
mem,resp,601,1,mem1.1.2.bmp,mem2.3.3.bmp,mem2.3.3.bmp,ACC026,"[-3, -3, 0]","[0, 3, 3]","[0, 3, 3]",match,1.2928932188134525,,-0.7219389219551757,-1.2043909360073632,0.2412861894694511,1st,1st,2nd,-1.2690045783579398,-1.2416927999598315,0.0662069325104375
mem,resp,1056,0,mem1.1.3.bmp,mem1.2.2.bmp,mem1.1.3.bmp,ACC026,"[-3, -3, 3]","[-3, 0, 0]","[-3, -3, 3]",match,1.591751709536137,,0.8988046876853459,-0.24762973460498094,0.502614953163764,4th,2nd,3rd,1.2527356196951864,-0.28745316039254165,0.48618266273898925
mem,resp,700,1,mem1.2.1.bmp,mem1.2.3.bmp,mem1.2.3.bmp,ACC026,"[-3, 0, -3]","[-3, 0, 3]","[-3, 0, 3]",match,1.4226497308103743,,1.2315283140980913,1.7571476331755165,0.5778965818061591,4th,4th,3rd,1.2527356196951864,1.2888264044847115,0.48618266273898925
mem,resp,589,1,mem3.3.2.bmp,mem3.1.3.bmp,mem3.1.3.bmp,ACC026,"[3, 3, 0]","[3, -3, 3]","[3, -3, 3]",match,1.3545027756320973,,1.8043967393035758,0.2521215293393535,0.6063637722910481,4th,3rd,3rd,1.2527356196951864,0.256238694328685,0.48618266273898925
mem,resp,581,1,mem2.1.2.bmp,mem2.2.2.bmp,mem2.1.2.bmp,ACC026,"[0, -3, 0]","[0, 0, 0]","[0, -3, 0]",match,1.7113248654051871,,0.4011360029463565,0.5704965522554465,0.7447958193608961,3rd,4th,4th,0.297136210479412,1.2888264044847115,0.9383611562821897
mem,resp,945,0,mem2.3.1.bmp,mem3.1.1.bmp,mem2.3.1.bmp,ACC026,"[0, 3, -3]","[3, -3, -3]","[0, 3, -3]",match,1.3545027756320973,,-0.7303069112742182,0.0806917709306077,0.4870798596033977,1st,3rd,3rd,-1.2690045783579398,0.256238694328685,0.48618266273898925
mem,resp,896,0,mem1.3.1.bmp,mem3.2.2.bmp,mem1.3.1.bmp,ACC026,"[-3, 3, -3]","[3, 0, 0]","[-3, 3, -3]",match,1.2928932188134525,,1.5530696965537703,2.4112993613625164,0.5653927508684091,4th,4th,3rd,1.2527356196951864,1.2888264044847115,0.48618266273898925
mem,resp,808,0,mem2.1.3.bmp,mem3.2.3.bmp,mem1.3.3.bmp,ACC026,"[0, -3, 3]","[3, 0, 3]","[-3, 3, 3]",non-match,0.7090055512641944,2,-1.5645042359268078,-0.5849395756224784,0.6546818271493402,1st,2nd,3rd,-1.2690045783579398,-0.28745316039254165,0.48618266273898925
mem,resp,771,0,mem3.1.3.bmp,mem1.1.1.bmp,mem1.2.1.bmp,ACC026,"[3, -3, 3]","[-3, -3, -3]","[-3, 0, -3]",non-match,0.8452994616207485,2,-0.3964397910401254,-0.5942178840624441,0.5648094589431981,2nd,2nd,3rd,-0.2645979623505311,-0.28745316039254165,0.48618266273898925
mem,resp,653,0,mem3.1.1.bmp,mem2.1.1.bmp,mem2.1.1.bmp,ACC026,"[3, -3, -3]","[0, -3, -3]","[0, -3, -3]",match,1.7113248654051871,,-0.02984809625500769,0.5215616754468038,0.1443118456765594,2nd,3rd,2nd,-0.2645979623505311,0.256238694328685,0.0662069325104375
mem,resp,594,1,mem3.3.3.bmp,mem2.2.1.bmp,mem2.2.1.bmp,ACC026,"[3, 3, 3]","[0, 0, -3]","[0, 0, -3]",match,1.2928932188134525,,-0.42359433747213415,1.2274878141509848,-0.1720066811400953,2nd,4th,2nd,-0.2645979623505311,1.2888264044847115,0.0662069325104375
mem,resp,481,1,mem3.1.2.bmp,mem1.3.3.bmp,mem2.1.2.bmp,ACC026,"[3, -3, 0]","[-3, 3, 3]","[0, -3, 0]",non-match,1.0042180842186395,3,-0.2298539520382092,2.846839157472725,-0.10978474599420221,2nd,4th,2nd,-0.2645979623505311,1.2888264044847115,0.0662069325104375
mem,resp,744,0,mem1.3.2.bmp,mem3.2.2.bmp,mem1.1.1.bmp,ACC026,"[-3, 3, 0]","[3, 0, 0]","[-3, -3, -3]",non-match,0.6473959944455496,1,-1.6534211221395758,-0.5776759403975619,-0.26585919361854743,1st,2nd,1st,-1.2690045783579398,-0.28745316039254165,-1.4718804888540002
mem,resp,986,1,mem3.3.1.bmp,mem2.3.1.bmp,mem3.3.1.bmp,ACC026,"[3, 3, -3]","[0, 3, -3]","[3, 3, -3]",match,1.7113248654051871,,0.3224905518236386,-1.159722618675507,-0.044545112022261614,3rd,1st,2nd,0.297136210479412,-1.2416927999598315,0.0662069325104375
mem,resp,990,0,mem2.3.3.bmp,mem3.1.3.bmp,mem3.1.3.bmp,ACC026,"[0, 3, 3]","[3, -3, 3]","[3, -3, 3]",match,1.3545027756320973,,0.33784804053029155,-0.546389726065735,-0.0906655810022891,3rd,2nd,2nd,0.297136210479412,-0.28745316039254165,0.0662069325104375
mem,resp,812,1,mem3.2.3.bmp,mem3.1.1.bmp,mem3.2.3.bmp,ACC026,"[3, 0, 3]","[3, -3, -3]","[3, 0, 3]",match,1.3545027756320973,,-0.4596810501718563,-1.0969931200967484,0.006054629312091137,2nd,1st,2nd,-0.2645979623505311,-1.2416927999598315,0.0662069325104375
mem,resp,534,1,mem2.1.1.bmp,mem3.2.1.bmp,mem1.2.1.bmp,ACC026,"[0, -3, -3]","[3, 0, -3]","[-3, 0, -3]",non-match,1.0144014403465114,3,1.72838301796292,2.4126038413187363,-0.12330451845154784,4th,4th,2nd,1.2527356196951864,1.2888264044847115,0.0662069325104375
mem,resp,774,0,mem1.3.3.bmp,mem1.1.2.bmp,mem1.3.2.bmp,ACC026,"[-3, 3, 3]","[-3, -3, 0]","[-3, 3, 0]",non-match,1.1339745962155614,4,-0.3118923604360346,-0.26232514038757176,-0.3470106899825444,2nd,2nd,1st,-0.2645979623505311,-0.28745316039254165,-1.4718804888540002
mem,resp,727,1,mem1.2.3.bmp,mem3.3.1.bmp,mem1.1.3.bmp,ACC026,"[-3, 0, 3]","[3, 3, -3]","[-3, -3, 3]",non-match,0.7113248654051871,2,0.8356890197250203,0.43715260404876893,-0.23665391588548854,4th,3rd,2nd,1.2527356196951864,0.256238694328685,0.0662069325104375
mem,resp,969,1,mem2.2.1.bmp,mem1.3.1.bmp,mem2.2.3.bmp,ACC026,"[0, 0, -3]","[-3, 3, -3]","[0, 0, 3]",non-match,0.7155429496238267,2,0.024832953271621546,0.5250752258753919,-0.010170094564501173,2nd,3rd,2nd,-0.2645979623505311,0.256238694328685,0.0662069325104375
mem,resp,780,1,mem1.1.1.bmp,mem3.3.2.bmp,mem3.2.3.bmp,ACC026,"[-3, -3, -3]","[3, 3, 0]","[3, 0, 3]",non-match,0.7257263057516985,2,-0.37852900926257294,0.44035502444074887,0.05897545307700402,2nd,3rd,2nd,-0.2645979623505311,0.256238694328685,0.0662069325104375
mem,resp,864,0,mem2.2.2.bmp,mem2.1.3.bmp,mem2.1.3.bmp,ACC026,"[0, 0, 0]","[0, -3, 3]","[0, -3, 3]",match,1.591751709536137,,0.010503665917994443,0.8155543603972681,0.14756069688783052,2nd,4th,2nd,-0.2645979623505311,1.2888264044847115,0.0662069325104375
mem,resp,767,1,mem1.2.2.bmp,mem2.3.2.bmp,mem1.2.2.bmp,ACC026,"[-3, 0, 0]","[0, 3, 0]","[-3, 0, 0]",match,1.591751709536137,,-1.1353027134492033,0.0013434019034468541,0.5762662152023794,1st,3rd,3rd,-1.2690045783579398,0.256238694328685,0.48618266273898925
mem,resp,770,0,mem3.3.3.bmp,mem1.1.3.bmp,mem3.3.3.bmp,ACC026,"[3, 3, 3]","[-3, -3, 3]","[3, 3, 3]",match,1.1835034190722742,,0.18748944675954002,-0.5183721770929011,0.26150936009700526,3rd,2nd,2nd,0.297136210479412,-0.28745316039254165,0.0662069325104375
mem,resp,551,1,mem3.3.1.bmp,mem3.2.3.bmp,mem3.2.3.bmp,ACC026,"[3, 3, -3]","[3, 0, 3]","[3, 0, 3]",match,1.3545027756320973,,0.241237369633527,-0.46787099779248903,0.4870560566984683,3rd,2nd,3rd,0.297136210479412,-0.28745316039254165,0.48618266273898925
mem,resp,652,1,mem1.1.2.bmp,mem2.2.1.bmp,mem3.1.3.bmp,ACC026,"[-3, -3, 0]","[0, 0, -3]","[3, -3, 3]",non-match,0.6473959944455496,1,0.50405524792981,0.07317546058206861,0.737385335349304,3rd,3rd,4th,0.297136210479412,0.256238694328685,0.9383611562821897
mem,resp,712,1,mem1.3.2.bmp,mem2.2.3.bmp,mem2.2.3.bmp,ACC026,"[-3, 3, 0]","[0, 0, 3]","[0, 0, 3]",match,1.5,,0.46596593879977316,-0.6447263517846168,0.42170349405485347,3rd,1st,3rd,0.297136210479412,-1.2416927999598315,0.48618266273898925
mem,resp,685,1,mem1.1.3.bmp,mem2.1.2.bmp,mem1.1.3.bmp,ACC026,"[-3, -3, 3]","[0, -3, 0]","[-3, -3, 3]",match,1.591751709536137,,1.1766042792545859,1.2060875914888194,0.6510911690264373,4th,4th,3rd,1.2527356196951864,1.2888264044847115,0.48618266273898925
mem,resp,858,0,mem3.2.3.bmp,mem1.3.3.bmp,mem2.2.2.bmp,ACC026,"[3, 0, 3]","[-3, 3, 3]","[0, 0, 0]",non-match,1.091751709536137,4,-1.054716374863465,0.14442302914639402,0.7474972248576035,1st,3rd,4th,-1.2690045783579398,0.256238694328685,0.9383611562821897
mem,resp,498,1,mem1.2.1.bmp,mem1.2.3.bmp,mem1.2.3.bmp,ACC026,"[-3, 0, -3]","[-3, 0, 3]","[-3, 0, 3]",match,1.4226497308103743,,0.8414129241759466,1.792188476501855,1.1235280776941714,4th,4th,4th,1.2527356196951864,1.2888264044847115,0.9383611562821897
mem,resp,609,1,mem1.3.1.bmp,mem1.3.2.bmp,mem1.3.2.bmp,ACC026,"[-3, 3, -3]","[-3, 3, 0]","[-3, 3, 0]",match,1.7113248654051871,,0.8450008527054347,-0.25309903121114574,0.918953992155491,4th,2nd,4th,1.2527356196951864,-0.28745316039254165,0.9383611562821897
mem,resp,1093,1,mem3.1.2.bmp,mem3.3.3.bmp,mem1.1.2.bmp,ACC026,"[3, -3, 0]","[3, 3, 3]","[-3, -3, 0]",non-match,0.5566243270259357,1,-0.2973382883349955,-1.4347267813642275,0.9375734757487574,2nd,1st,4th,-0.2645979623505311,-1.2416927999598315,0.9383611562821897
mem,resp,483,0,mem3.2.1.bmp,mem3.2.2.bmp,mem3.2.2.bmp,ACC026,"[3, 0, -3]","[3, 0, 0]","[3, 0, 0]",match,1.7113248654051871,,0.9619573530262352,0.4450427484672813,0.5154538992345952,4th,3rd,3rd,1.2527356196951864,0.256238694328685,0.48618266273898925
mem,resp,574,1,mem2.1.1.bmp,mem2.1.3.bmp,mem2.3.1.bmp,ACC026,"[0, -3, -3]","[0, -3, 3]","[0, 3, -3]",non-match,0.6061531498826483,1,0.8266165705828594,2.022020565031616,0.8098951115490323,4th,4th,4th,1.2527356196951864,1.2888264044847115,0.9383611562821897
mem,resp,473,0,mem3.1.1.bmp,mem2.3.2.bmp,mem3.1.1.bmp,ACC026,"[3, -3, -3]","[0, 3, 0]","[3, -3, -3]",match,1.2928932188134525,,0.948806342392604,1.4147736963923991,0.8796580385282101,4th,4th,4th,1.2527356196951864,1.2888264044847115,0.9383611562821897
mem,resp,1068,1,mem3.1.3.bmp,mem3.1.2.bmp,mem3.3.1.bmp,ACC026,"[3, -3, 3]","[3, -3, 0]","[3, 3, -3]",non-match,0.5380061947043713,1,0.4425570169795948,-0.7908800700825551,0.5484693470597215,3rd,1st,3rd,0.297136210479412,-1.2416927999598315,0.48618266273898925
mem,resp,601,1,mem2.1.3.bmp,mem3.1.1.bmp,mem3.1.1.bmp,ACC026,"[0, -3, 3]","[3, -3, -3]","[3, -3, -3]",match,1.3545027756320973,,-0.245990345022375,0.1484604016927624,0.5548314705231956,2nd,3rd,3rd,-0.2645979623505311,0.256238694328685,0.48618266273898925
mem,resp,540,1,mem3.1.2.bmp,mem2.1.1.bmp,mem2.1.1.bmp,ACC026,"[3, -3, 0]","[0, -3, -3]","[0, -3, -3]",match,1.591751709536137,,-0.3498612702270178,0.8461739939697069,0.2238933661319208,2nd,4th,2nd,-0.2645979623505311,1.2888264044847115,0.0662069325104375
mem,resp,449,0,mem3.2.1.bmp,mem1.2.2.bmp,mem1.1.2.bmp,ACC026,"[3, 0, -3]","[-3, 0, 0]","[-3, -3, 0]",non-match,1.0042180842186395,3,0.07471953008290078,0.3761194192422511,0.30358894534158776,3rd,3rd,2nd,0.297136210479412,0.256238694328685,0.0662069325104375
mem,resp,749,0,mem2.1.2.bmp,mem1.3.3.bmp,mem2.1.2.bmp,ACC026,"[0, -3, 0]","[-3, 3, 3]","[0, -3, 0]",match,1.2928932188134525,,0.17952544528916192,-0.4480822540338949,0.3498180840778239,3rd,2nd,3rd,0.297136210479412,-0.28745316039254165,0.48618266273898925
mem,resp,671,1,mem3.2.2.bmp,mem3.1.3.bmp,mem3.1.1.bmp,ACC026,"[3, 0, 0]","[3, -3, 3]","[3, -3, -3]",non-match,1.0144014403465114,3,1.2781404464764181,1.203089482968375,0.2143916774394496,4th,4th,2nd,1.2527356196951864,1.2888264044847115,0.0662069325104375
mem,resp,554,1,mem1.3.2.bmp,mem1.2.3.bmp,mem1.2.3.bmp,ACC026,"[-3, 3, 0]","[-3, 0, 3]","[-3, 0, 3]",match,1.591751709536137,,-1.2980597788964816,0.5728143293908333,0.15120862940762095,1st,4th,2nd,-1.2690045783579398,1.2888264044847115,0.0662069325104375
mem,resp,573,1,mem2.1.1.bmp,mem3.3.2.bmp,mem3.3.2.bmp,ACC026,"[0, -3, -3]","[3, 3, 0]","[3, 3, 0]",match,1.2928932188134525,,-1.0002836155771844,1.5537886268843213,0.30412879107291013,1st,4th,2nd,-1.2690045783579398,1.2888264044847115,0.0662069325104375
mem,resp,784,1,mem2.3.2.bmp,mem3.2.3.bmp,mem3.1.2.bmp,ACC026,"[0, 3, 0]","[3, 0, 3]","[3, -3, 0]",non-match,0.9462544851682343,3,1.2366581628388225,0.2889459999601552,0.3851923991020562,4th,3rd,3rd,1.2527356196951864,0.256238694328685,0.48618266273898925
mem,resp,468,1,mem1.1.2.bmp,mem1.1.3.bmp,mem1.1.3.bmp,ACC026,"[-3, -3, 0]","[-3, -3, 3]","[-3, -3, 3]",match,1.7113248654051871,,0.6477850625281844,-0.21531535117266262,0.29598219015551164,4th,2nd,2nd,1.2527356196951864,-0.28745316039254165,0.0662069325104375
mem,resp,506,0,mem3.3.2.bmp,mem1.3.2.bmp,mem1.2.1.bmp,ACC026,"[3, 3, 0]","[-3, 3, 0]","[-3, 0, -3]",non-match,0.8846449283495895,2,-0.761446910906234,-0.4112012169980533,0.4617052624431331,1st,2nd,3rd,-1.2690045783579398,-0.28745316039254165,0.48618266273898925
mem,resp,526,0,mem2.2.2.bmp,mem2.2.3.bmp,mem2.2.3.bmp,ACC026,"[0, 0, 0]","[0, 0, 3]","[0, 0, 3]",match,1.7113248654051871,,0.8208753013504724,-0.1412245604272481,0.5626144001709567,4th,2nd,3rd,1.2527356196951864,-0.28745316039254165,0.48618266273898925
mem,resp,519,1,mem1.2.2.bmp,mem3.2.1.bmp,mem1.2.2.bmp,ACC026,"[-3, 0, 0]","[3, 0, -3]","[-3, 0, 0]",match,1.3545027756320973,,-1.1615156253599779,0.10867801214843001,0.695709951030023,1st,3rd,4th,-1.2690045783579398,0.256238694328685,0.9383611562821897
mem,resp,1080,1,mem3.3.1.bmp,mem1.3.1.bmp,mem1.3.1.bmp,ACC026,"[3, 3, -3]","[-3, 3, -3]","[-3, 3, -3]",match,1.4226497308103743,,0.24826653881010038,-0.9914358372351122,0.7499289712051588,3rd,1st,4th,0.297136210479412,-1.2416927999598315,0.9383611562821897
mem,resp,694,1,mem3.2.3.bmp,mem3.1.2.bmp,mem3.2.3.bmp,ACC026,"[3, 0, 3]","[3, -3, 0]","[3, 0, 3]",match,1.591751709536137,,-1.495766572151394,-0.0030537590094204072,0.8519460343399863,1st,3rd,4th,-1.2690045783579398,0.256238694328685,0.9383611562821897
mem,resp,594,1,mem3.1.1.bmp,mem3.3.3.bmp,mem3.1.1.bmp,ACC026,"[3, -3, -3]","[3, 3, 3]","[3, -3, -3]",match,1.1835034190722742,,0.05056209810774666,-0.5241773312556552,0.7709444649949483,3rd,2nd,4th,0.297136210479412,-0.28745316039254165,0.9383611562821897
mem,resp,1269,1,mem1.2.1.bmp,mem1.1.1.bmp,mem1.2.3.bmp,ACC026,"[-3, 0, -3]","[-3, -3, -3]","[-3, 0, 3]",non-match,0.7771525064424715,2,-0.05619525195700888,-0.8942782243901612,0.5070849171687465,2nd,1st,3rd,-0.2645979623505311,-1.2416927999598315,0.48618266273898925
mem,resp,509,1,mem2.3.1.bmp,mem1.1.2.bmp,mem1.1.2.bmp,ACC026,"[0, 3, -3]","[-3, -3, 0]","[-3, -3, 0]",match,1.2928932188134525,,0.255801173639544,-0.657495460154477,0.660179794287013,3rd,1st,4th,0.297136210479412,-1.2416927999598315,0.9383611562821897
mem,resp,702,0,mem3.1.3.bmp,mem3.3.1.bmp,mem3.1.3.bmp,ACC026,"[3, -3, 3]","[3, 3, -3]","[3, -3, 3]",match,1.1835034190722742,,-0.02850323152024051,-0.5795376157712019,0.8533201857826554,2nd,2nd,4th,-0.2645979623505311,-0.28745316039254165,0.9383611562821897
mem,resp,896,1,mem2.2.1.bmp,mem2.3.3.bmp,mem1.3.1.bmp,ACC026,"[0, 0, -3]","[0, 3, 3]","[-3, 3, -3]",non-match,0.9462544851682343,3,-0.8092500269140824,-1.5964422446563167,0.8838897538717928,1st,1st,4th,-1.2690045783579398,-1.2416927999598315,0.9383611562821897
mem,resp,677,0,mem3.3.3.bmp,mem2.2.2.bmp,mem3.3.3.bmp,ACC026,"[3, 3, 3]","[0, 0, 0]","[3, 3, 3]",match,1.5,,0.7503487846393104,1.0065104203656698,0.8293920224301736,4th,4th,4th,1.2527356196951864,1.2888264044847115,0.9383611562821897
mem,resp,567,1,mem1.1.1.bmp,mem1.2.1.bmp,mem3.2.3.bmp,ACC026,"[-3, -3, -3]","[-3, 0, -3]","[3, 0, 3]",non-match,0.3174780152878355,1,-0.8850477444170307,-0.6638501377117455,0.8728815260634277,1st,1st,4th,-1.2690045783579398,-1.2416927999598315,0.9383611562821897
mem,resp,787,1,mem1.1.3.bmp,mem3.3.2.bmp,mem1.1.3.bmp,ACC026,"[-3, -3, 3]","[3, 3, 0]","[-3, -3, 3]",match,1.1339745962155614,,0.3916209836462966,-2.640703024058812,0.743664631240248,3rd,1st,4th,0.297136210479412,-1.2416927999598315,0.9383611562821897
mem,resp,850,0,mem1.3.1.bmp,mem1.2.2.bmp,mem1.2.2.bmp,ACC026,"[-3, 3, -3]","[-3, 0, 0]","[-3, 0, 0]",match,1.591751709536137,,1.5806782768059782,1.631178210432524,0.9337826685729076,4th,4th,4th,1.2527356196951864,1.2888264044847115,0.9383611562821897
mem,resp,732,1,mem2.2.3.bmp,mem2.1.1.bmp,mem2.2.3.bmp,ACC026,"[0, 0, 3]","[0, -3, -3]","[0, 0, 3]",match,1.3545027756320973,,-0.17072564098557888,-0.010127157574055313,1.1632184273443926,2nd,2nd,4th,-0.2645979623505311,-0.28745316039254165,0.9383611562821897
mem,resp,869,1,mem1.3.3.bmp,mem2.3.1.bmp,mem1.3.2.bmp,ACC026,"[-3, 3, 3]","[0, 3, -3]","[-3, 3, 0]",non-match,1.3030765749413242,4,-1.3143538463648268,-1.361283206897309,1.3172181731944281,1st,1st,4th,-1.2690045783579398,-1.2416927999598315,0.9383611562821897
mem,resp,613,0,mem1.3.3.bmp,mem1.1.1.bmp,mem1.1.1.bmp,ACC026,"[-3, 3, 3]","[-3, -3, -3]","[-3, -3, -3]",match,1.1835034190722742,,0.6862067439258114,0.5269222948977305,1.432660078072476,4th,3rd,4th,1.2527356196951864,0.256238694328685,0.9383611562821897
mem,resp,501,1,mem2.3.2.bmp,mem3.2.1.bmp,mem2.3.3.bmp,ACC026,"[0, 3, 0]","[3, 0, -3]","[0, 3, 3]",non-match,1.0042180842186395,3,-0.22817548820353248,1.3230525379940208,1.3119224176882345,2nd,4th,4th,-0.2645979623505311,1.2888264044847115,0.9383611562821897
mem,resp,712,1,mem1.3.1.bmp,mem3.1.1.bmp,mem1.1.3.bmp,ACC026,"[-3, 3, -3]","[3, -3, -3]","[-3, -3, 3]",non-match,0.36700683814454815,1,-0.32782020459642075,-0.3448740118009865,1.23902992167192,2nd,2nd,4th,-0.2645979623505311,-0.28745316039254165,0.9383611562821897
mem,resp,581,1,mem2.2.1.bmp,mem2.1.2.bmp,mem3.3.1.bmp,ACC026,"[0, 0, -3]","[0, -3, 0]","[3, 3, -3]",non-match,0.8846449283495895,2,-0.9745376492911821,-1.2535590570662312,1.0436643136265498,1st,1st,4th,-1.2690045783579398,-1.2416927999598315,0.9383611562821897
mem,resp,483,1,mem3.2.2.bmp,mem1.1.2.bmp,mem2.3.1.bmp,ACC026,"[3, 0, 0]","[-3, -3, 0]","[0, 3, -3]",non-match,0.7928932188134524,2,-0.5934547077886728,-2.4104671953236356,0.8080506272056304,2nd,1st,4th,-0.2645979623505311,-1.2416927999598315,0.9383611562821897
mem,resp,500,1,mem3.3.2.bmp,mem1.2.3.bmp,mem1.2.3.bmp,ACC026,"[3, 3, 0]","[-3, 0, 3]","[-3, 0, 3]",match,1.2928932188134525,,2.3864505210190963,0.90019760554061,0.7139585983287251,4th,4th,4th,1.2527356196951864,1.2888264044847115,0.9383611562821897
mem,resp,591,0,mem2.2.2.bmp,mem3.3.3.bmp,mem2.2.2.bmp,ACC026,"[0, 0, 0]","[3, 3, 3]","[0, 0, 0]",match,1.5,,-0.20539036203047237,1.0689448706481417,0.7781329351062611,2nd,4th,4th,-0.2645979623505311,1.2888264044847115,0.9383611562821897
mem,resp,793,1,mem1.2.1.bmp,mem2.1.3.bmp,mem1.1.1.bmp,ACC026,"[-3, 0, -3]","[0, -3, 3]","[-3, -3, -3]",non-match,1.0658276410372842,3,0.08891516183160418,-0.46129846429247784,0.8284517772101566,3rd,2nd,4th,0.297136210479412,-0.28745316039254165,0.9383611562821897
mem,resp,523,1,mem3.2.3.bmp,mem3.1.2.bmp,mem1.3.1.bmp,ACC026,"[3, 0, 3]","[3, -3, 0]","[-3, 3, -3]",non-match,0.2679491924311228,1,0.03383341009921095,-1.209704121701286,0.747691898952136,3rd,1st,4th,0.297136210479412,-1.2416927999598315,0.9383611562821897
mem,resp,694,0,mem3.2.1.bmp,mem3.1.3.bmp,mem3.1.3.bmp,ACC026,"[3, 0, -3]","[3, -3, 3]","[3, -3, 3]",match,1.3545027756320973,,-0.19701431615806775,2.56987795026409,0.6745116960856138,2nd,4th,4th,-0.2645979623505311,1.2888264044847115,0.9383611562821897
mem,resp,747,1,mem1.2.2.bmp,mem2.2.3.bmp,mem2.2.1.bmp,ACC026,"[-3, 0, 0]","[0, 0, 3]","[0, 0, -3]",non-match,1.0144014403465114,3,0.2881968702283305,-0.3282873933565684,0.6080715211705259,3rd,2nd,3rd,0.297136210479412,-0.28745316039254165,0.48618266273898925
mem,resp,629,1,mem2.1.2.bmp,mem1.3.2.bmp,mem1.1.2.bmp,ACC026,"[0, -3, 0]","[-3, 3, 0]","[-3, -3, 0]",non-match,1.1339745962155614,4,0.02849155966028841,0.24018173713782365,0.2799088186335116,2nd,3rd,2nd,-0.2645979623505311,0.256238694328685,0.0662069325104375
mem,resp,468,1,mem1.2.3.bmp,mem2.3.3.bmp,mem1.2.3.bmp,ACC026,"[-3, 0, 3]","[0, 3, 3]","[-3, 0, 3]",match,1.591751709536137,,1.2089743549972887,0.27897815370764556,0.1220267203469286,4th,3rd,2nd,1.2527356196951864,0.256238694328685,0.0662069325104375
mem,resp,830,0,mem2.3.2.bmp,mem2.2.1.bmp,mem2.3.2.bmp,ACC026,"[0, 3, 0]","[0, 0, -3]","[0, 3, 0]",match,1.591751709536137,,-0.04018451976466804,-1.1633886653132373,0.13081997147582375,2nd,1st,2nd,-0.2645979623505311,-1.2416927999598315,0.0662069325104375
mem,resp,390,1,mem3.2.3.bmp,mem1.2.3.bmp,mem3.2.3.bmp,ACC026,"[3, 0, 3]","[-3, 0, 3]","[3, 0, 3]",match,1.4226497308103743,,-0.620296973840378,-0.3072268347546647,0.04575060485958914,2nd,2nd,2nd,-0.2645979623505311,-0.28745316039254165,0.0662069325104375
mem,resp,568,1,mem1.1.1.bmp,mem2.2.3.bmp,mem1.1.1.bmp,ACC026,"[-3, -3, -3]","[0, 0, 3]","[-3, -3, -3]",match,1.2928932188134525,,-0.5344734225984553,0.4344983201856245,-0.05502434861185394,2nd,3rd,2nd,-0.2645979623505311,0.256238694328685,0.0662069325104375
mem,resp,499,1,mem1.3.3.bmp,mem3.2.2.bmp,mem2.2.2.bmp,ACC026,"[-3, 3, 3]","[3, 0, 0]","[0, 0, 0]",non-match,1.2113248654051871,4,1.0289926104433675,-0.009166915384059698,0.040718446794325,4th,2nd,2nd,1.2527356196951864,-0.28745316039254165,0.0662069325104375
mem,resp,528,1,mem1.1.3.bmp,mem2.3.2.bmp,mem2.1.1.bmp,ACC026,"[-3, -3, 3]","[0, 3, 0]","[0, -3, -3]",non-match,0.7090055512641944,2,0.2740758364769811,1.2188233855746,-0.1083553728801533,3rd,4th,2nd,0.297136210479412,1.2888264044847115,0.0662069325104375
mem,resp,406,1,mem2.1.2.bmp,mem2.3.1.bmp,mem2.3.1.bmp,ACC026,"[0, -3, 0]","[0, 3, -3]","[0, 3, -3]",match,1.3545027756320973,,1.5613815668501307,-0.49397328526246426,-0.18910731330883493,4th,2nd,2nd,1.2527356196951864,-0.28745316039254165,0.0662069325104375
mem,resp,605,0,mem2.1.3.bmp,mem3.1.3.bmp,mem3.3.3.bmp,ACC026,"[0, -3, 3]","[3, -3, 3]","[3, 3, 3]",non-match,0.7771525064424715,2,0.1432751184750699,0.7229732862622765,-0.5739934301697125,3rd,4th,1st,0.297136210479412,1.2888264044847115,-1.4718804888540002
mem,resp,726,1,mem3.1.2.bmp,mem1.1.1.bmp,mem1.2.3.bmp,ACC026,"[3, -3, 0]","[-3, -3, -3]","[-3, 0, 3]",non-match,0.6473959944455496,1,1.0433951348468484,-0.39516663010948416,-0.6712614814681674,4th,2nd,1st,1.2527356196951864,-0.28745316039254165,-1.4718804888540002
mem,resp,585,1,mem1.1.2.bmp,mem3.2.1.bmp,mem2.2.1.bmp,ACC026,"[-3, -3, 0]","[3, 0, -3]","[0, 0, -3]",non-match,1.2113248654051871,4,0.01710204517215648,1.0701514437889725,-0.8435991606047664,2nd,4th,1st,-0.2645979623505311,1.2888264044847115,-1.4718804888540002
mem,resp,384,1,mem2.2.2.bmp,mem1.3.3.bmp,mem1.3.3.bmp,ACC026,"[0, 0, 0]","[-3, 3, 3]","[-3, 3, 3]",match,1.5,,1.0208134958960722,0.7958102324026495,-0.5928791312959357,4th,4th,1st,1.2527356196951864,1.2888264044847115,-1.4718804888540002
mem,resp,553,1,mem1.3.1.bmp,mem1.1.3.bmp,mem2.1.1.bmp,ACC026,"[-3, 3, -3]","[-3, -3, 3]","[0, -3, -3]",non-match,0.7090055512641944,2,0.3838362490128885,-0.3573385703692693,-1.0588779928468413,3rd,2nd,1st,0.297136210479412,-0.28745316039254165,-1.4718804888540002
mem,resp,726,0,mem2.2.3.bmp,mem3.3.1.bmp,mem2.3.2.bmp,ACC026,"[0, 0, 3]","[3, 3, -3]","[0, 3, 0]",non-match,1.1835034190722742,4,-0.019600883898211074,0.6320553296465689,-1.1507516212511963,2nd,4th,1st,-0.2645979623505311,1.2888264044847115,-1.4718804888540002
mem,resp,423,1,mem1.2.2.bmp,mem1.2.1.bmp,mem1.2.1.bmp,ACC026,"[-3, 0, 0]","[-3, 0, -3]","[-3, 0, -3]",match,1.7113248654051871,,1.3045734488646707,-0.3385134917031975,-1.1719381181746749,4th,2nd,1st,1.2527356196951864,-0.28745316039254165,-1.4718804888540002
mem,resp,496,0,mem3.2.2.bmp,mem1.1.2.bmp,mem3.2.3.bmp,ACC026,"[3, 0, 0]","[-3, -3, 0]","[3, 0, 3]",non-match,1.0042180842186395,3,1.6442235487376025,0.5781498672284149,-1.21493434856045,4th,4th,1st,1.2527356196951864,1.2888264044847115,-1.4718804888540002
mem,resp,645,1,mem1.3.2.bmp,mem2.3.3.bmp,mem3.3.2.bmp,ACC026,"[-3, 3, 0]","[0, 3, 3]","[3, 3, 0]",non-match,1.0144014403465114,3,0.9087321835922519,0.019115997057971828,-1.1123760184916862,4th,3rd,1st,1.2527356196951864,0.256238694328685,-1.4718804888540002
mem,resp,394,1,mem3.3.1.bmp,mem1.3.1.bmp,mem1.3.1.bmp,ACC026,"[3, 3, -3]","[-3, 3, -3]","[-3, 3, -3]",match,1.4226497308103743,,1.4638090348185562,-1.545996940182341,-1.4951315532924692,4th,1st,1st,1.2527356196951864,-1.2416927999598315,-1.4718804888540002
mem,resp,693,1,mem3.3.3.bmp,mem3.1.2.bmp,mem3.1.2.bmp,ACC026,"[3, 3, 3]","[3, -3, 0]","[3, -3, 0]",match,1.3545027756320973,,-1.1739728692718443,-0.0071923727503643035,-1.808481349607443,1st,2nd,1st,-1.2690045783579398,-0.28745316039254165,-1.4718804888540002
mem,resp,562,1,mem3.1.1.bmp,mem2.1.2.bmp,mem1.1.3.bmp,ACC026,"[3, -3, -3]","[0, -3, 0]","[-3, -3, 3]",non-match,0.7752551286084112,2,1.9886838874691175,1.5072565096186359,-1.8648131877367042,4th,4th,1st,1.2527356196951864,1.2888264044847115,-1.4718804888540002
mem,resp,755,0,mem2.2.1.bmp,mem2.2.2.bmp,mem2.2.1.bmp,ACC026,"[0, 0, -3]","[0, 0, 0]","[0, 0, -3]",match,1.7113248654051871,,0.3290065357795445,1.3147418486891513,-1.8526370322364598,3rd,4th,1st,0.297136210479412,1.2888264044847115,-1.4718804888540002
mem,resp,627,1,mem3.2.1.bmp,mem3.3.2.bmp,mem3.2.1.bmp,ACC026,"[3, 0, -3]","[3, 3, 0]","[3, 0, -3]",match,1.591751709536137,,-0.503020812727098,1.5410202562089714,-2.1457235099116563,2nd,4th,1st,-0.2645979623505311,1.2888264044847115,-1.4718804888540002
mem,resp,568,1,mem2.3.1.bmp,mem3.2.3.bmp,mem2.1.3.bmp,ACC026,"[0, 3, -3]","[3, 0, 3]","[0, -3, 3]",non-match,0.7752551286084112,2,2.2610529540175697,0.7937160652271851,-2.105571623113615,4th,4th,1st,1.2527356196951864,1.2888264044847115,-1.4718804888540002
mem,resp,607,0,mem1.2.3.bmp,mem2.1.1.bmp,mem2.1.1.bmp,ACC026,"[-3, 0, 3]","[0, -3, -3]","[0, -3, -3]",match,1.2928932188134525,,1.4867494787724957,-1.4220562584887062,-1.9873880565653177,4th,1st,1st,1.2527356196951864,-1.2416927999598315,-1.4718804888540002
mem,resp,588,1,mem1.2.1.bmp,mem1.3.2.bmp,mem1.2.1.bmp,ACC026,"[-3, 0, -3]","[-3, 3, 0]","[-3, 0, -3]",match,1.591751709536137,,-0.425620346676274,-0.11762217211332966,-2.0030797737813595,2nd,2nd,1st,-0.2645979623505311,-0.28745316039254165,-1.4718804888540002
mem,resp,609,1,mem2.3.3.bmp,mem1.3.1.bmp,mem2.2.3.bmp,ACC026,"[0, 3, 3]","[-3, 3, -3]","[0, 0, 3]",non-match,1.0042180842186395,3,2.9632885691944635,-2.068504241061787,-1.8614617110718583,4th,1st,1st,1.2527356196951864,-1.2416927999598315,-1.4718804888540002
mem,resp,770,0,mem3.3.2.bmp,mem2.2.1.bmp,mem3.3.3.bmp,ACC026,"[3, 3, 0]","[0, 0, -3]","[3, 3, 3]",non-match,1.0042180842186395,3,-0.1177120181491021,-0.3677877475357731,-2.1152683020970793,2nd,2nd,1st,-0.2645979623505311,-0.28745316039254165,-1.4718804888540002
mem,resp,502,0,mem2.1.1.bmp,mem1.1.3.bmp,mem1.2.3.bmp,ACC026,"[0, -3, -3]","[-3, -3, 3]","[-3, 0, 3]",non-match,1.0042180842186395,3,1.0209328025586837,-0.7929530654255779,-2.1737527994776116,4th,1st,1st,1.2527356196951864,-1.2416927999598315,-1.4718804888540002
mem,resp,955,0,mem3.1.3.bmp,mem3.1.1.bmp,mem3.1.3.bmp,ACC026,"[3, -3, 3]","[3, -3, -3]","[3, -3, 3]",match,1.4226497308103743,,-0.9456612230523683,-0.010006234689948757,-2.2954712803337047,1st,2nd,1st,-1.2690045783579398,-0.28745316039254165,-1.4718804888540002
mem,resp,807,0,mem3.2.2.bmp,mem2.2.2.bmp,mem2.2.3.bmp,ACC026,"[3, 0, 0]","[0, 0, 0]","[0, 0, 3]",non-match,1.3030765749413242,4,-1.198032132797133,1.6969833934864158,-2.473892932046136,1st,4th,1st,-1.2690045783579398,1.2888264044847115,-1.4718804888540002
mem,resp,577,1,mem2.2.1.bmp,mem3.2.3.bmp,mem1.2.2.bmp,ACC026,"[0, 0, -3]","[3, 0, 3]","[-3, 0, 0]",non-match,0.9462544851682343,3,0.6084068896132809,0.6037698205198617,-2.3643580249871565,3rd,4th,1st,0.297136210479412,1.2888264044847115,-1.4718804888540002
mem,resp,588,1,mem2.1.3.bmp,mem2.3.1.bmp,mem2.3.1.bmp,ACC026,"[0, -3, 3]","[0, 3, -3]","[0, 3, -3]",match,1.1835034190722742,,1.2041170137006518,-0.030806092051958864,-2.514215975094018,4th,2nd,1st,1.2527356196951864,-0.28745316039254165,-1.4718804888540002
mem,resp,538,0,mem2.1.1.bmp,mem2.3.2.bmp,mem3.1.3.bmp,ACC026,"[0, -3, -3]","[0, 3, 0]","[3, -3, 3]",non-match,0.6473959944455496,1,0.18981521521318853,1.460241999158862,-2.7931399065309197,3rd,4th,1st,0.297136210479412,1.2888264044847115,-1.4718804888540002
mem,resp,1121,1,mem3.2.1.bmp,mem2.1.2.bmp,mem2.1.2.bmp,ACC026,"[3, 0, -3]","[0, -3, 0]","[0, -3, 0]",match,1.5,,0.2848621660633448,-1.3083456052092037,-2.860860222277103,3rd,1st,1st,0.297136210479412,-1.2416927999598315,-1.4718804888540002
mem,resp,782,0,mem3.1.1.bmp,mem2.2.3.bmp,mem2.2.3.bmp,ACC026,"[3, -3, -3]","[0, 0, 3]","[0, 0, 3]",match,1.2928932188134525,,-0.5437402273101569,-1.60352652237074,-2.739548237696235,2nd,1st,1st,-0.2645979623505311,-1.2416927999598315,-1.4718804888540002
mem,resp,622,0,mem3.1.2.bmp,mem1.2.2.bmp,mem3.1.2.bmp,ACC026,"[3, -3, 0]","[-3, 0, 0]","[3, -3, 0]",match,1.3545027756320973,,0.7502134964123978,-0.4265506922411397,-2.6554356428452093,4th,2nd,1st,1.2527356196951864,-0.28745316039254165,-1.4718804888540002
mem,resp,482,1,mem2.3.2.bmp,mem3.2.2.bmp,mem2.3.2.bmp,ACC026,"[0, 3, 0]","[3, 0, 0]","[0, 3, 0]",match,1.591751709536137,,0.5539327935299141,0.0723853307461179,-2.382246622808576,3rd,3rd,1st,0.297136210479412,0.256238694328685,-1.4718804888540002
mem,resp,589,1,mem1.3.3.bmp,mem3.2.1.bmp,mem2.2.1.bmp,ACC026,"[-3, 3, 3]","[3, 0, -3]","[0, 0, -3]",non-match,1.0042180842186395,3,0.2732693475871278,-0.06766966048180022,-2.5320419379110426,3rd,2nd,1st,0.297136210479412,-0.28745316039254165,-1.4718804888540002
mem,resp,922,0,mem2.2.3.bmp,mem1.1.2.bmp,mem1.1.2.bmp,ACC026,"[0, 0, 3]","[-3, -3, 0]","[-3, -3, 0]",match,1.5,,0.47578370843370305,-0.6747648886375066,-2.7575164806539867,3rd,1st,1st,0.297136210479412,-1.2416927999598315,-1.4718804888540002
mem,resp,492,0,mem1.1.3.bmp,mem2.3.3.bmp,mem1.2.3.bmp,ACC026,"[-3, -3, 3]","[0, 3, 3]","[-3, 0, 3]",non-match,1.3030765749413242,4,1.6127081748165504,1.0565373211116047,-2.6900090815995403,4th,4th,1st,1.2527356196951864,1.2888264044847115,-1.4718804888540002
mem,resp,723,1,mem1.2.2.bmp,mem3.3.1.bmp,mem1.2.2.bmp,ACC026,"[-3, 0, 0]","[3, 3, -3]","[-3, 0, 0]",match,1.2928932188134525,,-0.0769895135051975,0.19318304284834725,-2.528215843523236,2nd,3rd,1st,-0.2645979623505311,0.256238694328685,-1.4718804888540002
mem,resp,648,1,mem1.1.3.bmp,mem1.1.1.bmp,mem1.3.3.bmp,ACC026,"[-3, -3, 3]","[-3, -3, -3]","[-3, 3, 3]",non-match,0.6061531498826483,1,0.3431395828488569,-0.6917487998373205,-2.4801480345811378,3rd,1st,1st,0.297136210479412,-1.2416927999598315,-1.4718804888540002
mem,resp,478,1,mem2.3.3.bmp,mem1.3.1.bmp,mem3.1.3.bmp,ACC026,"[0, 3, 3]","[-3, 3, -3]","[3, -3, 3]",non-match,0.3545027756320972,1,2.303687419189329,-0.6126822596208238,-2.4450761249878137,4th,2nd,1st,1.2527356196951864,-0.28745316039254165,-1.4718804888540002
mem,resp,439,1,mem2.1.2.bmp,mem2.2.2.bmp,mem1.2.1.bmp,ACC026,"[0, -3, 0]","[0, 0, 0]","[-3, 0, -3]",non-match,1.091751709536137,4,2.057793968908857,0.42959076319506234,-2.5040494809314073,4th,3rd,1st,1.2527356196951864,0.256238694328685,-1.4718804888540002
mem,resp,538,1,mem2.3.2.bmp,mem2.2.1.bmp,mem1.2.3.bmp,ACC026,"[0, 3, 0]","[0, 0, -3]","[-3, 0, 3]",non-match,0.8545027756320972,2,1.2186093920819792,1.6440728744080149,-2.066997827313023,4th,4th,1st,1.2527356196951864,1.2888264044847115,-1.4718804888540002
mem,resp,627,1,mem3.3.2.bmp,mem1.3.3.bmp,mem3.2.1.bmp,ACC026,"[3, 3, 0]","[-3, 3, 3]","[3, 0, -3]",non-match,0.7257263057516985,2,0.794378246539816,0.32036913039306947,-1.9720598983838706,4th,3rd,1st,1.2527356196951864,0.256238694328685,-1.4718804888540002
mem,resp,648,1,mem1.2.2.bmp,mem3.3.1.bmp,mem2.1.3.bmp,ACC026,"[-3, 0, 0]","[3, 3, -3]","[0, -3, 3]",non-match,0.6339745962155614,1,0.7915021200274286,1.292186927564111,-1.9840027351825817,4th,4th,1st,1.2527356196951864,1.2888264044847115,-1.4718804888540002
mem,resp,609,1,mem1.1.1.bmp,mem3.1.2.bmp,mem3.1.2.bmp,ACC026,"[-3, -3, -3]","[3, -3, 0]","[3, -3, 0]",match,1.3545027756320973,,0.1530998042840692,0.24917181357877607,-2.016882355680771,3rd,3rd,1st,0.297136210479412,0.256238694328685,-1.4718804888540002
mem,resp,770,1,mem1.3.1.bmp,mem2.2.3.bmp,mem2.2.2.bmp,ACC026,"[-3, 3, -3]","[0, 0, 3]","[0, 0, 0]",non-match,1.2113248654051871,4,0.5491446394332303,-1.936997037842778,-2.0555155773505343,3rd,1st,1st,0.297136210479412,-1.2416927999598315,-1.4718804888540002
mem,resp,611,1,mem3.2.3.bmp,mem1.2.3.bmp,mem1.2.3.bmp,ACC026,"[3, 0, 3]","[-3, 0, 3]","[-3, 0, 3]",match,1.4226497308103743,,0.03135104449645988,-0.32045216291739315,-1.9178961112282302,2nd,2nd,1st,-0.2645979623505311,-0.28745316039254165,-1.4718804888540002
mem,resp,612,1,mem2.1.3.bmp,mem3.2.2.bmp,mem2.1.3.bmp,ACC026,"[0, -3, 3]","[3, 0, 0]","[0, -3, 3]",match,1.5,,1.0946578115227947,-1.3155875097980871,-1.9404771127809608,4th,1st,1st,1.2527356196951864,-1.2416927999598315,-1.4718804888540002
mem,resp,532,1,mem1.3.3.bmp,mem2.3.1.bmp,mem3.1.2.bmp,ACC026,"[-3, 3, 3]","[0, 3, -3]","[3, -3, 0]",non-match,0.42686781502901383,1,1.3888420132744024,0.3260197523098333,-1.531822468782958,4th,3rd,1st,1.2527356196951864,0.256238694328685,-1.4718804888540002
mem,resp,733,1,mem2.1.1.bmp,mem1.2.1.bmp,mem2.1.1.bmp,ACC026,"[0, -3, -3]","[-3, 0, -3]","[0, -3, -3]",match,1.591751709536137,,0.6849356865239097,0.6572228696488202,-1.5859969140583339,4th,4th,1st,1.2527356196951864,1.2888264044847115,-1.4718804888540002
mem,resp,624,1,mem2.2.2.bmp,mem3.2.1.bmp,mem2.2.2.bmp,ACC026,"[0, 0, 0]","[3, 0, -3]","[0, 0, 0]",match,1.591751709536137,,0.04613417800965873,1.23465053276691,-1.2249460371184255,3rd,4th,1st,0.297136210479412,1.2888264044847115,-1.4718804888540002
mem,resp,642,1,mem1.2.3.bmp,mem1.1.2.bmp,mem1.3.2.bmp,ACC026,"[-3, 0, 3]","[-3, -3, 0]","[-3, 3, 0]",non-match,1.0144014403465114,3,1.5446155769209564,0.26982690577011137,-1.1841338253005766,4th,3rd,1st,1.2527356196951864,0.256238694328685,-1.4718804888540002
mem,resp,484,1,mem2.2.1.bmp,mem1.2.2.bmp,mem1.2.2.bmp,ACC026,"[0, 0, -3]","[-3, 0, 0]","[-3, 0, 0]",match,1.591751709536137,,1.1554207344391656,-0.8419046583918214,-1.3513507304352737,4th,1st,1st,1.2527356196951864,-1.2416927999598315,-1.4718804888540002
mem,resp,615,0,mem3.3.3.bmp,mem3.1.3.bmp,mem3.1.3.bmp,ACC026,"[3, 3, 3]","[3, -3, 3]","[3, -3, 3]",match,1.4226497308103743,,-0.7927556450306545,-0.08940417678819293,-1.3305429152467037,1st,2nd,1st,-1.2690045783579398,-0.28745316039254165,-1.4718804888540002
mem,resp,505,1,mem2.2.3.bmp,mem3.1.1.bmp,mem3.1.1.bmp,ACC026,"[0, 0, 3]","[3, -3, -3]","[3, -3, -3]",match,1.2928932188134525,,-0.2530268234856632,0.43380240869251246,-1.3093777495410945,2nd,3rd,1st,-0.2645979623505311,0.256238694328685,-1.4718804888540002
mem,resp,583,1,mem3.2.1.bmp,mem3.3.2.bmp,mem1.2.3.bmp,ACC026,"[3, 0, -3]","[3, 3, 0]","[-3, 0, 3]",non-match,0.4763966378857265,1,1.2707120528544043,-1.196966719441473,-1.2616287205850456,4th,1st,1st,1.2527356196951864,-1.2416927999598315,-1.4718804888540002
mem,resp,879,1,mem1.2.1.bmp,mem2.1.2.bmp,mem2.3.2.bmp,ACC026,"[-3, 0, -3]","[0, -3, 0]","[0, 3, 0]",non-match,0.9226497308103743,2,-0.4837894256781692,0.0614670979022686,-1.0691027260174912,2nd,3rd,1st,-0.2645979623505311,0.256238694328685,-1.4718804888540002
mem,resp,759,1,mem1.3.2.bmp,mem2.1.1.bmp,mem2.1.1.bmp,ACC026,"[-3, 3, 0]","[0, -3, -3]","[0, -3, -3]",match,1.2928932188134525,,-0.019655869457110772,-0.38859613264632104,-1.1852873970253006,2nd,2nd,1st,-0.2645979623505311,-0.28745316039254165,-1.4718804888540002
mem,resp,521,1,mem3.1.2.bmp,mem3.2.3.bmp,mem3.1.2.bmp,ACC026,"[3, -3, 0]","[3, 0, 3]","[3, -3, 0]",match,1.591751709536137,,-0.05612655881241461,-0.711626243983817,-1.052143161232479,2nd,1st,1st,-0.2645979623505311,-1.2416927999598315,-1.4718804888540002
mem,resp,580,0,mem1.1.2.bmp,mem2.1.3.bmp,mem2.1.3.bmp,ACC026,"[-3, -3, 0]","[0, -3, 3]","[0, -3, 3]",match,1.591751709536137,,-0.000465365639902378,-1.5983775271881813,-1.1391636416934243,2nd,1st,1st,-0.2645979623505311,-1.2416927999598315,-1.4718804888540002
mem,resp,429,1,mem3.2.2.bmp,mem3.3.3.bmp,mem3.2.2.bmp,ACC026,"[3, 0, 0]","[3, 3, 3]","[3, 0, 0]",match,1.591751709536137,,0.9723704253347742,-0.13149664193722566,-0.8855689046149204,4th,2nd,1st,1.2527356196951864,-0.28745316039254165,-1.4718804888540002
mem,resp,710,0,mem3.1.3.bmp,mem1.2.1.bmp,mem3.2.1.bmp,ACC026,"[3, -3, 3]","[-3, 0, -3]","[3, 0, -3]",non-match,0.7771525064424715,2,-0.5384319414408884,-0.518874281484302,-0.785967084882762,2nd,2nd,1st,-0.2645979623505311,-0.28745316039254165,-1.4718804888540002
mem,resp,732,1,mem3.1.1.bmp,mem1.2.2.bmp,mem3.3.2.bmp,ACC026,"[3, -3, -3]","[-3, 0, 0]","[3, 3, 0]",non-match,0.7090055512641944,2,-0.22765130443002585,0.987625322874251,-0.5726599004691908,2nd,4th,1st,-0.2645979623505311,1.2888264044847115,-1.4718804888540002
mem,resp,794,0,mem3.3.1.bmp,mem1.1.2.bmp,mem2.3.2.bmp,ACC026,"[3, 3, -3]","[-3, -3, 0]","[0, 3, 0]",non-match,0.9462544851682343,3,-0.5703153627734159,0.5767178546452766,-0.6462580354925163,2nd,4th,1st,-0.2645979623505311,1.2888264044847115,-1.4718804888540002
mem,resp,715,1,mem2.3.1.bmp,mem1.3.3.bmp,mem2.1.3.bmp,ACC026,"[0, 3, -3]","[-3, 3, 3]","[0, -3, 3]",non-match,0.5380061947043713,1,0.26104429743679347,0.3428730030580063,-0.6483601963818375,3rd,3rd,1st,0.297136210479412,0.256238694328685,-1.4718804888540002
mem,resp,605,1,mem2.3.3.bmp,mem3.1.2.bmp,mem1.3.1.bmp,ACC026,"[0, 3, 3]","[3, -3, 0]","[-3, 3, -3]",non-match,0.4884773718476586,1,2.242425649146947,0.53819751286894,-0.27460133855853697,4th,4th,1st,1.2527356196951864,1.2888264044847115,-1.4718804888540002
mem,resp,1058,1,mem1.3.2.bmp,mem2.2.2.bmp,mem2.2.3.bmp,ACC026,"[-3, 3, 0]","[0, 0, 0]","[0, 0, 3]",non-match,1.2113248654051871,4,0.08176792266974328,2.385133396102423,0.25950055264834343,3rd,4th,2nd,0.297136210479412,1.2888264044847115,0.0662069325104375
mem,resp,608,0,mem3.2.2.bmp,mem2.1.3.bmp,mem3.2.2.bmp,ACC026,"[3, 0, 0]","[0, -3, 3]","[3, 0, 0]",match,1.5,,-0.4653865409179158,0.4701976001239576,0.343844857614894,2nd,3rd,3rd,-0.2645979623505311,0.256238694328685,0.48618266273898925
mem,resp,1165,1,mem3.3.3.bmp,mem1.3.1.bmp,mem3.3.3.bmp,ACC026,"[3, 3, 3]","[-3, 3, -3]","[3, 3, 3]",match,1.1835034190722742,,-1.242945002786132,-1.2696859074071873,0.4092491083187852,1st,1st,3rd,-1.2690045783579398,-1.2416927999598315,0.48618266273898925
mem,resp,594,1,mem1.2.3.bmp,mem3.3.1.bmp,mem3.3.1.bmp,ACC026,"[-3, 0, 3]","[3, 3, -3]","[3, 3, -3]",match,1.1339745962155614,,0.5432654858312556,1.836220104455875,0.7765604014661049,3rd,4th,4th,0.297136210479412,1.2888264044847115,0.9383611562821897
mem,resp,915,1,mem2.2.1.bmp,mem3.2.1.bmp,mem2.2.1.bmp,ACC026,"[0, 0, -3]","[3, 0, -3]","[0, 0, -3]",match,1.7113248654051871,,0.5868676900782124,1.2748674538855116,1.0827680530888983,3rd,4th,4th,0.297136210479412,1.2888264044847115,0.9383611562821897
mem,resp,554,1,mem1.3.3.bmp,mem2.3.3.bmp,mem2.1.1.bmp,ACC026,"[-3, 3, 3]","[0, 3, 3]","[0, -3, -3]",non-match,0.3174780152878355,1,1.9227723706227835,0.6417700581587498,1.0141210554643696,4th,4th,4th,1.2527356196951864,1.2888264044847115,0.9383611562821897
mem,resp,504,0,mem2.3.2.bmp,mem3.1.1.bmp,mem3.2.2.bmp,ACC026,"[0, 3, 0]","[3, -3, -3]","[3, 0, 0]",non-match,1.1835034190722742,4,0.9661770601935321,1.3257730373163976,0.8387328123530371,4th,4th,4th,1.2527356196951864,1.2888264044847115,0.9383611562821897
mem,resp,635,1,mem1.2.2.bmp,mem2.2.3.bmp,mem1.2.2.bmp,ACC026,"[-3, 0, 0]","[0, 0, 3]","[-3, 0, 0]",match,1.591751709536137,,-0.16901560104059096,-0.2989617349705245,0.9462728859420197,2nd,2nd,4th,-0.2645979623505311,-0.28745316039254165,0.9383611562821897
mem,resp,706,1,mem3.1.2.bmp,mem1.1.1.bmp,mem1.1.1.bmp,ACC026,"[3, -3, 0]","[-3, -3, -3]","[-3, -3, -3]",match,1.3545027756320973,,-0.205612908451607,-1.82415081499029,1.2924753129384345,2nd,1st,4th,-0.2645979623505311,-1.2416927999598315,0.9383611562821897
mem,resp,747,0,mem2.2.2.bmp,mem1.3.2.bmp,mem1.3.2.bmp,ACC026,"[0, 0, 0]","[-3, 3, 0]","[-3, 3, 0]",match,1.591751709536137,,-0.02974119223654936,-1.4649544114509088,1.3537959797524024,2nd,1st,4th,-0.2645979623505311,-1.2416927999598315,0.9383611562821897
