mode,type,rt,acc,item_1,item_2,item_cue,subj_idx,item_1_number,item_2_number,item_cue_number,trial_type,summed_similarity,similarity_bin,ams,pams,slps,ams_quantile,pams_quantile,slps_quantile,ams_bin,pam_bin,slp_bin
mem,resp,1596,1,mem2.3.2.bmp,mem2.2.1.bmp,mem2.3.2.bmp,ACC036,"[0, 3, 0]","[0, 0, -3]","[0, 3, 0]",match,1.591751709536137,,0.6241347204263686,0.6633520827435959,-0.9974371938431513,4th,3rd,1st,1.2581936818391533,0.3133973391769196,-1.0611642524363503
mem,resp,716,1,mem3.2.3.bmp,mem1.2.3.bmp,mem3.2.3.bmp,ACC036,"[3, 0, 3]","[-3, 0, 3]","[3, 0, 3]",match,1.4226497308103743,,0.17811469312602932,1.0082819821665994,-1.4426136178433555,3rd,4th,1st,0.2790669777235104,1.294345793214632,-1.0611642524363503
mem,resp,898,1,mem1.1.1.bmp,mem2.2.3.bmp,mem1.1.1.bmp,ACC036,"[-3, -3, -3]","[0, 0, 3]","[-3, -3, -3]",match,1.2928932188134525,,0.33352460006185825,1.6263732256303844,-1.165163490097073,3rd,4th,1st,0.2790669777235104,1.294345793214632,-1.0611642524363503
mem,resp,851,0,mem1.3.3.bmp,mem3.2.2.bmp,mem2.2.2.bmp,ACC036,"[-3, 3, 3]","[3, 0, 0]","[0, 0, 0]",non-match,1.2113248654051871,4,0.33026966297626975,2.7804471016203762,-1.0054318519478915,3rd,4th,1st,0.2790669777235104,1.294345793214632,-1.0611642524363503
mem,resp,1025,1,mem1.1.3.bmp,mem2.3.2.bmp,mem2.1.1.bmp,ACC036,"[-3, -3, 3]","[0, 3, 0]","[0, -3, -3]",non-match,0.7090055512641944,2,0.10614724746386446,0.5759465948612768,-1.0717755490477612,3rd,3rd,1st,0.2790669777235104,0.3133973391769196,-1.0611642524363503
mem,resp,1461,0,mem2.1.2.bmp,mem2.3.1.bmp,mem2.3.1.bmp,ACC036,"[0, -3, 0]","[0, 3, -3]","[0, 3, -3]",match,1.3545027756320973,,1.6582107440712268,-0.5505352382335242,-1.740197624576684,4th,2nd,1st,1.2581936818391533,-0.37144575312026834,-1.0611642524363503
mem,resp,1097,1,mem2.1.3.bmp,mem3.1.3.bmp,mem3.3.3.bmp,ACC036,"[0, -3, 3]","[3, -3, 3]","[3, 3, 3]",non-match,0.7771525064424715,2,1.085001426724018,0.5784808055431786,-1.7642496749046739,4th,3rd,1st,1.2581936818391533,0.3133973391769196,-1.0611642524363503
mem,resp,1057,1,mem3.1.2.bmp,mem1.1.1.bmp,mem1.2.3.bmp,ACC036,"[3, -3, 0]","[-3, -3, -3]","[-3, 0, 3]",non-match,0.6473959944455496,1,0.43815034058139035,-1.068053198739928,-1.9730460594666073,3rd,1st,1st,0.2790669777235104,-1.2362973792712832,-1.0611642524363503
mem,resp,1191,1,mem1.1.2.bmp,mem3.2.1.bmp,mem2.2.1.bmp,ACC036,"[-3, -3, 0]","[3, 0, -3]","[0, 0, -3]",non-match,1.2113248654051871,4,-1.5346777371134555,-1.7901150704872861,-1.7185052027962258,1st,1st,1st,-1.2323927887203032,-1.2362973792712832,-1.0611642524363503
mem,resp,1100,0,mem2.2.2.bmp,mem1.3.3.bmp,mem1.3.3.bmp,ACC036,"[0, 0, 0]","[-3, 3, 3]","[-3, 3, 3]",match,1.5,,0.482532537061396,0.6899039355124468,-1.2610185085400536,3rd,4th,1st,0.2790669777235104,1.294345793214632,-1.0611642524363503
mem,resp,880,1,mem1.3.1.bmp,mem1.1.3.bmp,mem2.1.1.bmp,ACC036,"[-3, 3, -3]","[-3, -3, 3]","[0, -3, -3]",non-match,0.7090055512641944,2,1.2510255762412996,0.604802508328131,-1.1671051386798477,4th,3rd,1st,1.2581936818391533,0.3133973391769196,-1.0611642524363503
mem,resp,1162,0,mem2.2.3.bmp,mem3.3.1.bmp,mem2.3.2.bmp,ACC036,"[0, 0, 3]","[3, 3, -3]","[0, 3, 0]",non-match,1.1835034190722742,4,0.013913841665372783,2.230928191918538,-0.763319172123798,3rd,4th,1st,0.2790669777235104,1.294345793214632,-1.0611642524363503
mem,resp,904,0,mem1.2.2.bmp,mem1.2.1.bmp,mem1.2.1.bmp,ACC036,"[-3, 0, 0]","[-3, 0, -3]","[-3, 0, -3]",match,1.7113248654051871,,-0.5219889882152886,1.186746899405713,-0.46033762404147116,2nd,4th,2nd,-0.30486787084236044,1.294345793214632,-0.41917556838884895
mem,resp,1185,0,mem3.2.2.bmp,mem1.1.2.bmp,mem3.2.3.bmp,ACC036,"[3, 0, 0]","[-3, -3, 0]","[3, 0, 3]",non-match,1.0042180842186395,3,-0.07946551457104246,-0.44056966064701547,-0.45780059172009296,2nd,2nd,2nd,-0.30486787084236044,-0.37144575312026834,-0.41917556838884895
mem,resp,1925,1,mem1.3.2.bmp,mem2.3.3.bmp,mem3.3.2.bmp,ACC036,"[-3, 3, 0]","[0, 3, 3]","[3, 3, 0]",non-match,1.0144014403465114,3,-2.0819730284578015,1.273069644541897,-0.3306317593795622,1st,4th,2nd,-1.2323927887203032,1.294345793214632,-0.41917556838884895
mem,resp,1771,1,mem3.3.1.bmp,mem1.3.1.bmp,mem1.3.1.bmp,ACC036,"[3, 3, -3]","[-3, 3, -3]","[-3, 3, -3]",match,1.4226497308103743,,-2.5070874539172663,-1.8047154327219117,-0.2891108761989537,1st,1st,2nd,-1.2323927887203032,-1.2362973792712832,-0.41917556838884895
mem,resp,1011,1,mem3.3.3.bmp,mem3.1.2.bmp,mem3.1.2.bmp,ACC036,"[3, 3, 3]","[3, -3, 0]","[3, -3, 0]",match,1.3545027756320973,,-0.41884118400617887,-0.672271034119387,-0.370844793360875,2nd,2nd,2nd,-0.30486787084236044,-0.37144575312026834,-0.41917556838884895
mem,resp,1132,1,mem3.1.1.bmp,mem2.1.2.bmp,mem1.1.3.bmp,ACC036,"[3, -3, -3]","[0, -3, 0]","[-3, -3, 3]",non-match,0.7752551286084112,2,-0.014715712842558007,-0.35253148655027977,-0.3431705493421869,2nd,2nd,2nd,-0.30486787084236044,-0.37144575312026834,-0.41917556838884895
mem,resp,1220,1,mem2.2.1.bmp,mem2.2.2.bmp,mem2.2.1.bmp,ACC036,"[0, 0, -3]","[0, 0, 0]","[0, 0, -3]",match,1.7113248654051871,,-1.021321879828231,-0.4821045219008067,-0.5120870649213288,1st,2nd,2nd,-1.2323927887203032,-0.37144575312026834,-0.41917556838884895
mem,resp,950,1,mem3.2.1.bmp,mem3.3.2.bmp,mem3.2.1.bmp,ACC036,"[3, 0, -3]","[3, 3, 0]","[3, 0, -3]",match,1.591751709536137,,0.8911788498645561,0.26762413661095863,-0.7407408943159312,4th,3rd,1st,1.2581936818391533,0.3133973391769196,-1.0611642524363503
mem,resp,987,1,mem2.3.1.bmp,mem3.2.3.bmp,mem2.1.3.bmp,ACC036,"[0, 3, -3]","[3, 0, 3]","[0, -3, 3]",non-match,0.7752551286084112,2,0.5457829717443933,1.9023675921660117,-0.45464925123885513,3rd,4th,2nd,0.2790669777235104,1.294345793214632,-0.41917556838884895
mem,resp,1064,1,mem1.2.3.bmp,mem2.1.1.bmp,mem2.1.1.bmp,ACC036,"[-3, 0, 3]","[0, -3, -3]","[0, -3, -3]",match,1.2928932188134525,,0.24725885987915425,1.032695248090172,-0.6886193738028473,3rd,4th,1st,0.2790669777235104,1.294345793214632,-1.0611642524363503
mem,resp,946,1,mem1.2.1.bmp,mem1.3.2.bmp,mem1.2.1.bmp,ACC036,"[-3, 0, -3]","[-3, 3, 0]","[-3, 0, -3]",match,1.591751709536137,,-0.28867713679463786,-0.2506519464721849,-0.591405014035797,2nd,2nd,2nd,-0.30486787084236044,-0.37144575312026834,-0.41917556838884895
mem,resp,912,0,mem2.3.3.bmp,mem1.3.1.bmp,mem2.2.3.bmp,ACC036,"[0, 3, 3]","[-3, 3, -3]","[0, 0, 3]",non-match,1.0042180842186395,3,-1.0786914910673866,-0.30316904200323974,-0.5086267580143842,1st,2nd,2nd,-1.2323927887203032,-0.37144575312026834,-0.41917556838884895
mem,resp,1131,0,mem3.3.2.bmp,mem2.2.1.bmp,mem3.3.3.bmp,ACC036,"[3, 3, 0]","[0, 0, -3]","[3, 3, 3]",non-match,1.0042180842186395,3,0.46858541478509297,0.9781234579149474,-0.36094541718679074,3rd,4th,2nd,0.2790669777235104,1.294345793214632,-0.41917556838884895
mem,resp,1815,0,mem2.1.1.bmp,mem1.1.3.bmp,mem1.2.3.bmp,ACC036,"[0, -3, -3]","[-3, -3, 3]","[-3, 0, 3]",non-match,1.0042180842186395,3,-1.5901910025595305,-0.10752532407942252,-0.35944033198179626,1st,2nd,2nd,-1.2323927887203032,-0.37144575312026834,-0.41917556838884895
mem,resp,1487,1,mem3.1.3.bmp,mem3.1.1.bmp,mem3.1.3.bmp,ACC036,"[3, -3, 3]","[3, -3, -3]","[3, -3, 3]",match,1.4226497308103743,,0.0880417797815289,-0.8137973891891529,-0.9604575770763569,3rd,1st,1st,0.2790669777235104,-1.2362973792712832,-1.0611642524363503
mem,resp,1823,1,mem3.2.2.bmp,mem2.2.2.bmp,mem2.2.3.bmp,ACC036,"[3, 0, 0]","[0, 0, 0]","[0, 0, 3]",non-match,1.3030765749413242,4,-1.096330508552308,-0.24402056353237733,-0.8379564702394475,1st,2nd,1st,-1.2323927887203032,-0.37144575312026834,-1.0611642524363503
mem,resp,1223,1,mem2.2.1.bmp,mem3.2.3.bmp,mem1.2.2.bmp,ACC036,"[0, 0, -3]","[3, 0, 3]","[-3, 0, 0]",non-match,0.9462544851682343,3,0.17578421876585812,-0.12388990637802147,-0.8624338990108428,3rd,2nd,1st,0.2790669777235104,-0.37144575312026834,-1.0611642524363503
mem,resp,1445,1,mem2.1.1.bmp,mem2.3.2.bmp,mem3.1.3.bmp,ACC036,"[0, -3, -3]","[0, 3, 0]","[3, -3, 3]",non-match,0.6473959944455496,1,-0.6686637325075923,-1.2907202332956071,-1.086554337027614,1st,1st,1st,-1.2323927887203032,-1.2362973792712832,-1.0611642524363503
mem,resp,1175,1,mem3.2.1.bmp,mem2.1.2.bmp,mem2.1.2.bmp,ACC036,"[3, 0, -3]","[0, -3, 0]","[0, -3, 0]",match,1.5,,-0.548898366851087,-1.2586183601708718,-1.1648434641614678,2nd,1st,1st,-0.30486787084236044,-1.2362973792712832,-1.0611642524363503
mem,resp,1235,1,mem3.1.1.bmp,mem2.2.3.bmp,mem2.2.3.bmp,ACC036,"[3, -3, -3]","[0, 0, 3]","[0, 0, 3]",match,1.2928932188134525,,0.46812559065197373,2.7654935333868687,-1.3474790952735842,3rd,4th,1st,0.2790669777235104,1.294345793214632,-1.0611642524363503
mem,resp,1759,1,mem3.1.2.bmp,mem1.2.2.bmp,mem3.1.2.bmp,ACC036,"[3, -3, 0]","[-3, 0, 0]","[3, -3, 0]",match,1.3545027756320973,,-0.523037403047337,0.08540912052937957,-1.348868200013473,2nd,3rd,1st,-0.30486787084236044,0.3133973391769196,-1.0611642524363503
mem,resp,1334,0,mem1.3.3.bmp,mem3.2.1.bmp,mem2.2.1.bmp,ACC036,"[-3, 3, 3]","[3, 0, -3]","[0, 0, -3]",non-match,1.0042180842186395,3,0.3564558793627895,1.4926088149937395,-1.2449403196141176,3rd,4th,1st,0.2790669777235104,1.294345793214632,-1.0611642524363503
mem,resp,1426,0,mem1.1.3.bmp,mem1.1.1.bmp,mem1.3.3.bmp,ACC036,"[-3, -3, 3]","[-3, -3, -3]","[-3, 3, 3]",non-match,0.6061531498826483,1,-0.5446708071456546,0.285776082977601,-1.0578569255058914,2nd,3rd,1st,-0.30486787084236044,0.3133973391769196,-1.0611642524363503
mem,resp,966,1,mem2.3.3.bmp,mem1.3.1.bmp,mem3.1.3.bmp,ACC036,"[0, 3, 3]","[-3, 3, -3]","[3, -3, 3]",non-match,0.3545027756320972,1,-1.7116333546157043,-0.30144662363047725,-1.0180445737435557,1st,2nd,1st,-1.2323927887203032,-0.37144575312026834,-1.0611642524363503
mem,resp,1123,1,mem2.1.2.bmp,mem2.2.2.bmp,mem1.2.1.bmp,ACC036,"[0, -3, 0]","[0, 0, 0]","[-3, 0, -3]",non-match,1.091751709536137,4,-0.08836215231081097,-0.34741576631293447,-0.9389619621783079,2nd,2nd,1st,-0.30486787084236044,-0.37144575312026834,-1.0611642524363503
mem,resp,973,1,mem2.3.2.bmp,mem2.2.1.bmp,mem1.2.3.bmp,ACC036,"[0, 3, 0]","[0, 0, -3]","[-3, 0, 3]",non-match,0.8545027756320972,2,0.15491507862630643,1.112034434407648,-0.7276361864120232,3rd,4th,1st,0.2790669777235104,1.294345793214632,-1.0611642524363503
mem,resp,1200,1,mem3.3.2.bmp,mem1.3.3.bmp,mem3.2.1.bmp,ACC036,"[3, 3, 0]","[-3, 3, 3]","[3, 0, -3]",non-match,0.7257263057516985,2,-0.4932018268780997,-1.3761130461928193,-0.7726298294775236,2nd,1st,1st,-0.30486787084236044,-1.2362973792712832,-1.0611642524363503
mem,resp,1482,1,mem1.1.1.bmp,mem3.1.2.bmp,mem3.1.2.bmp,ACC036,"[-3, -3, -3]","[3, -3, 0]","[3, -3, 0]",match,1.3545027756320973,,-1.3908302405318698,-2.032146812054906,-0.832526067444337,1st,1st,1st,-1.2323927887203032,-1.2362973792712832,-1.0611642524363503
mem,resp,1029,0,mem1.3.1.bmp,mem2.2.3.bmp,mem2.2.2.bmp,ACC036,"[-3, 3, -3]","[0, 0, 3]","[0, 0, 0]",non-match,1.2113248654051871,4,-0.4601601852424833,-0.6679798912316985,-0.9567392248902742,2nd,2nd,1st,-0.30486787084236044,-0.37144575312026834,-1.0611642524363503
mem,resp,1451,1,mem3.2.3.bmp,mem1.2.3.bmp,mem1.2.3.bmp,ACC036,"[3, 0, 3]","[-3, 0, 3]","[-3, 0, 3]",match,1.4226497308103743,,1.7026593856614538,0.925883166212933,-0.8559680722568306,4th,4th,1st,1.2581936818391533,1.294345793214632,-1.0611642524363503
mem,resp,1733,0,mem2.1.3.bmp,mem3.2.2.bmp,mem2.1.3.bmp,ACC036,"[0, -3, 3]","[3, 0, 0]","[0, -3, 3]",match,1.5,,-1.0662222662181289,-0.6472366226947424,-0.7146282192046907,1st,2nd,1st,-1.2323927887203032,-0.37144575312026834,-1.0611642524363503
mem,resp,1372,1,mem1.3.3.bmp,mem2.3.1.bmp,mem3.1.2.bmp,ACC036,"[-3, 3, 3]","[0, 3, -3]","[3, -3, 0]",non-match,0.42686781502901383,1,-0.8535262563452279,-1.4724640286032362,-0.6668696669686653,1st,1st,2nd,-1.2323927887203032,-1.2362973792712832,-0.41917556838884895
mem,resp,1222,1,mem2.1.1.bmp,mem1.2.1.bmp,mem2.1.1.bmp,ACC036,"[0, -3, -3]","[-3, 0, -3]","[0, -3, -3]",match,1.591751709536137,,-0.7600409811485069,-0.27129686021231214,-0.8586672437322378,1st,2nd,1st,-1.2323927887203032,-0.37144575312026834,-1.0611642524363503
mem,resp,1007,1,mem2.2.2.bmp,mem3.2.1.bmp,mem2.2.2.bmp,ACC036,"[0, 0, 0]","[3, 0, -3]","[0, 0, 0]",match,1.591751709536137,,0.9979470626462903,0.7238396690539278,-0.4345012501037583,4th,4th,2nd,1.2581936818391533,1.294345793214632,-0.41917556838884895
mem,resp,1095,1,mem1.2.3.bmp,mem1.1.2.bmp,mem1.3.2.bmp,ACC036,"[-3, 0, 3]","[-3, -3, 0]","[-3, 3, 0]",non-match,1.0144014403465114,3,-0.07133974068802518,1.2446410286942742,-1.0259944852668434,2nd,4th,1st,-0.30486787084236044,1.294345793214632,-1.0611642524363503
mem,resp,1638,1,mem2.2.1.bmp,mem1.2.2.bmp,mem1.2.2.bmp,ACC036,"[0, 0, -3]","[-3, 0, 0]","[-3, 0, 0]",match,1.591751709536137,,0.11151012813205335,0.19847343380221744,-0.774007027347141,3rd,3rd,1st,0.2790669777235104,0.3133973391769196,-1.0611642524363503
mem,resp,1573,0,mem3.3.3.bmp,mem3.1.3.bmp,mem3.1.3.bmp,ACC036,"[3, 3, 3]","[3, -3, 3]","[3, -3, 3]",match,1.4226497308103743,,-0.9590423295127779,-0.3015627865061452,-0.6625188100403075,1st,2nd,2nd,-1.2323927887203032,-0.37144575312026834,-0.41917556838884895
mem,resp,1063,1,mem2.2.3.bmp,mem3.1.1.bmp,mem3.1.1.bmp,ACC036,"[0, 0, 3]","[3, -3, -3]","[3, -3, -3]",match,1.2928932188134525,,-0.07912220946504187,0.6176114630331041,-0.4440561127544821,2nd,3rd,2nd,-0.30486787084236044,0.3133973391769196,-0.41917556838884895
mem,resp,1614,1,mem3.2.1.bmp,mem3.3.2.bmp,mem1.2.3.bmp,ACC036,"[3, 0, -3]","[3, 3, 0]","[-3, 0, 3]",non-match,0.4763966378857265,1,-3.0909241280754376,-2.1228130268042853,-0.3965305670523208,1st,1st,2nd,-1.2323927887203032,-1.2362973792712832,-0.41917556838884895
mem,resp,1134,1,mem1.2.1.bmp,mem2.1.2.bmp,mem2.3.2.bmp,ACC036,"[-3, 0, -3]","[0, -3, 0]","[0, 3, 0]",non-match,0.9226497308103743,3,0.0979977565553131,-0.9257541983271415,-0.3537107078648002,3rd,1st,2nd,0.2790669777235104,-1.2362973792712832,-0.41917556838884895
mem,resp,1276,1,mem1.3.2.bmp,mem2.1.1.bmp,mem2.1.1.bmp,ACC036,"[-3, 3, 0]","[0, -3, -3]","[0, -3, -3]",match,1.2928932188134525,,0.27725789147155483,0.18783778194862744,-0.1281525701759881,3rd,3rd,3rd,0.2790669777235104,0.3133973391769196,0.0710117585634525
mem,resp,832,1,mem3.1.2.bmp,mem3.2.3.bmp,mem3.1.2.bmp,ACC036,"[3, -3, 0]","[3, 0, 3]","[3, -3, 0]",match,1.591751709536137,,2.1425041387099037,1.555871274970056,-0.056780504820566596,4th,4th,3rd,1.2581936818391533,1.294345793214632,0.0710117585634525
mem,resp,837,1,mem1.1.2.bmp,mem2.1.3.bmp,mem2.1.3.bmp,ACC036,"[-3, -3, 0]","[0, -3, 3]","[0, -3, 3]",match,1.591751709536137,,1.1402266811145636,0.462686154445798,-0.06530364390604988,4th,3rd,3rd,1.2581936818391533,0.3133973391769196,0.0710117585634525
mem,resp,702,1,mem3.2.2.bmp,mem3.3.3.bmp,mem3.2.2.bmp,ACC036,"[3, 0, 0]","[3, 3, 3]","[3, 0, 0]",match,1.591751709536137,,2.2178838101294036,1.416652966296166,-0.1662088669338743,4th,4th,3rd,1.2581936818391533,1.294345793214632,0.0710117585634525
mem,resp,1858,0,mem3.1.3.bmp,mem1.2.1.bmp,mem3.2.1.bmp,ACC036,"[3, -3, 3]","[-3, 0, -3]","[3, 0, -3]",non-match,0.7771525064424715,2,-3.157719341878554,-3.1641743321723106,0.1848649211776228,1st,1st,3rd,-1.2323927887203032,-1.2362973792712832,0.0710117585634525
mem,resp,1116,1,mem3.1.1.bmp,mem1.2.2.bmp,mem3.3.2.bmp,ACC036,"[3, -3, -3]","[-3, 0, 0]","[3, 3, 0]",non-match,0.7090055512641944,2,0.7886006612890905,1.1040983130520523,0.22981370274863389,4th,4th,3rd,1.2581936818391533,1.294345793214632,0.0710117585634525
mem,resp,1135,1,mem3.3.1.bmp,mem1.1.2.bmp,mem2.3.2.bmp,ACC036,"[3, 3, -3]","[-3, -3, 0]","[0, 3, 0]",non-match,0.9462544851682343,3,0.13603108834900868,-0.011801935047251744,0.2113968220538918,3rd,3rd,3rd,0.2790669777235104,0.3133973391769196,0.0710117585634525
mem,resp,1093,1,mem2.3.1.bmp,mem1.3.3.bmp,mem2.1.3.bmp,ACC036,"[0, 3, -3]","[-3, 3, 3]","[0, -3, 3]",non-match,0.5380061947043713,1,0.7895535005955949,-0.9841568723382389,0.1962141167605392,4th,1st,3rd,1.2581936818391533,-1.2362973792712832,0.0710117585634525
mem,resp,1010,1,mem2.3.3.bmp,mem3.1.2.bmp,mem1.3.1.bmp,ACC036,"[0, 3, 3]","[3, -3, 0]","[-3, 3, -3]",non-match,0.4884773718476586,1,-0.30365203319603395,-1.7272949844656305,-0.16204081175849286,2nd,1st,3rd,-0.30486787084236044,-1.2362973792712832,0.0710117585634525
mem,resp,1701,1,mem1.3.2.bmp,mem2.2.2.bmp,mem2.2.3.bmp,ACC036,"[-3, 3, 0]","[0, 0, 0]","[0, 0, 3]",non-match,1.2113248654051871,4,-0.16060751610252977,-0.8135396179098401,-0.5225258822397277,2nd,1st,2nd,-0.30486787084236044,-1.2362973792712832,-0.41917556838884895
mem,resp,1563,1,mem3.1.3.bmp,mem3.2.3.bmp,mem3.2.3.bmp,ACC036,"[3, -3, 3]","[3, 0, 3]","[3, 0, 3]",match,1.7113248654051871,,0.3643736919108484,0.3400262831728154,-0.8615878947073833,3rd,3rd,1st,0.2790669777235104,0.3133973391769196,-1.0611642524363503
mem,resp,787,1,mem3.2.2.bmp,mem2.1.3.bmp,mem3.2.2.bmp,ACC036,"[3, 0, 0]","[0, -3, 3]","[3, 0, 0]",match,1.5,,0.45613299861430767,0.9197542026326879,-0.93437802482849,3rd,4th,1st,0.2790669777235104,1.294345793214632,-1.0611642524363503
mem,resp,926,1,mem3.3.3.bmp,mem1.3.1.bmp,mem3.3.3.bmp,ACC036,"[3, 3, 3]","[-3, 3, -3]","[3, 3, 3]",match,1.1835034190722742,,0.2797467878350031,1.3492261259536193,-0.8623633033543877,3rd,4th,1st,0.2790669777235104,1.294345793214632,-1.0611642524363503
mem,resp,740,1,mem1.2.3.bmp,mem3.3.1.bmp,mem3.3.1.bmp,ACC036,"[-3, 0, 3]","[3, 3, -3]","[3, 3, -3]",match,1.1339745962155614,,0.604487917774473,0.5353444254187494,-1.2069267592224684,4th,3rd,1st,1.2581936818391533,0.3133973391769196,-1.0611642524363503
mem,resp,927,1,mem2.2.1.bmp,mem3.2.1.bmp,mem2.2.1.bmp,ACC036,"[0, 0, -3]","[3, 0, -3]","[0, 0, -3]",match,1.7113248654051871,,0.07528164430626454,0.6744031136319588,-1.3383573440837164,3rd,3rd,1st,0.2790669777235104,0.3133973391769196,-1.0611642524363503
mem,resp,1014,1,mem1.3.3.bmp,mem2.3.3.bmp,mem2.1.1.bmp,ACC036,"[-3, 3, 3]","[0, 3, 3]","[0, -3, -3]",non-match,0.3174780152878355,1,0.03887715035814532,0.05083136230262279,-1.4566776966179857,3rd,3rd,1st,0.2790669777235104,0.3133973391769196,-1.0611642524363503
mem,resp,1568,1,mem2.3.2.bmp,mem3.1.1.bmp,mem3.2.2.bmp,ACC036,"[0, 3, 0]","[3, -3, -3]","[3, 0, 0]",non-match,1.1835034190722742,4,-0.6491683817095343,-1.6794384838722554,-1.393533096136772,1st,1st,1st,-1.2323927887203032,-1.2362973792712832,-1.0611642524363503
mem,resp,1062,1,mem1.2.2.bmp,mem2.2.3.bmp,mem1.2.2.bmp,ACC036,"[-3, 0, 0]","[0, 0, 3]","[-3, 0, 0]",match,1.591751709536137,,-0.7319683070665497,0.7287407681254137,-1.0936319766119127,1st,4th,1st,-1.2323927887203032,1.294345793214632,-1.0611642524363503
mem,resp,1469,1,mem2.3.1.bmp,mem3.1.1.bmp,mem2.2.1.bmp,ACC036,"[0, 3, -3]","[3, -3, -3]","[0, 0, -3]",non-match,1.3030765749413242,4,-0.8735777059480371,-0.5302311690525009,-0.5911570425932496,1st,2nd,2nd,-1.2323927887203032,-0.37144575312026834,-0.41917556838884895
mem,resp,1017,1,mem1.2.1.bmp,mem3.1.2.bmp,mem3.1.2.bmp,ACC036,"[-3, 0, -3]","[3, -3, 0]","[3, -3, 0]",match,1.2928932188134525,,0.32697984392196006,0.5816193019353345,-1.0068938098565394,3rd,3rd,1st,0.2790669777235104,0.3133973391769196,-1.0611642524363503
mem,resp,861,1,mem1.2.3.bmp,mem3.3.3.bmp,mem3.2.1.bmp,ACC036,"[-3, 0, 3]","[3, 3, 3]","[3, 0, -3]",non-match,0.5380061947043713,1,0.620277696786025,0.2958779978987336,-0.7125114525127553,4th,3rd,1st,1.2581936818391533,0.3133973391769196,-1.0611642524363503
mem,resp,957,1,mem1.1.2.bmp,mem1.2.2.bmp,mem1.1.2.bmp,ACC036,"[-3, -3, 0]","[-3, 0, 0]","[-3, -3, 0]",match,1.7113248654051871,,-0.5531549709774012,0.1726881250816373,-0.8659420295197896,2nd,3rd,1st,-0.30486787084236044,0.3133973391769196,-1.0611642524363503
mem,resp,875,1,mem3.2.2.bmp,mem1.3.2.bmp,mem1.3.2.bmp,ACC036,"[3, 0, 0]","[-3, 3, 0]","[-3, 3, 0]",match,1.3545027756320973,,-1.4268730006210577,0.27485430807868927,-0.658596659427176,1st,3rd,2nd,-1.2323927887203032,0.3133973391769196,-0.41917556838884895
mem,resp,900,1,mem2.1.2.bmp,mem1.1.3.bmp,mem3.1.1.bmp,ACC036,"[0, -3, 0]","[-3, -3, 3]","[3, -3, -3]",non-match,0.7752551286084112,2,-0.4253952092979598,-0.28012179219341893,-1.1400790536602698,2nd,2nd,1st,-0.30486787084236044,-0.37144575312026834,-1.0611642524363503
mem,resp,1352,1,mem2.2.3.bmp,mem2.3.3.bmp,mem3.1.3.bmp,ACC036,"[0, 0, 3]","[0, 3, 3]","[3, -3, 3]",non-match,0.9462544851682343,3,-0.5537402220580079,-0.0997927236248395,-1.056414474364301,2nd,2nd,1st,-0.30486787084236044,-0.37144575312026834,-1.0611642524363503
mem,resp,947,1,mem3.2.1.bmp,mem3.3.1.bmp,mem3.3.3.bmp,ACC036,"[3, 0, -3]","[3, 3, -3]","[3, 3, 3]",non-match,0.7771525064424715,2,-0.8927621988227598,-1.2338563504971225,-0.46285716664090065,1st,1st,2nd,-1.2323927887203032,-1.2362973792712832,-0.41917556838884895
mem,resp,1873,0,mem2.1.1.bmp,mem1.2.1.bmp,mem2.2.2.bmp,ACC036,"[0, -3, -3]","[-3, 0, -3]","[0, 0, 0]",non-match,1.1835034190722742,4,-1.8284024089062632,-1.2148796968124143,-0.17880809118200416,1st,1st,3rd,-1.2323927887203032,-1.2362973792712832,0.0710117585634525
mem,resp,1121,1,mem2.3.2.bmp,mem1.3.3.bmp,mem1.3.3.bmp,ACC036,"[0, 3, 0]","[-3, 3, 3]","[-3, 3, 3]",match,1.591751709536137,,-0.6221377139803401,-0.8474285077680629,-0.4054237963040561,1st,1st,2nd,-1.2323927887203032,-1.2362973792712832,-0.41917556838884895
mem,resp,849,1,mem1.3.2.bmp,mem3.1.3.bmp,mem3.1.3.bmp,ACC036,"[-3, 3, 0]","[3, -3, 3]","[3, -3, 3]",match,1.1339745962155614,,0.1182271197066766,-1.036581360564324,-0.34738639514456665,3rd,1st,2nd,0.2790669777235104,-1.2362973792712832,-0.41917556838884895
mem,resp,1098,1,mem3.1.2.bmp,mem2.1.3.bmp,mem3.2.2.bmp,ACC036,"[3, -3, 0]","[0, -3, 3]","[3, 0, 0]",non-match,1.2113248654051871,4,-1.1128046034495116,1.7045951842505689,-0.46149637004534483,1st,4th,2nd,-1.2323927887203032,1.294345793214632,-0.41917556838884895
mem,resp,1186,1,mem1.1.1.bmp,mem2.1.2.bmp,mem1.1.1.bmp,ACC036,"[-3, -3, -3]","[0, -3, 0]","[-3, -3, -3]",match,1.591751709536137,,-1.8641981560117344,2.8035255631029075,-0.4471441877917651,1st,4th,2nd,-1.2323927887203032,1.294345793214632,-0.41917556838884895
mem,resp,1100,1,mem3.3.1.bmp,mem2.3.1.bmp,mem2.3.1.bmp,ACC036,"[3, 3, -3]","[0, 3, -3]","[0, 3, -3]",match,1.7113248654051871,,0.45548857767274015,-0.5172228139264413,-0.5609818415223743,3rd,2nd,2nd,0.2790669777235104,-0.37144575312026834,-0.41917556838884895
mem,resp,867,1,mem3.1.3.bmp,mem1.2.3.bmp,mem3.1.3.bmp,ACC036,"[3, -3, 3]","[-3, 0, 3]","[3, -3, 3]",match,1.3545027756320973,,1.126206397113023,-0.34300588043597974,-1.043446456477741,4th,2nd,1st,1.2581936818391533,-0.37144575312026834,-1.0611642524363503
mem,resp,853,1,mem3.3.3.bmp,mem3.3.2.bmp,mem2.3.3.bmp,ACC036,"[3, 3, 3]","[3, 3, 0]","[0, 3, 3]",non-match,1.3030765749413242,4,0.5068645063681476,-0.2829066397313741,-0.8285972947581957,3rd,2nd,1st,0.2790669777235104,-0.37144575312026834,-1.0611642524363503
mem,resp,728,1,mem2.1.3.bmp,mem2.2.1.bmp,mem1.3.3.bmp,ACC036,"[0, -3, 3]","[0, 0, -3]","[-3, 3, 3]",non-match,0.6473959944455496,1,0.9394434833892022,1.3138825746071758,-0.9243199863094997,4th,4th,1st,1.2581936818391533,1.294345793214632,-1.0611642524363503
mem,resp,1225,0,mem3.2.3.bmp,mem1.1.2.bmp,mem3.1.2.bmp,ACC036,"[3, 0, 3]","[-3, -3, 0]","[3, -3, 0]",non-match,1.0144014403465114,3,0.15185965437401608,-1.3766215782795383,-0.674058955584759,3rd,1st,1st,0.2790669777235104,-1.2362973792712832,-1.0611642524363503
mem,resp,983,1,mem3.1.1.bmp,mem2.1.1.bmp,mem2.1.1.bmp,ACC036,"[3, -3, -3]","[0, -3, -3]","[0, -3, -3]",match,1.7113248654051871,,0.18829368909217722,0.2772597826447756,-0.06896527300416826,3rd,3rd,3rd,0.2790669777235104,0.3133973391769196,0.0710117585634525
mem,resp,1008,1,mem1.3.1.bmp,mem3.3.2.bmp,mem3.1.3.bmp,ACC036,"[-3, 3, -3]","[3, 3, 0]","[3, -3, 3]",non-match,0.3545027756320972,1,-0.34949342099113684,-0.3909468364269011,-0.2811188386854875,2nd,2nd,2nd,-0.30486787084236044,-0.37144575312026834,-0.41917556838884895
mem,resp,1328,1,mem2.2.1.bmp,mem2.3.1.bmp,mem3.2.1.bmp,ACC036,"[0, 0, -3]","[0, 3, -3]","[3, 0, -3]",non-match,1.3030765749413242,4,-1.063479541774054,-1.8414213923553489,0.41977889201171653,1st,1st,4th,-1.2323927887203032,-1.2362973792712832,1.409328062261748
mem,resp,965,1,mem2.2.2.bmp,mem2.3.3.bmp,mem3.3.1.bmp,ACC036,"[0, 0, 0]","[0, 3, 3]","[3, 3, -3]",non-match,0.8545027756320972,2,-0.4459160392580577,-1.215048530589191,0.7665258509065133,2nd,1st,4th,-0.30486787084236044,-1.2362973792712832,1.409328062261748
mem,resp,1032,1,mem1.2.2.bmp,mem3.2.2.bmp,mem2.3.2.bmp,ACC036,"[-3, 0, 0]","[3, 0, 0]","[0, 3, 0]",non-match,1.1835034190722742,4,0.1652217635559981,0.17692729023306455,0.8511782397739205,3rd,3rd,4th,0.2790669777235104,0.3133973391769196,1.409328062261748
mem,resp,1292,0,mem1.3.3.bmp,mem2.1.3.bmp,mem1.1.2.bmp,ACC036,"[-3, 3, 3]","[0, -3, 3]","[-3, -3, 0]",non-match,0.9462544851682343,3,0.1586032721932652,0.4784090971507029,0.9041410099106458,3rd,3rd,4th,0.2790669777235104,0.3133973391769196,1.409328062261748
mem,resp,1119,1,mem3.3.2.bmp,mem3.1.2.bmp,mem1.1.1.bmp,ACC036,"[3, 3, 0]","[3, -3, 0]","[-3, -3, -3]",non-match,0.4884773718476586,1,-0.5759257785966416,-0.44928074030194554,0.9120903707834732,2nd,2nd,4th,-0.30486787084236044,-0.37144575312026834,1.409328062261748
mem,resp,1045,1,mem1.1.3.bmp,mem2.2.3.bmp,mem1.1.3.bmp,ACC036,"[-3, -3, 3]","[0, 0, 3]","[-3, -3, 3]",match,1.591751709536137,,-1.0623387876223214,-1.244160337412191,0.8508649004945756,1st,1st,4th,-1.2323927887203032,-1.2362973792712832,1.409328062261748
mem,resp,930,1,mem2.3.3.bmp,mem1.3.2.bmp,mem3.2.2.bmp,ACC036,"[0, 3, 3]","[-3, 3, 0]","[3, 0, 0]",non-match,0.8545027756320972,2,-0.37719987784873227,-0.47622374984507027,0.7255255696649121,2nd,2nd,4th,-0.30486787084236044,-0.37144575312026834,1.409328062261748
mem,resp,988,1,mem3.2.1.bmp,mem1.2.3.bmp,mem3.2.1.bmp,ACC036,"[3, 0, -3]","[-3, 0, 3]","[3, 0, -3]",match,1.1835034190722742,,1.0780445166256334,0.2582508149627047,1.0160823432862398,4th,3rd,4th,1.2581936818391533,0.3133973391769196,1.409328062261748
mem,resp,913,0,mem2.1.1.bmp,mem2.3.2.bmp,mem2.1.2.bmp,ACC036,"[0, -3, -3]","[0, 3, 0]","[0, -3, 0]",non-match,1.1339745962155614,4,-0.8684050252253515,0.007554885860713151,0.8253579982938719,1st,3rd,4th,-1.2323927887203032,0.3133973391769196,1.409328062261748
mem,resp,821,1,mem3.3.3.bmp,mem1.1.3.bmp,mem3.3.3.bmp,ACC036,"[3, 3, 3]","[-3, -3, 3]","[3, 3, 3]",match,1.1835034190722742,,2.0479069613595473,0.4574110544300105,0.7996129730208188,4th,3rd,4th,1.2581936818391533,0.3133973391769196,1.409328062261748
mem,resp,776,1,mem1.3.3.bmp,mem3.3.1.bmp,mem3.2.2.bmp,ACC036,"[-3, 3, 3]","[3, 3, -3]","[3, 0, 0]",non-match,0.8846449283495895,2,0.4074783155834586,1.0759068366005387,0.8693994582219374,3rd,4th,4th,0.2790669777235104,1.294345793214632,1.409328062261748
mem,resp,1044,1,mem3.1.1.bmp,mem2.2.2.bmp,mem1.2.1.bmp,ACC036,"[3, -3, -3]","[0, 0, 0]","[-3, 0, -3]",non-match,0.9462544851682343,3,0.4744100788629975,0.4774544936284309,1.1921396058127052,3rd,3rd,4th,0.2790669777235104,0.3133973391769196,1.409328062261748
mem,resp,1061,1,mem1.3.1.bmp,mem1.2.2.bmp,mem1.2.2.bmp,ACC036,"[-3, 3, -3]","[-3, 0, 0]","[-3, 0, 0]",match,1.591751709536137,,-1.0033649425672575,-1.3205267900089224,1.1896331436190897,1st,1st,4th,-1.2323927887203032,-1.2362973792712832,1.409328062261748
mem,resp,1007,1,mem2.3.2.bmp,mem3.3.3.bmp,mem2.3.2.bmp,ACC036,"[0, 3, 0]","[3, 3, 3]","[0, 3, 0]",match,1.591751709536137,,0.078597510801538,0.3330252026871324,1.4909802774653096,3rd,3rd,4th,0.2790669777235104,0.3133973391769196,1.409328062261748
mem,resp,1316,1,mem3.3.1.bmp,mem3.1.3.bmp,mem3.1.3.bmp,ACC036,"[3, 3, -3]","[3, -3, 3]","[3, -3, 3]",match,1.1835034190722742,,-1.7761595313966774,-0.32849308802706856,1.2102659864414709,1st,2nd,4th,-1.2323927887203032,-0.37144575312026834,1.409328062261748
mem,resp,872,1,mem2.2.2.bmp,mem2.1.2.bmp,mem2.1.2.bmp,ACC036,"[0, 0, 0]","[0, -3, 0]","[0, -3, 0]",match,1.7113248654051871,,0.5022871791218027,-0.4948309899889453,1.0939061727357073,3rd,2nd,4th,0.2790669777235104,-0.37144575312026834,1.409328062261748
mem,resp,1049,1,mem1.1.3.bmp,mem1.1.1.bmp,mem1.1.3.bmp,ACC036,"[-3, -3, 3]","[-3, -3, -3]","[-3, -3, 3]",match,1.4226497308103743,,0.5655767377504968,0.6558409677123194,1.2016252613983749,4th,3rd,4th,1.2581936818391533,0.3133973391769196,1.409328062261748
mem,resp,1321,0,mem2.2.1.bmp,mem2.1.1.bmp,mem2.2.1.bmp,ACC036,"[0, 0, -3]","[0, -3, -3]","[0, 0, -3]",match,1.7113248654051871,,0.1147925116714763,-0.6150192087074995,1.3027578520361789,3rd,2nd,4th,0.2790669777235104,-0.37144575312026834,1.409328062261748
mem,resp,967,1,mem2.1.3.bmp,mem1.1.1.bmp,mem2.1.3.bmp,ACC036,"[0, -3, 3]","[-3, -3, -3]","[0, -3, 3]",match,1.3545027756320973,,-1.8673726342569408,0.28696794142345633,1.5091664330881749,1st,3rd,4th,-1.2323927887203032,0.3133973391769196,1.409328062261748
mem,resp,784,1,mem3.1.2.bmp,mem3.1.1.bmp,mem1.1.2.bmp,ACC036,"[3, -3, 0]","[3, -3, -3]","[-3, -3, 0]",non-match,0.7771525064424715,2,0.33788182292671926,1.3527889932689843,1.8170672774712848,3rd,4th,4th,0.2790669777235104,1.294345793214632,1.409328062261748
mem,resp,859,1,mem2.2.2.bmp,mem3.3.2.bmp,mem1.2.1.bmp,ACC036,"[0, 0, 0]","[3, 3, 0]","[-3, 0, -3]",non-match,0.8846449283495895,2,0.01340686771480627,-0.18924647512191176,1.5985390589931663,2nd,2nd,4th,-0.30486787084236044,-0.37144575312026834,1.409328062261748
mem,resp,1753,0,mem3.3.3.bmp,mem1.1.3.bmp,mem3.3.1.bmp,ACC036,"[3, 3, 3]","[-3, -3, 3]","[3, 3, -3]",non-match,0.42264973081037427,1,-1.3273936885948934,-1.8308536682499765,1.6353227913895911,1st,1st,4th,-1.2323927887203032,-1.2362973792712832,1.409328062261748
mem,resp,887,1,mem2.1.2.bmp,mem2.3.3.bmp,mem2.3.3.bmp,ACC036,"[0, -3, 0]","[0, 3, 3]","[0, 3, 3]",match,1.3545027756320973,,0.7330383606631342,1.0183418065778354,2.045207885662471,4th,4th,4th,1.2581936818391533,1.294345793214632,1.409328062261748
mem,resp,1326,0,mem2.2.3.bmp,mem2.2.1.bmp,mem3.1.2.bmp,ACC036,"[0, 0, 3]","[0, 0, -3]","[3, -3, 0]",non-match,1.0,3,-0.41024632287881607,-0.37049486801022,2.1807379046534097,2nd,2nd,4th,-0.30486787084236044,-0.37144575312026834,1.409328062261748
mem,resp,1076,1,mem2.3.2.bmp,mem2.3.1.bmp,mem1.3.1.bmp,ACC036,"[0, 3, 0]","[0, 3, -3]","[-3, 3, -3]",non-match,1.3030765749413242,4,0.3870057859256144,-0.45673794251176175,2.227440286774749,3rd,2nd,4th,0.2790669777235104,-0.37144575312026834,1.409328062261748
mem,resp,860,1,mem1.3.2.bmp,mem3.2.1.bmp,mem1.3.2.bmp,ACC036,"[-3, 3, 0]","[3, 0, -3]","[-3, 3, 0]",match,1.2928932188134525,,-0.719854308961565,1.0934029334941158,2.274268763370581,1st,4th,4th,-1.2323927887203032,1.294345793214632,1.409328062261748
mem,resp,967,0,mem3.3.1.bmp,mem2.1.3.bmp,mem1.1.1.bmp,ACC036,"[3, 3, -3]","[0, -3, 3]","[-3, -3, -3]",non-match,0.5380061947043713,1,-1.0971469068320272,0.19807636587216204,2.685110574546203,1st,3rd,4th,-1.2323927887203032,0.3133973391769196,1.409328062261748
mem,resp,1721,1,mem1.3.3.bmp,mem1.2.2.bmp,mem1.2.2.bmp,ACC036,"[-3, 3, 3]","[-3, 0, 0]","[-3, 0, 0]",match,1.591751709536137,,-1.2870958382258548,-0.9077712879103562,2.545799367129439,1st,1st,4th,-1.2323927887203032,-1.2362973792712832,1.409328062261748
mem,resp,655,0,mem1.2.1.bmp,mem2.3.2.bmp,mem2.3.1.bmp,ACC036,"[-3, 0, -3]","[0, 3, 0]","[0, 3, -3]",non-match,1.3030765749413242,4,1.2189914722878172,0.8041279905932129,2.7556519137336823,4th,4th,4th,1.2581936818391533,1.294345793214632,1.409328062261748
mem,resp,720,1,mem1.1.3.bmp,mem1.1.2.bmp,mem1.1.3.bmp,ACC036,"[-3, -3, 3]","[-3, -3, 0]","[-3, -3, 3]",match,1.7113248654051871,,0.5373988082059102,0.7269041893532083,2.6593218794441755,3rd,4th,4th,0.2790669777235104,1.294345793214632,1.409328062261748
mem,resp,733,1,mem3.3.2.bmp,mem3.2.2.bmp,mem3.2.2.bmp,ACC036,"[3, 3, 0]","[3, 0, 0]","[3, 0, 0]",match,1.7113248654051871,,1.0017458303108542,0.06780038434810853,2.6268018427832596,4th,3rd,4th,1.2581936818391533,0.3133973391769196,1.409328062261748
mem,resp,839,1,mem2.1.1.bmp,mem3.1.3.bmp,mem3.1.3.bmp,ACC036,"[0, -3, -3]","[3, -3, 3]","[3, -3, 3]",match,1.3545027756320973,,-0.026336858824067094,0.5658369395993489,2.54205843993949,2nd,3rd,4th,-0.30486787084236044,0.3133973391769196,1.409328062261748
mem,resp,796,1,mem1.3.1.bmp,mem1.3.2.bmp,mem1.3.1.bmp,ACC036,"[-3, 3, -3]","[-3, 3, 0]","[-3, 3, -3]",match,1.7113248654051871,,0.5542761743694916,0.14784617520913887,2.463084843296693,4th,3rd,4th,1.2581936818391533,0.3133973391769196,1.409328062261748
mem,resp,1357,1,mem1.1.1.bmp,mem3.2.3.bmp,mem2.1.3.bmp,ACC036,"[-3, -3, -3]","[3, 0, 3]","[0, -3, 3]",non-match,0.9462544851682343,3,0.009539849701509045,-0.28866514520987013,2.2126684231863063,2nd,2nd,4th,-0.30486787084236044,-0.37144575312026834,1.409328062261748
mem,resp,861,1,mem2.3.1.bmp,mem1.3.3.bmp,mem2.3.1.bmp,ACC036,"[0, 3, -3]","[-3, 3, 3]","[0, 3, -3]",match,1.3545027756320973,,-0.3030562880958526,-0.10810194095951992,2.545043958069418,2nd,2nd,4th,-0.30486787084236044,-0.37144575312026834,1.409328062261748
mem,resp,737,1,mem3.2.1.bmp,mem2.1.1.bmp,mem3.2.1.bmp,ACC036,"[3, 0, -3]","[0, -3, -3]","[3, 0, -3]",match,1.591751709536137,,1.1048380925935841,0.964289119854957,2.0928793732234325,4th,4th,4th,1.2581936818391533,1.294345793214632,1.409328062261748
mem,resp,1013,1,mem3.1.1.bmp,mem2.2.2.bmp,mem3.3.2.bmp,ACC036,"[3, -3, -3]","[0, 0, 0]","[3, 3, 0]",non-match,0.9462544851682343,3,-0.9551118227530792,0.6762312974076792,2.1927955819427307,1st,3rd,4th,-1.2323927887203032,0.3133973391769196,1.409328062261748
mem,resp,808,1,mem3.1.3.bmp,mem2.1.2.bmp,mem3.3.1.bmp,ACC036,"[3, -3, 3]","[0, -3, 0]","[3, 3, -3]",non-match,0.4763966378857265,1,-0.3436790313356551,1.5917756736963202,1.930167744474708,2nd,4th,4th,-0.30486787084236044,1.294345793214632,1.409328062261748
mem,resp,944,1,mem2.3.3.bmp,mem3.3.3.bmp,mem2.3.3.bmp,ACC036,"[0, 3, 3]","[3, 3, 3]","[0, 3, 3]",match,1.7113248654051871,,0.9367277702953235,-0.09010703493995989,1.9114743621803902,4th,3rd,4th,1.2581936818391533,0.3133973391769196,1.409328062261748
mem,resp,729,1,mem1.2.3.bmp,mem2.2.3.bmp,mem3.1.2.bmp,ACC036,"[-3, 0, 3]","[0, 0, 3]","[3, -3, 0]",non-match,0.7928932188134524,2,0.46710418882403143,0.15288378924639354,1.6193270063939074,3rd,3rd,4th,0.2790669777235104,0.3133973391769196,1.409328062261748
mem,resp,942,1,mem1.2.2.bmp,mem3.3.2.bmp,mem3.3.2.bmp,ACC036,"[-3, 0, 0]","[3, 3, 0]","[3, 3, 0]",match,1.3545027756320973,,-0.1494099527372973,0.23841293765068075,1.5618589872189328,2nd,3rd,4th,-0.30486787084236044,0.3133973391769196,1.409328062261748
mem,resp,886,1,mem2.2.1.bmp,mem1.3.3.bmp,mem2.2.1.bmp,ACC036,"[0, 0, -3]","[-3, 3, 3]","[0, 0, -3]",match,1.2928932188134525,,0.31473960859988304,0.15444506604672698,1.5403799640072326,3rd,3rd,4th,0.2790669777235104,0.3133973391769196,1.409328062261748
mem,resp,921,1,mem3.2.2.bmp,mem2.3.3.bmp,mem1.1.1.bmp,ACC036,"[3, 0, 0]","[0, 3, 3]","[-3, -3, -3]",non-match,0.42686781502901383,1,-0.7833418252516954,0.47325118050327497,1.7947216151246297,1st,3rd,4th,-1.2323927887203032,0.3133973391769196,1.409328062261748
mem,resp,1773,0,mem3.2.3.bmp,mem1.3.1.bmp,mem2.1.1.bmp,ACC036,"[3, 0, 3]","[-3, 3, -3]","[0, -3, -3]",non-match,0.6473959944455496,1,-1.4779020312959654,-1.3920246693319007,2.0794662291725747,1st,1st,4th,-1.2323927887203032,-1.2362973792712832,1.409328062261748
mem,resp,1405,1,mem1.1.2.bmp,mem1.2.2.bmp,mem2.3.2.bmp,ACC036,"[-3, -3, 0]","[-3, 0, 0]","[0, 3, 0]",non-match,0.9462544851682343,3,-1.2783409238632504,-0.7760882443235699,2.0712662320056063,1st,1st,4th,-1.2323927887203032,-1.2362973792712832,1.409328062261748
mem,resp,848,1,mem1.3.2.bmp,mem2.1.3.bmp,mem3.1.1.bmp,ACC036,"[-3, 3, 0]","[0, -3, 3]","[3, -3, -3]",non-match,0.4884773718476586,1,0.6784902850771228,0.13189560487019644,2.6383220153528546,4th,3rd,4th,1.2581936818391533,0.3133973391769196,1.409328062261748
mem,resp,1228,0,mem3.2.2.bmp,mem1.2.1.bmp,mem2.1.2.bmp,ACC036,"[3, 0, 0]","[-3, 0, -3]","[0, -3, 0]",non-match,1.091751709536137,4,-1.8258544371736465,-0.43166133708385684,2.6969611581750477,1st,2nd,4th,-1.2323927887203032,-0.37144575312026834,1.409328062261748
mem,resp,901,1,mem1.1.1.bmp,mem2.1.1.bmp,mem2.2.3.bmp,ACC036,"[-3, -3, -3]","[0, -3, -3]","[0, 0, 3]",non-match,0.6473959944455496,1,0.13408166887593867,0.6879684267128624,2.6032348919259305,3rd,4th,4th,0.2790669777235104,1.294345793214632,1.409328062261748
mem,resp,967,1,mem2.2.1.bmp,mem2.3.2.bmp,mem2.2.1.bmp,ACC036,"[0, 0, -3]","[0, 3, 0]","[0, 0, -3]",match,1.591751709536137,,-0.2775033275318773,-0.9700595720847531,2.490221470403609,2nd,1st,4th,-0.30486787084236044,-1.2362973792712832,1.409328062261748
mem,resp,884,1,mem2.3.3.bmp,mem1.1.2.bmp,mem1.1.2.bmp,ACC036,"[0, 3, 3]","[-3, -3, 0]","[-3, -3, 0]",match,1.2928932188134525,,0.2787305949361698,-0.038923241992777524,1.8044613927731714,3rd,3rd,4th,0.2790669777235104,0.3133973391769196,1.409328062261748
mem,resp,1706,0,mem2.2.2.bmp,mem1.3.2.bmp,mem1.3.2.bmp,ACC036,"[0, 0, 0]","[-3, 3, 0]","[-3, 3, 0]",match,1.591751709536137,,-0.2959652371598673,-1.6509671276726912,1.8193517822342486,2nd,1st,4th,-0.30486787084236044,-1.2362973792712832,1.409328062261748
mem,resp,994,1,mem1.1.3.bmp,mem3.2.1.bmp,mem3.2.1.bmp,ACC036,"[-3, -3, 3]","[3, 0, -3]","[3, 0, -3]",match,1.1339745962155614,,0.06631839658697701,1.003813533487334,1.4157568738657271,3rd,4th,4th,0.2790669777235104,1.294345793214632,1.409328062261748
mem,resp,949,1,mem2.2.3.bmp,mem2.3.1.bmp,mem1.3.1.bmp,ACC036,"[0, 0, 3]","[0, 3, -3]","[-3, 3, -3]",non-match,1.0042180842186395,3,-1.269912631573558,-0.3479163372329043,0.9829984238881802,1st,2nd,4th,-1.2323927887203032,-0.37144575312026834,1.409328062261748
mem,resp,653,1,mem2.3.2.bmp,mem3.3.3.bmp,mem2.1.1.bmp,ACC036,"[0, 3, 0]","[3, 3, 3]","[0, -3, -3]",non-match,0.4884773718476586,1,1.7948844209616461,-0.23066034060068275,0.7982237326431312,4th,2nd,4th,1.2581936818391533,-0.37144575312026834,1.409328062261748
mem,resp,1069,0,mem3.3.1.bmp,mem3.2.3.bmp,mem3.2.2.bmp,ACC036,"[3, 3, -3]","[3, 0, 3]","[3, 0, 0]",non-match,1.3030765749413242,4,-0.37961916387828276,0.683126631744983,0.6778220895429882,2nd,3rd,4th,-0.30486787084236044,0.3133973391769196,1.409328062261748
mem,resp,812,1,mem2.1.2.bmp,mem3.1.2.bmp,mem2.1.2.bmp,ACC036,"[0, -3, 0]","[3, -3, 0]","[0, -3, 0]",match,1.7113248654051871,,0.9190073461428203,0.8901053085804682,0.34809588400654184,4th,4th,3rd,1.2581936818391533,1.294345793214632,0.0710117585634525
mem,resp,1161,1,mem2.1.2.bmp,mem2.1.1.bmp,mem2.1.1.bmp,ACC036,"[0, -3, 0]","[0, -3, -3]","[0, -3, -3]",match,1.7113248654051871,,0.2586489040484382,-0.8061242565020986,0.3233743328238502,3rd,1st,3rd,0.2790669777235104,-1.2362973792712832,0.0710117585634525
mem,resp,762,1,mem1.2.2.bmp,mem1.1.3.bmp,mem1.1.3.bmp,ACC036,"[-3, 0, 0]","[-3, -3, 3]","[-3, -3, 3]",match,1.591751709536137,,1.5188812015193414,-0.606622751281771,0.1652559257721195,4th,2nd,3rd,1.2581936818391533,-0.37144575312026834,0.0710117585634525
mem,resp,786,1,mem1.2.3.bmp,mem3.1.2.bmp,mem1.2.3.bmp,ACC036,"[-3, 0, 3]","[3, -3, 0]","[-3, 0, 3]",match,1.2928932188134525,,0.006489778227772947,-0.8658373658775734,0.03751791931068885,2nd,1st,3rd,-0.30486787084236044,-1.2362973792712832,0.0710117585634525
mem,resp,897,1,mem3.2.2.bmp,mem1.2.1.bmp,mem2.3.3.bmp,ACC036,"[3, 0, 0]","[-3, 0, -3]","[0, 3, 3]",non-match,0.7928932188134524,2,-0.47384678204078595,0.5220230678549542,-0.053000750505031405,2nd,3rd,3rd,-0.30486787084236044,0.3133973391769196,0.0710117585634525
mem,resp,1004,1,mem3.2.1.bmp,mem1.1.2.bmp,mem2.1.3.bmp,ACC036,"[3, 0, -3]","[-3, -3, 0]","[0, -3, 3]",non-match,0.8846449283495895,2,0.21851907986886138,-0.31472872110750205,0.36384292697947845,3rd,2nd,3rd,0.2790669777235104,-0.37144575312026834,0.0710117585634525
mem,resp,860,1,mem1.3.1.bmp,mem1.3.2.bmp,mem3.2.3.bmp,ACC036,"[-3, 3, -3]","[-3, 3, 0]","[3, 0, 3]",non-match,0.42686781502901383,1,1.6923696912844226,-0.22570752372975358,0.3931637191946871,4th,2nd,3rd,1.2581936818391533,-0.37144575312026834,0.0710117585634525
mem,resp,1955,1,mem3.3.2.bmp,mem3.3.1.bmp,mem3.3.2.bmp,ACC036,"[3, 3, 0]","[3, 3, -3]","[3, 3, 0]",match,1.7113248654051871,,-0.8096813185705815,0.8718156149549947,0.263732050216803,1st,4th,3rd,-1.2323927887203032,1.294345793214632,0.0710117585634525
mem,resp,910,1,mem3.1.3.bmp,mem3.3.3.bmp,mem2.2.3.bmp,ACC036,"[3, -3, 3]","[3, 3, 3]","[0, 0, 3]",non-match,1.1835034190722742,4,-0.5129686584239128,-0.9954829813639913,-0.10590120928385907,2nd,1st,3rd,-0.30486787084236044,-1.2362973792712832,0.0710117585634525
mem,resp,845,1,mem2.2.2.bmp,mem1.2.2.bmp,mem2.2.2.bmp,ACC036,"[0, 0, 0]","[-3, 0, 0]","[0, 0, 0]",match,1.7113248654051871,,-0.10927965710526157,-0.8703381044859786,-0.4160451392013706,2nd,1st,2nd,-0.30486787084236044,-1.2362973792712832,-0.41917556838884895
mem,resp,830,1,mem2.1.3.bmp,mem1.3.3.bmp,mem2.1.3.bmp,ACC036,"[0, -3, 3]","[-3, 3, 3]","[0, -3, 3]",match,1.3545027756320973,,0.6482784920203016,0.02323103993842167,-0.2796996538280069,4th,3rd,2nd,1.2581936818391533,0.3133973391769196,-0.41917556838884895
mem,resp,852,1,mem2.3.1.bmp,mem2.3.2.bmp,mem2.3.1.bmp,ACC036,"[0, 3, -3]","[0, 3, 0]","[0, 3, -3]",match,1.7113248654051871,,-0.42796549963393454,-0.14038274342795903,-0.21190591631777234,2nd,2nd,2nd,-0.30486787084236044,-0.37144575312026834,-0.41917556838884895
mem,resp,1059,1,mem1.3.2.bmp,mem2.3.3.bmp,mem1.3.2.bmp,ACC036,"[-3, 3, 0]","[0, 3, 3]","[-3, 3, 0]",match,1.591751709536137,,0.7233274807321058,1.931883860677439,-0.16702128350807086,4th,4th,3rd,1.2581936818391533,1.294345793214632,0.0710117585634525
mem,resp,1096,0,mem3.3.1.bmp,mem2.2.3.bmp,mem2.2.3.bmp,ACC036,"[3, 3, -3]","[0, 0, 3]","[0, 0, 3]",match,1.2928932188134525,,0.6829222991421222,1.1993778262723922,-0.04255145335312662,4th,4th,3rd,1.2581936818391533,1.294345793214632,0.0710117585634525
mem,resp,993,1,mem1.2.1.bmp,mem2.2.2.bmp,mem1.1.1.bmp,ACC036,"[-3, 0, -3]","[0, 0, 0]","[-3, -3, -3]",non-match,1.2113248654051871,4,0.3047696104346908,0.46905425989837796,-0.37189294547218366,3rd,3rd,2nd,0.2790669777235104,0.3133973391769196,-0.41917556838884895
mem,resp,1101,0,mem1.1.3.bmp,mem3.3.2.bmp,mem3.3.2.bmp,ACC036,"[-3, -3, 3]","[3, 3, 0]","[3, 3, 0]",match,1.1339745962155614,,-0.3274108924683884,-1.0367102314621932,-0.474118226858986,2nd,1st,2nd,-0.30486787084236044,-1.2362973792712832,-0.41917556838884895
mem,resp,1360,1,mem2.1.1.bmp,mem3.2.1.bmp,mem3.2.1.bmp,ACC036,"[0, -3, -3]","[3, 0, -3]","[3, 0, -3]",match,1.591751709536137,,-0.9578758364948409,0.5380374093598518,-0.30276016697520436,1st,3rd,2nd,-1.2323927887203032,0.3133973391769196,-0.41917556838884895
mem,resp,956,1,mem3.1.2.bmp,mem1.2.3.bmp,mem1.3.3.bmp,ACC036,"[3, -3, 0]","[-3, 0, 3]","[-3, 3, 3]",non-match,0.8452994616207485,2,-0.4391241486404947,0.7451110112702656,-0.16468593475782572,2nd,4th,3rd,-0.30486787084236044,1.294345793214632,0.0710117585634525
mem,resp,1162,1,mem3.3.3.bmp,mem2.3.1.bmp,mem3.3.3.bmp,ACC036,"[3, 3, 3]","[0, 3, -3]","[3, 3, 3]",match,1.3545027756320973,,0.38814024664996033,-0.9336409605692323,-0.2131426767676804,3rd,1st,2nd,0.2790669777235104,-1.2362973792712832,-0.41917556838884895
mem,resp,869,1,mem3.2.3.bmp,mem3.1.3.bmp,mem3.2.3.bmp,ACC036,"[3, 0, 3]","[3, -3, 3]","[3, 0, 3]",match,1.7113248654051871,,-0.1786188869545823,0.47672609290134343,-0.19035965594714277,2nd,3rd,3rd,-0.30486787084236044,0.3133973391769196,0.0710117585634525
mem,resp,873,1,mem2.2.1.bmp,mem3.1.1.bmp,mem1.2.1.bmp,ACC036,"[0, 0, -3]","[3, -3, -3]","[-3, 0, -3]",non-match,1.0658276410372842,3,-0.6174990657097053,0.4728735211889451,-0.28535210089168944,2nd,3rd,2nd,-0.30486787084236044,0.3133973391769196,-0.41917556838884895
mem,resp,788,1,mem1.1.1.bmp,mem2.2.2.bmp,mem1.1.1.bmp,ACC036,"[-3, -3, -3]","[0, 0, 0]","[-3, -3, -3]",match,1.5,,0.46606297719290907,1.7393358362164528,-0.5596661609905743,3rd,4th,2nd,0.2790669777235104,1.294345793214632,-0.41917556838884895
mem,resp,722,1,mem1.1.2.bmp,mem1.2.3.bmp,mem1.1.2.bmp,ACC036,"[-3, -3, 0]","[-3, 0, 3]","[-3, -3, 0]",match,1.591751709536137,,1.2070465571753448,-0.6183743191144515,-0.5127181082875956,4th,2nd,2nd,1.2581936818391533,-0.37144575312026834,-0.41917556838884895
mem,resp,757,1,mem2.3.2.bmp,mem2.2.3.bmp,mem2.3.2.bmp,ACC036,"[0, 3, 0]","[0, 0, 3]","[0, 3, 0]",match,1.591751709536137,,1.1869871590209147,0.3227589691880207,-0.1998078016168865,4th,3rd,2nd,1.2581936818391533,0.3133973391769196,-0.41917556838884895
mem,resp,870,0,mem1.3.3.bmp,mem2.1.2.bmp,mem1.2.2.bmp,ACC036,"[-3, 3, 3]","[0, -3, 0]","[-3, 0, 0]",non-match,1.1835034190722742,4,0.82290198654882,0.8294799557567266,-0.3136370272880135,4th,4th,2nd,1.2581936818391533,1.294345793214632,-0.41917556838884895
mem,resp,676,1,mem3.1.1.bmp,mem3.2.2.bmp,mem3.1.1.bmp,ACC036,"[3, -3, -3]","[3, 0, 0]","[3, -3, -3]",match,1.591751709536137,,1.4962217992785314,-0.33541971105539875,-0.4068873571436989,4th,2nd,2nd,1.2581936818391533,-0.37144575312026834,-0.41917556838884895
mem,resp,861,1,mem2.3.3.bmp,mem2.3.1.bmp,mem1.1.1.bmp,ACC036,"[0, 3, 3]","[0, 3, -3]","[-3, -3, -3]",non-match,0.4884773718476586,1,0.7063352910942494,1.0753363619311718,-0.3253336833608006,4th,4th,2nd,1.2581936818391533,1.294345793214632,-0.41917556838884895
mem,resp,1450,1,mem2.2.3.bmp,mem2.1.3.bmp,mem2.1.1.bmp,ACC036,"[0, 0, 3]","[0, -3, 3]","[0, -3, -3]",non-match,0.7771525064424715,2,0.372915939256628,-0.1894786275820358,-0.488465108135696,3rd,2nd,2nd,0.2790669777235104,-0.37144575312026834,-0.41917556838884895
mem,resp,866,1,mem1.3.2.bmp,mem3.3.3.bmp,mem3.2.3.bmp,ACC036,"[-3, 3, 0]","[3, 3, 3]","[3, 0, 3]",non-match,1.0042180842186395,3,-0.6310458918810553,-1.1247627117111947,-0.37479280805425186,1st,1st,2nd,-1.2323927887203032,-1.2362973792712832,-0.41917556838884895
mem,resp,1164,1,mem2.2.2.bmp,mem3.2.1.bmp,mem1.2.1.bmp,ACC036,"[0, 0, 0]","[3, 0, -3]","[-3, 0, -3]",non-match,1.0144014403465114,3,-1.7981806936574116,-0.8821717377415756,0.005152761087207559,1st,1st,3rd,-1.2323927887203032,-1.2362973792712832,0.0710117585634525
mem,resp,1011,1,mem3.1.2.bmp,mem3.1.3.bmp,mem3.1.3.bmp,ACC036,"[3, -3, 0]","[3, -3, 3]","[3, -3, 3]",match,1.7113248654051871,,0.6591619926078648,0.4571800764992111,0.03175615309630237,4th,3rd,3rd,1.2581936818391533,0.3133973391769196,0.0710117585634525
mem,resp,1118,1,mem2.1.2.bmp,mem3.3.2.bmp,mem2.1.2.bmp,ACC036,"[0, -3, 0]","[3, 3, 0]","[0, -3, 0]",match,1.3545027756320973,,-1.079383557832349,-0.012883233699955577,0.25101220797517687,1st,3rd,3rd,-1.2323927887203032,0.3133973391769196,0.0710117585634525
mem,resp,1670,0,mem3.1.1.bmp,mem1.3.3.bmp,mem1.3.2.bmp,ACC036,"[3, -3, -3]","[-3, 3, 3]","[-3, 3, 0]",non-match,0.8452994616207485,2,-1.5712273448289973,-1.365887410973725,0.2174912558271183,1st,1st,3rd,-1.2323927887203032,-1.2362973792712832,0.0710117585634525
mem,resp,948,0,mem3.2.1.bmp,mem2.1.1.bmp,mem3.2.2.bmp,ACC036,"[3, 0, -3]","[0, -3, -3]","[3, 0, 0]",non-match,1.2113248654051871,4,1.073208790619375,-0.7691699152051842,0.3203381419915466,4th,1st,3rd,1.2581936818391533,-1.2362973792712832,0.0710117585634525
mem,resp,931,1,mem1.3.1.bmp,mem1.2.2.bmp,mem1.2.3.bmp,ACC036,"[-3, 3, -3]","[-3, 0, 0]","[-3, 0, 3]",non-match,1.0658276410372842,3,-0.05492060706506152,1.3676885716627152,0.06878455730021157,2nd,4th,3rd,-0.30486787084236044,1.294345793214632,0.0710117585634525
mem,resp,837,1,mem3.1.3.bmp,mem1.2.1.bmp,mem2.3.3.bmp,ACC036,"[3, -3, 3]","[-3, 0, -3]","[0, 3, 3]",non-match,0.6473959944455496,1,-0.1798585384955935,0.9519715805175947,0.04219666400551461,2nd,4th,3rd,-0.30486787084236044,1.294345793214632,0.0710117585634525
mem,resp,880,0,mem3.3.3.bmp,mem1.1.2.bmp,mem3.3.2.bmp,ACC036,"[3, 3, 3]","[-3, -3, 0]","[3, 3, 0]",non-match,0.8948282844774612,2,0.34658089011257825,0.12426047109498221,0.10040340280762845,3rd,3rd,3rd,0.2790669777235104,0.3133973391769196,0.0710117585634525
mem,resp,945,1,mem2.3.2.bmp,mem1.1.3.bmp,mem3.1.1.bmp,ACC036,"[0, 3, 0]","[-3, -3, 3]","[3, -3, -3]",non-match,0.4763966378857265,1,-0.004801767471923608,0.4160772880002665,0.052104968706809994,2nd,3rd,3rd,-0.30486787084236044,0.3133973391769196,0.0710117585634525
mem,resp,963,0,mem1.2.3.bmp,mem2.2.1.bmp,mem1.3.3.bmp,ACC036,"[-3, 0, 3]","[0, 0, -3]","[-3, 3, 3]",non-match,1.0042180842186395,3,-1.183915470213728,-1.4562223964194352,-0.06648796892067439,1st,1st,3rd,-1.2323927887203032,-1.2362973792712832,0.0710117585634525
mem,resp,810,1,mem3.2.1.bmp,mem3.1.2.bmp,mem1.2.2.bmp,ACC036,"[3, 0, -3]","[3, -3, 0]","[-3, 0, 0]",non-match,0.7090055512641944,2,1.0490102457288015,1.1911518849922889,-0.3834104664577479,4th,4th,2nd,1.2581936818391533,1.294345793214632,-0.41917556838884895
mem,resp,873,1,mem2.3.2.bmp,mem3.3.3.bmp,mem3.3.3.bmp,ACC036,"[0, 3, 0]","[3, 3, 3]","[3, 3, 3]",match,1.591751709536137,,-0.690476215125314,-0.8995950318681911,-0.31922560011953166,1st,1st,2nd,-1.2323927887203032,-1.2362973792712832,-0.41917556838884895
mem,resp,789,1,mem2.2.3.bmp,mem1.2.1.bmp,mem2.2.3.bmp,ACC036,"[0, 0, 3]","[-3, 0, -3]","[0, 0, 3]",match,1.3545027756320973,,-0.67139647748186,0.6791647710416527,-0.5345824963216461,1st,3rd,2nd,-1.2323927887203032,0.3133973391769196,-0.41917556838884895
mem,resp,762,0,mem3.2.2.bmp,mem1.3.2.bmp,mem2.2.1.bmp,ACC036,"[3, 0, 0]","[-3, 3, 0]","[0, 0, -3]",non-match,1.091751709536137,4,0.3711946140032165,-0.2343921090838518,-0.971849362057295,3rd,2nd,1st,0.2790669777235104,-0.37144575312026834,-1.0611642524363503
mem,resp,767,1,mem1.1.2.bmp,mem2.3.3.bmp,mem2.3.3.bmp,ACC036,"[-3, -3, 0]","[0, 3, 3]","[0, 3, 3]",match,1.2928932188134525,,-0.2092759039140611,-1.4162866718838245,-0.8121995809428765,2nd,1st,1st,-0.30486787084236044,-1.2362973792712832,-1.0611642524363503
mem,resp,631,1,mem1.1.3.bmp,mem1.2.2.bmp,mem1.1.3.bmp,ACC036,"[-3, -3, 3]","[-3, 0, 0]","[-3, -3, 3]",match,1.591751709536137,,1.6495805580927743,0.28026003115904385,-1.04006158615343,4th,3rd,1st,1.2581936818391533,0.3133973391769196,-1.0611642524363503
mem,resp,1046,1,mem1.2.1.bmp,mem1.2.3.bmp,mem1.2.3.bmp,ACC036,"[-3, 0, -3]","[-3, 0, 3]","[-3, 0, 3]",match,1.4226497308103743,,-1.7934733779460574,-0.7560197597313942,-0.9627663773808425,1st,1st,1st,-1.2323927887203032,-1.2362973792712832,-1.0611642524363503
mem,resp,729,1,mem3.3.2.bmp,mem3.1.3.bmp,mem3.1.3.bmp,ACC036,"[3, 3, 0]","[3, -3, 3]","[3, -3, 3]",match,1.3545027756320973,,0.6272886913657717,-0.5789757726656056,-0.5435590538039298,4th,2nd,2nd,1.2581936818391533,-0.37144575312026834,-0.41917556838884895
mem,resp,773,1,mem2.1.2.bmp,mem2.2.2.bmp,mem2.1.2.bmp,ACC036,"[0, -3, 0]","[0, 0, 0]","[0, -3, 0]",match,1.7113248654051871,,0.72189368350612,1.5675598827359247,-0.5394093215923238,4th,4th,2nd,1.2581936818391533,1.294345793214632,-0.41917556838884895
mem,resp,1019,0,mem2.3.1.bmp,mem3.1.1.bmp,mem2.3.1.bmp,ACC036,"[0, 3, -3]","[3, -3, -3]","[0, 3, -3]",match,1.3545027756320973,,-0.15603168850388113,-0.9460592206098296,-0.0886670591065773,2nd,1st,3rd,-0.30486787084236044,-1.2362973792712832,0.0710117585634525
mem,resp,850,1,mem1.3.1.bmp,mem3.2.2.bmp,mem1.3.1.bmp,ACC036,"[-3, 3, -3]","[3, 0, 0]","[-3, 3, -3]",match,1.2928932188134525,,2.793208892621346,2.213487471194432,-0.19304812629672524,4th,4th,3rd,1.2581936818391533,1.294345793214632,0.0710117585634525
mem,resp,714,1,mem2.1.3.bmp,mem3.2.3.bmp,mem1.3.3.bmp,ACC036,"[0, -3, 3]","[3, 0, 3]","[-3, 3, 3]",non-match,0.7090055512641944,2,1.4258024580480353,0.15314341799088335,-0.1915956083028498,4th,3rd,3rd,1.2581936818391533,0.3133973391769196,0.0710117585634525
mem,resp,1445,1,mem3.1.3.bmp,mem1.1.1.bmp,mem1.2.1.bmp,ACC036,"[3, -3, 3]","[-3, -3, -3]","[-3, 0, -3]",non-match,0.8452994616207485,2,-1.3194896847386552,-0.7475794187130905,-0.08871662126388066,1st,1st,3rd,-1.2323927887203032,-1.2362973792712832,0.0710117585634525
mem,resp,1041,1,mem3.1.1.bmp,mem2.1.1.bmp,mem2.1.1.bmp,ACC036,"[3, -3, -3]","[0, -3, -3]","[0, -3, -3]",match,1.7113248654051871,,-0.8768054908976025,-0.27127752861490273,0.19292159965435046,1st,2nd,3rd,-1.2323927887203032,-0.37144575312026834,0.0710117585634525
mem,resp,836,1,mem3.3.3.bmp,mem2.2.1.bmp,mem2.2.1.bmp,ACC036,"[3, 3, 3]","[0, 0, -3]","[0, 0, -3]",match,1.2928932188134525,,-0.37222121292071647,-2.358975200074379,0.4464195107611056,2nd,1st,4th,-0.30486787084236044,-1.2362973792712832,1.409328062261748
mem,resp,902,1,mem3.1.2.bmp,mem1.3.3.bmp,mem2.1.2.bmp,ACC036,"[3, -3, 0]","[-3, 3, 3]","[0, -3, 0]",non-match,1.0042180842186395,3,-0.4317938555547544,-0.15649097026051417,0.5466265369679955,2nd,2nd,4th,-0.30486787084236044,-0.37144575312026834,1.409328062261748
mem,resp,1057,1,mem1.3.2.bmp,mem3.2.2.bmp,mem1.1.1.bmp,ACC036,"[-3, 3, 0]","[3, 0, 0]","[-3, -3, -3]",non-match,0.6473959944455496,1,-0.5545711835592714,1.318822683455904,0.3533463053306611,2nd,4th,3rd,-0.30486787084236044,1.294345793214632,0.0710117585634525
mem,resp,925,1,mem3.3.1.bmp,mem2.3.1.bmp,mem3.3.1.bmp,ACC036,"[3, 3, -3]","[0, 3, -3]","[3, 3, -3]",match,1.7113248654051871,,0.2542480561618858,-1.2843319744661992,0.40152699563035665,3rd,1st,4th,0.2790669777235104,-1.2362973792712832,1.409328062261748
mem,resp,706,1,mem2.3.3.bmp,mem3.1.3.bmp,mem3.1.3.bmp,ACC036,"[0, 3, 3]","[3, -3, 3]","[3, -3, 3]",match,1.3545027756320973,,1.6116742001478848,-0.4167719058533083,0.6985275078450804,4th,2nd,4th,1.2581936818391533,-0.37144575312026834,1.409328062261748
mem,resp,793,1,mem3.2.3.bmp,mem3.1.1.bmp,mem3.2.3.bmp,ACC036,"[3, 0, 3]","[3, -3, -3]","[3, 0, 3]",match,1.3545027756320973,,-0.7500445023970769,-0.7206635581264867,0.4089410871971733,1st,1st,4th,-1.2323927887203032,-1.2362973792712832,1.409328062261748
mem,resp,767,1,mem2.1.1.bmp,mem3.2.1.bmp,mem1.2.1.bmp,ACC036,"[0, -3, -3]","[3, 0, -3]","[-3, 0, -3]",non-match,1.0144014403465114,3,0.19766530558484993,-0.7969579360200284,0.3315703997087266,3rd,1st,3rd,0.2790669777235104,-1.2362973792712832,0.0710117585634525
mem,resp,750,0,mem1.3.3.bmp,mem1.1.2.bmp,mem1.3.2.bmp,ACC036,"[-3, 3, 3]","[-3, -3, 0]","[-3, 3, 0]",non-match,1.1339745962155614,4,0.8968920338583903,-0.4201437677440711,0.28665084154222786,4th,2nd,3rd,1.2581936818391533,-0.37144575312026834,0.0710117585634525
mem,resp,915,0,mem1.2.3.bmp,mem3.3.1.bmp,mem1.1.3.bmp,ACC036,"[-3, 0, 3]","[3, 3, -3]","[-3, -3, 3]",non-match,0.7113248654051871,2,-0.02794785016492741,-1.2178474484108184,0.3009293933875331,2nd,1st,3rd,-0.30486787084236044,-1.2362973792712832,0.0710117585634525
mem,resp,1031,1,mem2.2.1.bmp,mem1.3.1.bmp,mem2.2.3.bmp,ACC036,"[0, 0, -3]","[-3, 3, -3]","[0, 0, 3]",non-match,0.7155429496238267,2,-0.38036267089991277,0.9170585615596704,0.20087278891262067,2nd,4th,3rd,-0.30486787084236044,1.294345793214632,0.0710117585634525
mem,resp,894,0,mem1.1.1.bmp,mem3.3.2.bmp,mem3.2.3.bmp,ACC036,"[-3, -3, -3]","[3, 3, 0]","[3, 0, 3]",non-match,0.7257263057516985,2,0.7027618503020832,-0.3920188158633238,0.37477437961672544,4th,2nd,3rd,1.2581936818391533,-0.37144575312026834,0.0710117585634525
mem,resp,756,1,mem2.2.2.bmp,mem2.1.3.bmp,mem2.1.3.bmp,ACC036,"[0, 0, 0]","[0, -3, 3]","[0, -3, 3]",match,1.591751709536137,,-0.691637884933627,0.44822088233808877,0.19727453468721662,1st,3rd,3rd,-1.2323927887203032,0.3133973391769196,0.0710117585634525
mem,resp,801,1,mem1.2.2.bmp,mem2.3.2.bmp,mem1.2.2.bmp,ACC036,"[-3, 0, 0]","[0, 3, 0]","[-3, 0, 0]",match,1.591751709536137,,0.4670239145328379,0.11112130035856498,0.19356574765879211,3rd,3rd,3rd,0.2790669777235104,0.3133973391769196,0.0710117585634525
mem,resp,764,1,mem3.3.3.bmp,mem1.1.3.bmp,mem3.3.3.bmp,ACC036,"[3, 3, 3]","[-3, -3, 3]","[3, 3, 3]",match,1.1835034190722742,,-0.7204033928445958,-0.7852283400689155,0.08889593492947054,1st,1st,3rd,-1.2323927887203032,-1.2362973792712832,0.0710117585634525
mem,resp,790,1,mem3.3.1.bmp,mem3.2.3.bmp,mem3.2.3.bmp,ACC036,"[3, 3, -3]","[3, 0, 3]","[3, 0, 3]",match,1.3545027756320973,,-0.002295683279199906,-0.9684329211747542,-0.1597953475646864,2nd,1st,3rd,-0.30486787084236044,-1.2362973792712832,0.0710117585634525
mem,resp,742,1,mem1.1.2.bmp,mem2.2.1.bmp,mem3.1.3.bmp,ACC036,"[-3, -3, 0]","[0, 0, -3]","[3, -3, 3]",non-match,0.6473959944455496,1,-1.1496326210217964,-1.1520140159474668,-0.09374049826038514,1st,1st,3rd,-1.2323927887203032,-1.2362973792712832,0.0710117585634525
mem,resp,805,1,mem1.3.2.bmp,mem2.2.3.bmp,mem2.2.3.bmp,ACC036,"[-3, 3, 0]","[0, 0, 3]","[0, 0, 3]",match,1.5,,0.07930189714109545,-0.6293853582420382,-0.011289496353911518,3rd,2nd,3rd,0.2790669777235104,-0.37144575312026834,0.0710117585634525
mem,resp,697,1,mem1.1.3.bmp,mem2.1.2.bmp,mem1.1.3.bmp,ACC036,"[-3, -3, 3]","[0, -3, 0]","[-3, -3, 3]",match,1.591751709536137,,0.8015909752553921,-0.3420093211858642,-0.25027012778885294,4th,2nd,2nd,1.2581936818391533,-0.37144575312026834,-0.41917556838884895
mem,resp,1214,1,mem3.2.3.bmp,mem1.3.3.bmp,mem2.2.2.bmp,ACC036,"[3, 0, 3]","[-3, 3, 3]","[0, 0, 0]",non-match,1.091751709536137,4,-0.45686515515697596,0.5170622410791221,-0.5593626624395973,2nd,3rd,2nd,-0.30486787084236044,0.3133973391769196,-0.41917556838884895
mem,resp,870,1,mem1.2.1.bmp,mem1.2.3.bmp,mem1.2.3.bmp,ACC036,"[-3, 0, -3]","[-3, 0, 3]","[-3, 0, 3]",match,1.4226497308103743,,1.2205121525608968,-0.8360846415075949,-0.3681347349792145,4th,1st,2nd,1.2581936818391533,-1.2362973792712832,-0.41917556838884895
mem,resp,745,0,mem1.3.1.bmp,mem1.3.2.bmp,mem1.3.2.bmp,ACC036,"[-3, 3, -3]","[-3, 3, 0]","[-3, 3, 0]",match,1.7113248654051871,,1.0692073836708955,1.8004489460377788,-0.4462113443433095,4th,4th,2nd,1.2581936818391533,1.294345793214632,-0.41917556838884895
mem,resp,780,1,mem3.1.2.bmp,mem3.3.3.bmp,mem1.1.2.bmp,ACC036,"[3, -3, 0]","[3, 3, 3]","[-3, -3, 0]",non-match,0.5566243270259357,1,2.6138421123148023,1.1613792225056596,-0.525644580425884,4th,4th,2nd,1.2581936818391533,1.294345793214632,-0.41917556838884895
mem,resp,936,1,mem3.2.1.bmp,mem3.2.2.bmp,mem3.2.2.bmp,ACC036,"[3, 0, -3]","[3, 0, 0]","[3, 0, 0]",match,1.7113248654051871,,-1.825237589295071,-1.3869586981132869,-0.6093269192472491,1st,1st,2nd,-1.2323927887203032,-1.2362973792712832,-0.41917556838884895
mem,resp,889,1,mem2.1.1.bmp,mem2.1.3.bmp,mem2.3.1.bmp,ACC036,"[0, -3, -3]","[0, -3, 3]","[0, 3, -3]",non-match,0.6061531498826483,1,0.5147650610888931,-1.5559255432862027,-0.7025005057947946,3rd,1st,1st,0.2790669777235104,-1.2362973792712832,-1.0611642524363503
mem,resp,885,1,mem3.1.1.bmp,mem2.3.2.bmp,mem3.1.1.bmp,ACC036,"[3, -3, -3]","[0, 3, 0]","[3, -3, -3]",match,1.2928932188134525,,-0.4412308248538816,-0.1553440134931036,-0.7739732448931951,2nd,2nd,1st,-0.30486787084236044,-0.37144575312026834,-1.0611642524363503
mem,resp,1436,1,mem2.1.3.bmp,mem3.1.1.bmp,mem3.1.1.bmp,ACC036,"[0, -3, 3]","[3, -3, -3]","[3, -3, -3]",match,1.3545027756320973,,-1.2014072184780895,-0.4733534312305214,-0.889208239359188,1st,2nd,1st,-1.2323927887203032,-0.37144575312026834,-1.0611642524363503
mem,resp,1113,1,mem3.1.2.bmp,mem2.1.1.bmp,mem2.1.1.bmp,ACC036,"[3, -3, 0]","[0, -3, -3]","[0, -3, -3]",match,1.591751709536137,,-0.08522185906249104,-0.5750673049101004,-0.7325619592958613,2nd,2nd,1st,-0.30486787084236044,-0.37144575312026834,-1.0611642524363503
mem,resp,1029,1,mem3.2.1.bmp,mem1.2.2.bmp,mem1.1.2.bmp,ACC036,"[3, 0, -3]","[-3, 0, 0]","[-3, -3, 0]",non-match,1.0042180842186395,3,-0.878671985072717,-1.9382569595714436,-0.34511154517841724,1st,1st,2nd,-1.2323927887203032,-1.2362973792712832,-0.41917556838884895
mem,resp,1103,1,mem2.1.2.bmp,mem1.3.3.bmp,mem2.1.2.bmp,ACC036,"[0, -3, 0]","[-3, 3, 3]","[0, -3, 0]",match,1.2928932188134525,,-2.0383501621345537,-0.7846601157784799,-0.5002391104990604,1st,1st,2nd,-1.2323927887203032,-1.2362973792712832,-0.41917556838884895
mem,resp,937,1,mem3.2.2.bmp,mem3.1.3.bmp,mem3.1.1.bmp,ACC036,"[3, 0, 0]","[3, -3, 3]","[3, -3, -3]",non-match,1.0144014403465114,3,0.07537416136708709,0.6325200525698503,-0.15965920376712534,3rd,3rd,3rd,0.2790669777235104,0.3133973391769196,0.0710117585634525
mem,resp,1033,1,mem1.3.2.bmp,mem1.2.3.bmp,mem1.2.3.bmp,ACC036,"[-3, 3, 0]","[-3, 0, 3]","[-3, 0, 3]",match,1.591751709536137,,-1.3959290023844135,-1.711877081226595,0.026136857515801484,1st,1st,3rd,-1.2323927887203032,-1.2362973792712832,0.0710117585634525
mem,resp,716,1,mem2.1.1.bmp,mem3.3.2.bmp,mem3.3.2.bmp,ACC036,"[0, -3, -3]","[3, 3, 0]","[3, 3, 0]",match,1.2928932188134525,,-0.4855650674888781,1.2737957732286516,-0.09789024206808214,2nd,4th,3rd,-0.30486787084236044,1.294345793214632,0.0710117585634525
mem,resp,953,1,mem2.3.2.bmp,mem3.2.3.bmp,mem3.1.2.bmp,ACC036,"[0, 3, 0]","[3, 0, 3]","[3, -3, 0]",non-match,0.9462544851682343,3,-0.7970924338261691,0.003649248528334287,-0.03809695603549957,1st,3rd,3rd,-1.2323927887203032,0.3133973391769196,0.0710117585634525
mem,resp,667,1,mem1.1.2.bmp,mem1.1.3.bmp,mem1.1.3.bmp,ACC036,"[-3, -3, 0]","[-3, -3, 3]","[-3, -3, 3]",match,1.7113248654051871,,-0.1504248095283885,0.769301540222891,0.09385629846240282,2nd,4th,3rd,-0.30486787084236044,1.294345793214632,0.0710117585634525
mem,resp,786,1,mem2.3.3.bmp,mem2.1.3.bmp,mem2.3.3.bmp,ACC036,"[0, 3, 3]","[0, -3, 3]","[0, 3, 3]",match,1.4226497308103743,,0.1017681357839827,0.05109114508374502,0.40343543491555706,3rd,3rd,4th,0.2790669777235104,0.3133973391769196,1.409328062261748
mem,resp,1004,1,mem3.3.2.bmp,mem1.3.2.bmp,mem1.2.1.bmp,ACC036,"[3, 3, 0]","[-3, 3, 0]","[-3, 0, -3]",non-match,0.8846449283495895,2,0.41966151814690406,-0.6754252133662142,0.2637793208913671,3rd,2nd,3rd,0.2790669777235104,-0.37144575312026834,0.0710117585634525
mem,resp,657,0,mem2.2.2.bmp,mem2.2.3.bmp,mem2.2.3.bmp,ACC036,"[0, 0, 0]","[0, 0, 3]","[0, 0, 3]",match,1.7113248654051871,,0.2693602234513441,-0.9245467003494175,0.4719725615482243,3rd,1st,4th,0.2790669777235104,-1.2362973792712832,1.409328062261748
mem,resp,912,1,mem1.2.2.bmp,mem3.2.1.bmp,mem1.2.2.bmp,ACC036,"[-3, 0, 0]","[3, 0, -3]","[-3, 0, 0]",match,1.3545027756320973,,-0.5572444177585226,-0.20439441833136265,0.8456128269973809,2nd,2nd,4th,-0.30486787084236044,-0.37144575312026834,1.409328062261748
mem,resp,686,1,mem3.3.1.bmp,mem1.3.1.bmp,mem1.3.1.bmp,ACC036,"[3, 3, -3]","[-3, 3, -3]","[-3, 3, -3]",match,1.4226497308103743,,0.5899891329398443,-0.3103975768317478,0.9145677960867377,4th,2nd,4th,1.2581936818391533,-0.37144575312026834,1.409328062261748
mem,resp,691,1,mem3.2.3.bmp,mem3.1.2.bmp,mem3.2.3.bmp,ACC036,"[3, 0, 3]","[3, -3, 0]","[3, 0, 3]",match,1.591751709536137,,1.7781140646259286,-0.9770040778034157,1.0183510658245662,4th,1st,4th,1.2581936818391533,-1.2362973792712832,1.409328062261748
mem,resp,976,1,mem3.1.1.bmp,mem3.3.3.bmp,mem3.1.1.bmp,ACC036,"[3, -3, -3]","[3, 3, 3]","[3, -3, -3]",match,1.1835034190722742,,0.6377255658718116,0.21337108673803865,0.8889268435458917,4th,3rd,4th,1.2581936818391533,0.3133973391769196,1.409328062261748
mem,resp,849,1,mem1.2.1.bmp,mem1.1.1.bmp,mem1.2.3.bmp,ACC036,"[-3, 0, -3]","[-3, -3, -3]","[-3, 0, 3]",non-match,0.7771525064424715,2,-0.31825642281587535,0.7206996322954444,0.8028416905000131,2nd,4th,4th,-0.30486787084236044,1.294345793214632,1.409328062261748
mem,resp,643,1,mem2.3.1.bmp,mem1.1.2.bmp,mem1.1.2.bmp,ACC036,"[0, 3, -3]","[-3, -3, 0]","[-3, -3, 0]",match,1.2928932188134525,,0.11880838733196901,-0.15639338805367098,1.2228111881284,3rd,2nd,4th,0.2790669777235104,-0.37144575312026834,1.409328062261748
mem,resp,666,1,mem3.1.3.bmp,mem3.3.1.bmp,mem3.1.3.bmp,ACC036,"[3, -3, 3]","[3, 3, -3]","[3, -3, 3]",match,1.1835034190722742,,0.8972115168799941,-0.1900941387119013,0.8316227319641272,4th,2nd,4th,1.2581936818391533,-0.37144575312026834,1.409328062261748
mem,resp,628,1,mem2.2.1.bmp,mem2.3.3.bmp,mem1.3.1.bmp,ACC036,"[0, 0, -3]","[0, 3, 3]","[-3, 3, -3]",non-match,0.9462544851682343,3,1.5276209613229306,1.7918835080191071,0.7082225142330902,4th,4th,4th,1.2581936818391533,1.294345793214632,1.409328062261748
mem,resp,831,1,mem3.3.3.bmp,mem2.2.2.bmp,mem3.3.3.bmp,ACC036,"[3, 3, 3]","[0, 0, 0]","[3, 3, 3]",match,1.5,,-0.486408164932709,0.09589901521923562,0.1602694463860533,2nd,3rd,3rd,-0.30486787084236044,0.3133973391769196,0.0710117585634525
mem,resp,534,1,mem1.1.1.bmp,mem1.2.1.bmp,mem3.2.3.bmp,ACC036,"[-3, -3, -3]","[-3, 0, -3]","[3, 0, 3]",non-match,0.3174780152878355,1,2.611239702282815,1.7945450299779726,0.01550077192912941,4th,4th,3rd,1.2581936818391533,1.294345793214632,0.0710117585634525
mem,resp,787,1,mem1.2.3.bmp,mem3.3.1.bmp,mem3.3.1.bmp,ACC036,"[-3, 0, 3]","[3, 3, -3]","[3, 3, -3]",match,1.1339745962155614,,0.2728949388805076,0.07269470580775336,0.48616861677617246,3rd,3rd,4th,0.2790669777235104,0.3133973391769196,1.409328062261748
mem,resp,832,1,mem1.1.3.bmp,mem3.3.2.bmp,mem1.1.3.bmp,ACC036,"[-3, -3, 3]","[3, 3, 0]","[-3, -3, 3]",match,1.1339745962155614,,0.27964655988151643,0.2518310302198392,0.3833922129020224,3rd,3rd,3rd,0.2790669777235104,0.3133973391769196,0.0710117585634525
mem,resp,1179,0,mem1.3.1.bmp,mem1.2.2.bmp,mem1.2.2.bmp,ACC036,"[-3, 3, -3]","[-3, 0, 0]","[-3, 0, 0]",match,1.591751709536137,,-0.6314531297392936,-0.32526823484768086,0.36503118951668495,1st,2nd,3rd,-1.2323927887203032,-0.37144575312026834,0.0710117585634525
mem,resp,813,1,mem2.2.3.bmp,mem2.1.1.bmp,mem2.2.3.bmp,ACC036,"[0, 0, 3]","[0, -3, -3]","[0, 0, 3]",match,1.3545027756320973,,1.2742719998350103,-0.2229479189449893,0.5441896404049714,4th,2nd,4th,1.2581936818391533,-0.37144575312026834,1.409328062261748
mem,resp,662,0,mem1.3.3.bmp,mem2.3.1.bmp,mem1.3.2.bmp,ACC036,"[-3, 3, 3]","[0, 3, -3]","[-3, 3, 0]",non-match,1.3030765749413242,4,-0.4188331485907794,0.8075690534412359,0.560941709168215,2nd,4th,4th,-0.30486787084236044,1.294345793214632,1.409328062261748
mem,resp,885,1,mem1.3.3.bmp,mem1.1.1.bmp,mem1.1.1.bmp,ACC036,"[-3, 3, 3]","[-3, -3, -3]","[-3, -3, -3]",match,1.1835034190722742,,-0.9977083589042806,-0.41805918999314856,0.08950616659001678,1st,2nd,3rd,-1.2323927887203032,-0.37144575312026834,0.0710117585634525
mem,resp,656,0,mem2.3.2.bmp,mem3.2.1.bmp,mem2.3.3.bmp,ACC036,"[0, 3, 0]","[3, 0, -3]","[0, 3, 3]",non-match,1.0042180842186395,3,0.825793604244867,-0.5408643948291252,0.09111876791465226,4th,2nd,3rd,1.2581936818391533,-0.37144575312026834,0.0710117585634525
mem,resp,830,1,mem1.3.1.bmp,mem3.1.1.bmp,mem1.1.3.bmp,ACC036,"[-3, 3, -3]","[3, -3, -3]","[-3, -3, 3]",non-match,0.36700683814454815,1,0.49764411077439014,-0.7116935332646248,-0.32005314805744073,3rd,2nd,2nd,0.2790669777235104,-0.37144575312026834,-0.41917556838884895
mem,resp,825,1,mem2.2.1.bmp,mem2.1.2.bmp,mem3.3.1.bmp,ACC036,"[0, 0, -3]","[0, -3, 0]","[3, 3, -3]",non-match,0.8846449283495895,2,-0.15341804682010216,0.17544391745974122,-0.24223353941334383,2nd,3rd,2nd,-0.30486787084236044,0.3133973391769196,-0.41917556838884895
mem,resp,878,1,mem3.2.2.bmp,mem1.1.2.bmp,mem2.3.1.bmp,ACC036,"[3, 0, 0]","[-3, -3, 0]","[0, 3, -3]",non-match,0.7928932188134524,2,-0.30311481496624265,-1.1999085720130078,-0.22135002462644526,2nd,1st,2nd,-0.30486787084236044,-1.2362973792712832,-0.41917556838884895
mem,resp,864,1,mem3.3.2.bmp,mem1.2.3.bmp,mem1.2.3.bmp,ACC036,"[3, 3, 0]","[-3, 0, 3]","[-3, 0, 3]",match,1.2928932188134525,,-1.7632446987946442,-1.8659231571380774,0.28577940581542327,1st,1st,3rd,-1.2323927887203032,-1.2362973792712832,0.0710117585634525
mem,resp,857,0,mem2.2.2.bmp,mem3.3.3.bmp,mem2.2.2.bmp,ACC036,"[0, 0, 0]","[3, 3, 3]","[0, 0, 0]",match,1.5,,-0.13957538474372752,0.041044972169086924,0.23297507014472102,2nd,3rd,3rd,-0.30486787084236044,0.3133973391769196,0.0710117585634525
mem,resp,781,0,mem1.2.1.bmp,mem2.1.3.bmp,mem1.1.1.bmp,ACC036,"[-3, 0, -3]","[0, -3, 3]","[-3, -3, -3]",non-match,1.0658276410372842,3,-0.4664346881725711,0.6762919878409801,0.15491619145445823,2nd,3rd,3rd,-0.30486787084236044,0.3133973391769196,0.0710117585634525
mem,resp,766,1,mem3.2.3.bmp,mem3.1.2.bmp,mem1.3.1.bmp,ACC036,"[3, 0, 3]","[3, -3, 0]","[-3, 3, -3]",non-match,0.2679491924311228,1,0.18148085441083103,-0.4630775102713034,-0.30341155088692456,3rd,2nd,2nd,0.2790669777235104,-0.37144575312026834,-0.41917556838884895
mem,resp,789,1,mem3.2.1.bmp,mem3.1.3.bmp,mem3.1.3.bmp,ACC036,"[3, 0, -3]","[3, -3, 3]","[3, -3, 3]",match,1.3545027756320973,,-2.1160582809840696,0.8174682946628359,-0.2484709817524417,1st,4th,2nd,-1.2323927887203032,1.294345793214632,-0.41917556838884895
mem,resp,1337,0,mem1.2.2.bmp,mem2.2.3.bmp,mem2.2.1.bmp,ACC036,"[-3, 0, 0]","[0, 0, 3]","[0, 0, -3]",non-match,1.0144014403465114,3,-0.7581161759943943,-1.229269914570819,-0.09244319093385218,1st,1st,3rd,-1.2323927887203032,-1.2362973792712832,0.0710117585634525
mem,resp,1116,0,mem2.1.2.bmp,mem1.3.2.bmp,mem1.1.2.bmp,ACC036,"[0, -3, 0]","[-3, 3, 0]","[-3, -3, 0]",non-match,1.1339745962155614,4,0.4965558699328207,0.32786909597013947,-0.13219048332941477,3rd,3rd,3rd,0.2790669777235104,0.3133973391769196,0.0710117585634525
mem,resp,868,0,mem1.1.1.bmp,mem1.2.3.bmp,mem2.1.3.bmp,ACC036,"[-3, -3, -3]","[-3, 0, 3]","[0, -3, 3]",non-match,0.9462544851682343,3,-1.0562631581275546,-1.3789293845948811,-0.015141489167157003,1st,1st,3rd,-1.2323927887203032,-1.2362973792712832,0.0710117585634525
mem,resp,974,1,mem2.3.2.bmp,mem1.3.3.bmp,mem2.2.3.bmp,ACC036,"[0, 3, 0]","[-3, 3, 3]","[0, 0, 3]",non-match,1.1835034190722742,4,0.26309583835584494,-0.13664725881102513,0.04110922932493574,3rd,2nd,3rd,0.2790669777235104,-0.37144575312026834,0.0710117585634525
mem,resp,1281,1,mem1.1.3.bmp,mem2.2.2.bmp,mem2.2.2.bmp,ACC036,"[-3, -3, 3]","[0, 0, 0]","[0, 0, 0]",match,1.5,,-1.10124969367866,-0.8104329306840515,-0.39052692893016283,1st,1st,2nd,-1.2323927887203032,-1.2362973792712832,-0.41917556838884895
mem,resp,613,1,mem2.1.2.bmp,mem1.2.1.bmp,mem3.3.1.bmp,ACC036,"[0, -3, 0]","[-3, 0, -3]","[3, 3, -3]",non-match,0.6473959944455496,1,2.7599149629662163,1.2901584685784995,-0.4178992706184541,4th,4th,2nd,1.2581936818391533,1.294345793214632,-0.41917556838884895
mem,resp,778,1,mem3.2.2.bmp,mem1.1.1.bmp,mem1.1.1.bmp,ACC036,"[3, 0, 0]","[-3, -3, -3]","[-3, -3, -3]",match,1.2928932188134525,,0.3254674023163794,0.6953313777580183,-0.19426394060537672,3rd,4th,3rd,0.2790669777235104,1.294345793214632,0.0710117585634525
mem,resp,1788,1,mem3.3.2.bmp,mem2.2.3.bmp,mem2.3.1.bmp,ACC036,"[3, 3, 0]","[0, 0, 3]","[0, 3, -3]",non-match,0.9462544851682343,3,-0.22643436341234172,-0.5950591370229068,-0.06391203433046601,2nd,2nd,3rd,-0.30486787084236044,-0.37144575312026834,0.0710117585634525
mem,resp,974,0,mem1.2.2.bmp,mem2.3.2.bmp,mem1.3.1.bmp,ACC036,"[-3, 0, 0]","[0, 3, 0]","[-3, 3, -3]",non-match,1.1835034190722742,4,-0.3132920492590478,0.7763623484129198,-0.010721794798317714,2nd,4th,3rd,-0.30486787084236044,1.294345793214632,0.0710117585634525
mem,resp,1049,1,mem3.2.3.bmp,mem2.1.1.bmp,mem2.2.2.bmp,ACC036,"[3, 0, 3]","[0, -3, -3]","[0, 0, 0]",non-match,1.1835034190722742,4,0.2877596961060586,-0.015133073503232961,-0.20107438743124212,3rd,3rd,2nd,0.2790669777235104,0.3133973391769196,-0.41917556838884895
mem,resp,975,1,mem3.3.3.bmp,mem3.2.1.bmp,mem3.1.2.bmp,ACC036,"[3, 3, 3]","[3, 0, -3]","[3, -3, 0]",non-match,0.9462544851682343,3,0.24972783927985195,-0.15121629384546684,-0.3667789121299377,3rd,2nd,2nd,0.2790669777235104,-0.37144575312026834,-0.41917556838884895
mem,resp,1304,0,mem1.3.2.bmp,mem2.3.1.bmp,mem2.3.3.bmp,ACC036,"[-3, 3, 0]","[0, 3, -3]","[0, 3, 3]",non-match,1.0144014403465114,3,-0.5544850975311654,-1.0434472546501943,-0.688402215637038,2nd,1st,1st,-0.30486787084236044,-1.2362973792712832,-1.0611642524363503
mem,resp,952,1,mem1.1.2.bmp,mem3.1.3.bmp,mem1.1.2.bmp,ACC036,"[-3, -3, 0]","[3, -3, 3]","[-3, -3, 0]",match,1.3545027756320973,,0.7630142773665725,0.889557092204533,-0.33276764213805443,4th,4th,2nd,1.2581936818391533,1.294345793214632,-0.41917556838884895
mem,resp,944,1,mem1.2.3.bmp,mem3.2.2.bmp,mem3.2.2.bmp,ACC036,"[-3, 0, 3]","[3, 0, 0]","[3, 0, 0]",match,1.3545027756320973,,-0.3230226638567019,2.0585350906689217,0.2350688940821116,2nd,4th,3rd,-0.30486787084236044,1.294345793214632,0.0710117585634525
mem,resp,645,1,mem3.1.2.bmp,mem3.1.1.bmp,mem3.3.1.bmp,ACC036,"[3, -3, 0]","[3, -3, -3]","[3, 3, -3]",non-match,0.7771525064424715,2,2.023050978918393,1.2255428352926863,0.42106921261658276,4th,4th,4th,1.2581936818391533,1.294345793214632,1.409328062261748
mem,resp,1122,1,mem2.2.3.bmp,mem2.3.3.bmp,mem2.3.3.bmp,ACC036,"[0, 0, 3]","[0, 3, 3]","[0, 3, 3]",match,1.7113248654051871,,-0.67477650230477,-0.3396436747166318,0.4099807225608637,1st,2nd,4th,-1.2323927887203032,-0.37144575312026834,1.409328062261748
mem,resp,938,1,mem2.2.1.bmp,mem2.1.3.bmp,mem2.2.1.bmp,ACC036,"[0, 0, -3]","[0, -3, 3]","[0, 0, -3]",match,1.3545027756320973,,-0.23955982890394423,0.9017943784562354,-0.19243217970035742,2nd,4th,3rd,-0.30486787084236044,1.294345793214632,0.0710117585634525
mem,resp,819,1,mem1.3.1.bmp,mem1.2.2.bmp,mem2.2.2.bmp,ACC036,"[-3, 3, -3]","[-3, 0, 0]","[0, 0, 0]",non-match,1.2113248654051871,4,1.5459563635021631,0.2016000308644939,-0.3328813898567547,4th,3rd,2nd,1.2581936818391533,0.3133973391769196,-0.41917556838884895
mem,resp,1085,0,mem1.3.3.bmp,mem2.1.2.bmp,mem3.1.3.bmp,ACC036,"[-3, 3, 3]","[0, -3, 0]","[3, -3, 3]",non-match,0.7752551286084112,2,-1.307716757459586,-0.9425240606337792,-0.7555083049758918,1st,1st,1st,-1.2323927887203032,-1.2362973792712832,-1.0611642524363503
mem,resp,780,1,mem2.3.1.bmp,mem3.2.3.bmp,mem2.1.1.bmp,ACC036,"[0, 3, -3]","[3, 0, 3]","[0, -3, -3]",non-match,0.7155429496238267,2,2.4664484081001157,1.5143678756985024,-0.6671844722153669,4th,4th,2nd,1.2581936818391533,1.294345793214632,-0.41917556838884895
mem,resp,936,1,mem3.3.1.bmp,mem3.3.3.bmp,mem1.2.3.bmp,ACC036,"[3, 3, -3]","[3, 3, 3]","[-3, 0, 3]",non-match,0.4884773718476586,1,2.3076163127867435,0.9987829281168682,-0.44886627997795386,4th,4th,2nd,1.2581936818391533,1.294345793214632,-0.41917556838884895
mem,resp,910,0,mem3.1.1.bmp,mem2.2.1.bmp,mem3.2.1.bmp,ACC036,"[3, -3, -3]","[0, 0, -3]","[3, 0, -3]",non-match,1.4226497308103743,4,1.2887127291581357,-0.7255620578297949,-0.41681730737760764,4th,1st,2nd,1.2581936818391533,-1.2362973792712832,-0.41917556838884895
mem,resp,958,1,mem1.2.1.bmp,mem3.1.2.bmp,mem3.3.2.bmp,ACC036,"[-3, 0, -3]","[3, -3, 0]","[3, 3, 0]",non-match,0.7155429496238267,2,1.5416611036365957,2.372656450504673,-0.5883051600720863,4th,4th,2nd,1.2581936818391533,1.294345793214632,-0.41917556838884895
mem,resp,961,0,mem2.1.3.bmp,mem1.3.1.bmp,mem2.1.3.bmp,ACC036,"[0, -3, 3]","[-3, 3, -3]","[0, -3, 3]",match,1.1339745962155614,,-1.3603213840675563,1.747810161566856,-0.9433934550998594,1st,4th,1st,-1.2323927887203032,1.294345793214632,-1.0611642524363503
mem,resp,917,1,mem2.1.1.bmp,mem1.3.2.bmp,mem1.1.2.bmp,ACC036,"[0, -3, -3]","[-3, 3, 0]","[-3, -3, 0]",non-match,1.0144014403465114,3,-0.3891558388150016,2.122309876485745,-0.6951573687665508,2nd,4th,1st,-0.30486787084236044,1.294345793214632,-1.0611642524363503
mem,resp,590,1,mem3.2.1.bmp,mem3.3.3.bmp,mem1.1.1.bmp,ACC036,"[3, 0, -3]","[3, 3, 3]","[-3, -3, -3]",non-match,0.3545027756320972,1,2.117876126822192,1.4617856996901137,-0.9276553955089715,4th,4th,1st,1.2581936818391533,1.294345793214632,-1.0611642524363503
mem,resp,965,1,mem3.1.3.bmp,mem3.3.2.bmp,mem3.3.2.bmp,ACC036,"[3, -3, 3]","[3, 3, 0]","[3, 3, 0]",match,1.3545027756320973,,-0.02899875150009604,-0.6939337545376587,-1.3501819191307964,2nd,2nd,1st,-0.30486787084236044,-0.37144575312026834,-1.0611642524363503
mem,resp,851,0,mem2.3.3.bmp,mem3.2.2.bmp,mem3.2.3.bmp,ACC036,"[0, 3, 3]","[3, 0, 0]","[3, 0, 3]",non-match,1.3030765749413242,4,0.030441278494187946,-0.5640643238238641,-1.577682436016274,3rd,2nd,1st,0.2790669777235104,-0.37144575312026834,-1.0611642524363503
mem,resp,944,1,mem2.2.2.bmp,mem1.1.2.bmp,mem1.1.2.bmp,ACC036,"[0, 0, 0]","[-3, -3, 0]","[-3, -3, 0]",match,1.591751709536137,,0.1594517273659863,-1.8484783279681576,-1.8201381822546578,3rd,1st,1st,0.2790669777235104,-1.2362973792712832,-1.0611642524363503
mem,resp,760,1,mem1.2.2.bmp,mem2.2.3.bmp,mem2.2.3.bmp,ACC036,"[-3, 0, 0]","[0, 0, 3]","[0, 0, 3]",match,1.591751709536137,,0.8804617345865654,0.6162789306323952,-1.410392144084753,4th,3rd,1st,1.2581936818391533,0.3133973391769196,-1.0611642524363503
mem,resp,691,1,mem1.3.3.bmp,mem1.3.1.bmp,mem3.2.1.bmp,ACC036,"[-3, 3, 3]","[-3, 3, -3]","[3, 0, -3]",non-match,0.4884773718476586,1,2.3466909500210726,1.2683736067377513,-1.3433214633052086,4th,4th,1st,1.2581936818391533,1.294345793214632,-1.0611642524363503
mem,resp,794,1,mem2.3.3.bmp,mem2.3.2.bmp,mem1.3.2.bmp,ACC036,"[0, 3, 3]","[0, 3, 0]","[-3, 3, 0]",non-match,1.3030765749413242,4,2.1386835887536177,0.9091810511428338,-1.5778284819489228,4th,4th,1st,1.2581936818391533,1.294345793214632,-1.0611642524363503
mem,resp,1543,0,mem2.2.2.bmp,mem2.1.3.bmp,mem2.2.2.bmp,ACC036,"[0, 0, 0]","[0, -3, 3]","[0, 0, 0]",match,1.591751709536137,,-0.2342437326668,-0.049684087119630266,-1.0415986005155908,2nd,3rd,1st,-0.30486787084236044,0.3133973391769196,-1.0611642524363503
mem,resp,1061,0,mem1.1.1.bmp,mem3.2.3.bmp,mem2.1.2.bmp,ACC036,"[-3, -3, -3]","[3, 0, 3]","[0, -3, 0]",non-match,1.091751709536137,4,-0.8137887639415777,-0.32947343492158776,-1.1911664656680239,1st,2nd,1st,-1.2323927887203032,-0.37144575312026834,-1.0611642524363503
mem,resp,791,1,mem2.2.3.bmp,mem3.1.3.bmp,mem3.1.3.bmp,ACC036,"[0, 0, 3]","[3, -3, 3]","[3, -3, 3]",match,1.591751709536137,,-0.13177952646205923,-1.49158459582573,-0.44448372906525474,2nd,1st,2nd,-0.30486787084236044,-1.2362973792712832,-0.41917556838884895
mem,resp,1200,1,mem3.2.2.bmp,mem1.3.2.bmp,mem1.3.3.bmp,ACC036,"[3, 0, 0]","[-3, 3, 0]","[-3, 3, 3]",non-match,1.0042180842186395,3,-0.7835610117560838,-0.7779958580516937,-0.5016478290707809,1st,1st,2nd,-1.2323927887203032,-1.2362973792712832,-0.41917556838884895
mem,resp,996,1,mem3.1.2.bmp,mem2.3.1.bmp,mem3.1.2.bmp,ACC036,"[3, -3, 0]","[0, 3, -3]","[3, -3, 0]",match,1.2928932188134525,,0.6146297954486821,-0.9543897431362764,-1.0770758689880748,4th,1st,1st,1.2581936818391533,-1.2362973792712832,-1.0611642524363503
mem,resp,1231,1,mem1.2.3.bmp,mem3.1.1.bmp,mem1.3.1.bmp,ACC036,"[-3, 0, 3]","[3, -3, -3]","[-3, 3, -3]",non-match,0.5380061947043713,1,0.2638715394334982,-0.2439077798353402,-0.9077887506709019,3rd,2nd,1st,0.2790669777235104,-0.37144575312026834,-1.0611642524363503
mem,resp,1019,1,mem3.3.2.bmp,mem1.1.3.bmp,mem2.1.1.bmp,ACC036,"[3, 3, 0]","[-3, -3, 3]","[0, -3, -3]",non-match,0.6473959944455496,1,-0.4667851198899889,-0.21415831911651823,-0.596776904555169,2nd,2nd,2nd,-0.30486787084236044,-0.37144575312026834,-0.41917556838884895
mem,resp,1103,1,mem1.2.1.bmp,mem2.1.2.bmp,mem2.2.3.bmp,ACC036,"[-3, 0, -3]","[0, -3, 0]","[0, 0, 3]",non-match,0.9462544851682343,3,0.614064258375671,0.9070034352657341,-1.1087708838078383,4th,4th,1st,1.2581936818391533,1.294345793214632,-1.0611642524363503
