mode,type,rt,acc,item_1,item_2,item_cue,subj_idx,item_1_number,item_2_number,item_cue_number,trial_type,summed_similarity,similarity_bin,ams,pams,slps,ams_quantile,pams_quantile,slps_quantile,ams_bin,pam_bin,slp_bin
mem,resp,1226,1,mem2.1.3.bmp,mem1.1.1.bmp,mem2.1.3.bmp,ACC034,"[0, -3, 3]","[-3, -3, -3]","[0, -3, 3]",match,1.3545027756320973,,-0.15604379483088252,-0.4166855527307886,-2.325157512427565,2nd,2nd,1st,-0.3885381377072149,-0.34924964105783285,-1.307025191339696
mem,resp,632,1,mem3.1.2.bmp,mem3.1.1.bmp,mem1.1.2.bmp,ACC034,"[3, -3, 0]","[3, -3, -3]","[-3, -3, 0]",non-match,0.7771525064424715,2,0.8916086055413769,0.22440297754380953,-2.6783554722407543,4th,3rd,1st,1.3043389599475863,0.27373464708669004,-1.307025191339696
mem,resp,1071,1,mem2.2.2.bmp,mem3.3.2.bmp,mem1.2.1.bmp,ACC034,"[0, 0, 0]","[3, 3, 0]","[-3, 0, -3]",non-match,0.8846449283495895,2,-0.329014347341227,0.8461941461543465,-2.84903287200302,2nd,4th,1st,-0.3885381377072149,1.2773613214167774,-1.307025191339696
mem,resp,889,1,mem3.3.3.bmp,mem1.1.3.bmp,mem3.3.1.bmp,ACC034,"[3, 3, 3]","[-3, -3, 3]","[3, 3, -3]",non-match,0.42264973081037427,1,-0.22771872428963763,1.9350177553959718,-2.792172802741083,2nd,4th,1st,-0.3885381377072149,1.2773613214167774,-1.307025191339696
mem,resp,1208,1,mem2.1.2.bmp,mem2.3.3.bmp,mem2.3.3.bmp,ACC034,"[0, -3, 0]","[0, 3, 3]","[0, 3, 3]",match,1.3545027756320973,,-0.5711126259680152,1.3985614172729577,-2.864232289566231,2nd,4th,1st,-0.3885381377072149,1.2773613214167774,-1.307025191339696
mem,resp,774,1,mem2.2.3.bmp,mem2.2.1.bmp,mem3.1.2.bmp,ACC034,"[0, 0, 3]","[0, 0, -3]","[3, -3, 0]",non-match,1.0,3,-0.6131450616657758,0.2124936947951518,-2.9805366471763763,2nd,3rd,1st,-0.3885381377072149,0.27373464708669004,-1.307025191339696
mem,resp,801,1,mem2.3.2.bmp,mem2.3.1.bmp,mem1.3.1.bmp,ACC034,"[0, 3, 0]","[0, 3, -3]","[-3, 3, -3]",non-match,1.3030765749413242,4,0.01873816609554082,0.5717773856456698,-2.856860223295969,3rd,4th,1st,0.31247977713683867,1.2773613214167774,-1.307025191339696
mem,resp,1039,1,mem1.3.2.bmp,mem3.2.1.bmp,mem1.3.2.bmp,ACC034,"[-3, 3, 0]","[3, 0, -3]","[-3, 3, 0]",match,1.2928932188134525,,-0.4023111432760805,-0.7198014377390626,-2.688293442563637,2nd,1st,1st,-0.3885381377072149,-1.2028022134452694,-1.307025191339696
mem,resp,866,1,mem3.3.1.bmp,mem2.1.3.bmp,mem1.1.1.bmp,ACC034,"[3, 3, -3]","[0, -3, 3]","[-3, -3, -3]",non-match,0.5380061947043713,1,0.16810252574977583,0.7706760884348868,-2.646938267757316,3rd,4th,1st,0.31247977713683867,1.2773613214167774,-1.307025191339696
mem,resp,831,1,mem1.3.3.bmp,mem1.2.2.bmp,mem1.2.2.bmp,ACC034,"[-3, 3, 3]","[-3, 0, 0]","[-3, 0, 0]",match,1.591751709536137,,-0.7141759321311578,0.18704579062681093,-2.1256436181185396,1st,3rd,1st,-1.229243363435063,0.27373464708669004,-1.307025191339696
mem,resp,1030,1,mem1.2.1.bmp,mem2.3.2.bmp,mem2.3.1.bmp,ACC034,"[-3, 0, -3]","[0, 3, 0]","[0, 3, -3]",non-match,1.3030765749413242,4,-1.0834237828658062,-0.6913858615280132,-2.170373363013631,1st,1st,1st,-1.229243363435063,-1.2028022134452694,-1.307025191339696
mem,resp,723,1,mem1.1.3.bmp,mem1.1.2.bmp,mem1.1.3.bmp,ACC034,"[-3, -3, 3]","[-3, -3, 0]","[-3, -3, 3]",match,1.7113248654051871,,0.4768847460124164,1.3336304961002488,-2.101133650245136,3rd,4th,1st,0.31247977713683867,1.2773613214167774,-1.307025191339696
mem,resp,911,1,mem3.3.2.bmp,mem3.2.2.bmp,mem3.2.2.bmp,ACC034,"[3, 3, 0]","[3, 0, 0]","[3, 0, 0]",match,1.7113248654051871,,-1.3708675372201735,1.7673006341880664,-2.2093709861170083,1st,4th,1st,-1.229243363435063,1.2773613214167774,-1.307025191339696
mem,resp,748,1,mem2.1.1.bmp,mem3.1.3.bmp,mem3.1.3.bmp,ACC034,"[0, -3, -3]","[3, -3, 3]","[3, -3, 3]",match,1.3545027756320973,,0.37954149474350896,2.1938990524965303,-1.9843955697309896,3rd,4th,1st,0.31247977713683867,1.2773613214167774,-1.307025191339696
mem,resp,634,1,mem1.3.1.bmp,mem1.3.2.bmp,mem1.3.1.bmp,ACC034,"[-3, 3, -3]","[-3, 3, 0]","[-3, 3, -3]",match,1.7113248654051871,,0.8674608787001894,0.20087214353622046,-1.9217610887172558,4th,3rd,1st,1.3043389599475863,0.27373464708669004,-1.307025191339696
mem,resp,707,0,mem1.1.1.bmp,mem3.2.3.bmp,mem2.1.3.bmp,ACC034,"[-3, -3, -3]","[3, 0, 3]","[0, -3, 3]",non-match,0.9462544851682343,3,-1.1991022659372208,-2.3060323206580637,-1.8495719753640358,1st,1st,1st,-1.229243363435063,-1.2028022134452694,-1.307025191339696
mem,resp,914,1,mem2.3.1.bmp,mem1.3.3.bmp,mem2.3.1.bmp,ACC034,"[0, 3, -3]","[-3, 3, 3]","[0, 3, -3]",match,1.3545027756320973,,-1.1460106054023471,-1.2383465451901154,-1.8236544071037357,1st,1st,1st,-1.229243363435063,-1.2028022134452694,-1.307025191339696
mem,resp,740,1,mem3.2.1.bmp,mem2.1.1.bmp,mem3.2.1.bmp,ACC034,"[3, 0, -3]","[0, -3, -3]","[3, 0, -3]",match,1.591751709536137,,0.5910185801480146,0.376241467344345,-1.8098778529154038,3rd,3rd,1st,0.31247977713683867,0.27373464708669004,-1.307025191339696
mem,resp,934,0,mem3.1.1.bmp,mem2.2.2.bmp,mem3.3.2.bmp,ACC034,"[3, -3, -3]","[0, 0, 0]","[3, 3, 0]",non-match,0.9462544851682343,3,-1.325090806979314,-0.41143236144269674,-1.6405848219826429,1st,2nd,1st,-1.229243363435063,-0.34924964105783285,-1.307025191339696
mem,resp,808,1,mem3.1.3.bmp,mem2.1.2.bmp,mem3.3.1.bmp,ACC034,"[3, -3, 3]","[0, -3, 0]","[3, 3, -3]",non-match,0.4763966378857265,1,-0.0787023781346234,1.1229431686346145,-1.7823261702588171,2nd,4th,1st,-0.3885381377072149,1.2773613214167774,-1.307025191339696
mem,resp,906,1,mem2.3.3.bmp,mem3.3.3.bmp,mem2.3.3.bmp,ACC034,"[0, 3, 3]","[3, 3, 3]","[0, 3, 3]",match,1.7113248654051871,,-0.42058545624399984,-0.8136392248194373,-1.6109145528244948,2nd,1st,1st,-0.3885381377072149,-1.2028022134452694,-1.307025191339696
mem,resp,659,1,mem1.2.3.bmp,mem2.2.3.bmp,mem3.1.2.bmp,ACC034,"[-3, 0, 3]","[0, 0, 3]","[3, -3, 0]",non-match,0.7928932188134524,2,1.1360487224001654,0.21014215372247944,-1.5459031656247157,4th,3rd,1st,1.3043389599475863,0.27373464708669004,-1.307025191339696
mem,resp,702,1,mem1.2.2.bmp,mem3.3.2.bmp,mem3.3.2.bmp,ACC034,"[-3, 0, 0]","[3, 3, 0]","[3, 3, 0]",match,1.3545027756320973,,0.7326219592969438,0.3820305085155162,-1.6247676282500503,4th,3rd,1st,1.3043389599475863,0.27373464708669004,-1.307025191339696
mem,resp,685,1,mem2.2.1.bmp,mem1.3.3.bmp,mem2.2.1.bmp,ACC034,"[0, 0, -3]","[-3, 3, 3]","[0, 0, -3]",match,1.2928932188134525,,0.2949389077514078,-0.213987339250689,-1.5290807192775573,3rd,2nd,1st,0.31247977713683867,-0.34924964105783285,-1.307025191339696
mem,resp,648,1,mem3.2.2.bmp,mem2.3.3.bmp,mem1.1.1.bmp,ACC034,"[3, 0, 0]","[0, 3, 3]","[-3, -3, -3]",non-match,0.42686781502901383,1,1.5047307070619416,2.848025420446304,-1.5841186851785796,4th,4th,1st,1.3043389599475863,1.2773613214167774,-1.307025191339696
mem,resp,844,1,mem3.2.3.bmp,mem1.3.1.bmp,mem2.1.1.bmp,ACC034,"[3, 0, 3]","[-3, 3, -3]","[0, -3, -3]",non-match,0.6473959944455496,1,-0.5968217149656461,0.5490121865806548,-1.581357128816909,2nd,4th,1st,-0.3885381377072149,1.2773613214167774,-1.307025191339696
mem,resp,717,1,mem1.1.2.bmp,mem1.2.2.bmp,mem2.3.2.bmp,ACC034,"[-3, -3, 0]","[-3, 0, 0]","[0, 3, 0]",non-match,0.9462544851682343,3,-0.3261195374692451,1.1417824152061835,-1.5094821108428542,2nd,4th,1st,-0.3885381377072149,1.2773613214167774,-1.307025191339696
mem,resp,912,1,mem1.3.2.bmp,mem2.1.3.bmp,mem3.1.1.bmp,ACC034,"[-3, 3, 0]","[0, -3, 3]","[3, -3, -3]",non-match,0.4884773718476586,1,-1.511349007314562,0.3795971222024033,-1.1983221322042612,1st,3rd,1st,-1.229243363435063,0.27373464708669004,-1.307025191339696
mem,resp,637,0,mem3.2.2.bmp,mem1.2.1.bmp,mem2.1.2.bmp,ACC034,"[3, 0, 0]","[-3, 0, -3]","[0, -3, 0]",non-match,1.091751709536137,4,0.36442998765892487,0.9551371453077601,-0.8192531047584753,3rd,4th,1st,0.31247977713683867,1.2773613214167774,-1.307025191339696
mem,resp,628,1,mem1.1.1.bmp,mem2.1.1.bmp,mem2.2.3.bmp,ACC034,"[-3, -3, -3]","[0, -3, -3]","[0, 0, 3]",non-match,0.6473959944455496,1,0.41456567649839554,-1.6243446430147759,-0.5929787051549313,3rd,1st,2nd,0.31247977713683867,-1.2028022134452694,-0.26179060868022586
mem,resp,773,1,mem2.2.1.bmp,mem2.3.2.bmp,mem2.2.1.bmp,ACC034,"[0, 0, -3]","[0, 3, 0]","[0, 0, -3]",match,1.591751709536137,,-0.723055871965897,-1.753380778284615,-0.6871251894171394,1st,1st,1st,-1.229243363435063,-1.2028022134452694,-1.307025191339696
mem,resp,848,1,mem2.3.3.bmp,mem1.1.2.bmp,mem1.1.2.bmp,ACC034,"[0, 3, 3]","[-3, -3, 0]","[-3, -3, 0]",match,1.2928932188134525,,-0.8509692341526165,-0.8935089575974532,-0.8793329634335268,1st,1st,1st,-1.229243363435063,-1.2028022134452694,-1.307025191339696
mem,resp,571,1,mem2.2.2.bmp,mem1.3.2.bmp,mem1.3.2.bmp,ACC034,"[0, 0, 0]","[-3, 3, 0]","[-3, 3, 0]",match,1.591751709536137,,1.0118405826649504,0.10643157535391731,-0.654184589080822,4th,3rd,2nd,1.3043389599475863,0.27373464708669004,-0.26179060868022586
mem,resp,605,1,mem1.1.3.bmp,mem3.2.1.bmp,mem3.2.1.bmp,ACC034,"[-3, -3, 3]","[3, 0, -3]","[3, 0, -3]",match,1.1339745962155614,,1.3010863494422544,0.04277402061981243,-0.7559910799713788,4th,3rd,1st,1.3043389599475863,0.27373464708669004,-1.307025191339696
mem,resp,606,0,mem2.2.3.bmp,mem2.3.1.bmp,mem1.3.1.bmp,ACC034,"[0, 0, 3]","[0, 3, -3]","[-3, 3, -3]",non-match,1.0042180842186395,3,0.16163076014089986,-0.5059068681180355,-0.6390019965319964,3rd,2nd,2nd,0.31247977713683867,-0.34924964105783285,-0.26179060868022586
mem,resp,569,1,mem2.3.2.bmp,mem3.3.3.bmp,mem2.1.1.bmp,ACC034,"[0, 3, 0]","[3, 3, 3]","[0, -3, -3]",non-match,0.4884773718476586,1,-0.37398547998242226,-0.7750153827735511,-0.8084901199129324,2nd,1st,1st,-0.3885381377072149,-1.2028022134452694,-1.307025191339696
mem,resp,754,0,mem3.3.1.bmp,mem3.2.3.bmp,mem3.2.2.bmp,ACC034,"[3, 3, -3]","[3, 0, 3]","[3, 0, 0]",non-match,1.3030765749413242,4,-0.8994153448709266,0.6398251918283254,-0.6194132848642699,1st,4th,2nd,-1.229243363435063,1.2773613214167774,-0.26179060868022586
mem,resp,1171,1,mem2.1.2.bmp,mem3.1.2.bmp,mem2.1.2.bmp,ACC034,"[0, -3, 0]","[3, -3, 0]","[0, -3, 0]",match,1.7113248654051871,,-0.6869398830266863,-0.7516365080957133,-0.7150247214545764,2nd,1st,1st,-0.3885381377072149,-1.2028022134452694,-1.307025191339696
mem,resp,595,1,mem1.2.1.bmp,mem1.1.3.bmp,mem1.1.3.bmp,ACC034,"[-3, 0, -3]","[-3, -3, 3]","[-3, -3, 3]",match,1.3545027756320973,,-0.2998669079507841,-0.5977216227330348,-0.7376923487911985,2nd,2nd,1st,-0.3885381377072149,-0.34924964105783285,-1.307025191339696
mem,resp,584,1,mem3.2.1.bmp,mem3.1.2.bmp,mem1.2.2.bmp,ACC034,"[3, 0, -3]","[3, -3, 0]","[-3, 0, 0]",non-match,0.7090055512641944,2,1.6751466209162822,1.5619186243347682,-0.5234480657524715,4th,4th,2nd,1.3043389599475863,1.2773613214167774,-0.26179060868022586
mem,resp,917,1,mem2.3.2.bmp,mem3.3.3.bmp,mem3.3.3.bmp,ACC034,"[0, 3, 0]","[3, 3, 3]","[3, 3, 3]",match,1.591751709536137,,-1.449200811647772,-0.7040602699599707,-0.6904498176620277,1st,1st,1st,-1.229243363435063,-1.2028022134452694,-1.307025191339696
mem,resp,913,0,mem2.2.3.bmp,mem1.2.1.bmp,mem2.2.3.bmp,ACC034,"[0, 0, 3]","[-3, 0, -3]","[0, 0, 3]",match,1.3545027756320973,,-1.111676305568387,-0.47478436061249035,-0.32409468819181564,1st,2nd,2nd,-1.229243363435063,-0.34924964105783285,-0.26179060868022586
mem,resp,546,0,mem3.2.2.bmp,mem1.3.2.bmp,mem2.2.1.bmp,ACC034,"[3, 0, 0]","[-3, 3, 0]","[0, 0, -3]",non-match,1.091751709536137,4,1.6229565304313525,0.4130878308340085,-0.3041642690430444,4th,3rd,2nd,1.3043389599475863,0.27373464708669004,-0.26179060868022586
mem,resp,499,1,mem1.1.2.bmp,mem2.3.3.bmp,mem2.3.3.bmp,ACC034,"[-3, -3, 0]","[0, 3, 3]","[0, 3, 3]",match,1.2928932188134525,,1.296057051524871,0.13219602053661972,0.1256986696760347,4th,3rd,3rd,1.3043389599475863,0.27373464708669004,0.37754810342953204
mem,resp,499,1,mem1.1.3.bmp,mem1.2.2.bmp,mem1.1.3.bmp,ACC034,"[-3, -3, 3]","[-3, 0, 0]","[-3, -3, 3]",match,1.591751709536137,,0.3417438639570651,-1.0862998410978992,-0.08086749762179068,3rd,1st,2nd,0.31247977713683867,-1.2028022134452694,-0.26179060868022586
mem,resp,612,1,mem1.2.1.bmp,mem1.2.3.bmp,mem1.2.3.bmp,ACC034,"[-3, 0, -3]","[-3, 0, 3]","[-3, 0, 3]",match,1.4226497308103743,,0.13578637101032928,-0.3072035390116656,-0.013707991099424824,3rd,2nd,2nd,0.31247977713683867,-0.34924964105783285,-0.26179060868022586
mem,resp,648,1,mem3.3.2.bmp,mem3.1.3.bmp,mem3.1.3.bmp,ACC034,"[3, 3, 0]","[3, -3, 3]","[3, -3, 3]",match,1.3545027756320973,,0.4192947789973997,-0.2380642810781592,0.022698509242519135,3rd,2nd,2nd,0.31247977713683867,-0.34924964105783285,-0.26179060868022586
mem,resp,477,1,mem2.1.2.bmp,mem2.2.2.bmp,mem2.1.2.bmp,ACC034,"[0, -3, 0]","[0, 0, 0]","[0, -3, 0]",match,1.7113248654051871,,0.4054536727416846,0.8604192854508451,0.27697134778586013,3rd,4th,3rd,0.31247977713683867,1.2773613214167774,0.37754810342953204
mem,resp,752,1,mem2.3.1.bmp,mem3.1.1.bmp,mem2.3.1.bmp,ACC034,"[0, 3, -3]","[3, -3, -3]","[0, 3, -3]",match,1.3545027756320973,,-0.6199843487945357,1.9127447917947962,0.4142844086069541,2nd,4th,3rd,-0.3885381377072149,1.2773613214167774,0.37754810342953204
mem,resp,631,1,mem1.3.1.bmp,mem3.2.2.bmp,mem1.3.1.bmp,ACC034,"[-3, 3, -3]","[3, 0, 0]","[-3, 3, -3]",match,1.2928932188134525,,0.6250528513814364,-0.5069563059787942,0.4360654587981166,3rd,2nd,3rd,0.31247977713683867,-0.34924964105783285,0.37754810342953204
mem,resp,674,1,mem2.1.3.bmp,mem3.2.3.bmp,mem1.3.3.bmp,ACC034,"[0, -3, 3]","[3, 0, 3]","[-3, 3, 3]",non-match,0.7090055512641944,2,1.3595469721213966,0.256600931508742,0.6579480937717348,4th,3rd,3rd,1.3043389599475863,0.27373464708669004,0.37754810342953204
mem,resp,615,0,mem3.1.3.bmp,mem1.1.1.bmp,mem1.2.1.bmp,ACC034,"[3, -3, 3]","[-3, -3, -3]","[-3, 0, -3]",non-match,0.8452994616207485,2,-0.384940693134719,0.019265957776897127,0.5789257040945148,2nd,3rd,3rd,-0.3885381377072149,0.27373464708669004,0.37754810342953204
mem,resp,427,1,mem3.1.1.bmp,mem2.1.1.bmp,mem2.1.1.bmp,ACC034,"[3, -3, -3]","[0, -3, -3]","[0, -3, -3]",match,1.7113248654051871,,1.4311576322149298,0.769265076489694,0.9558731936985908,4th,4th,4th,1.3043389599475863,1.2773613214167774,1.1927329813340535
mem,resp,690,1,mem3.3.3.bmp,mem2.2.1.bmp,mem2.2.1.bmp,ACC034,"[3, 3, 3]","[0, 0, -3]","[0, 0, -3]",match,1.2928932188134525,,0.869682548035863,1.367433016910101,1.1053438251657832,4th,4th,4th,1.3043389599475863,1.2773613214167774,1.1927329813340535
mem,resp,583,0,mem3.1.2.bmp,mem1.3.3.bmp,mem2.1.2.bmp,ACC034,"[3, -3, 0]","[-3, 3, 3]","[0, -3, 0]",non-match,1.0042180842186395,3,0.6218906185907997,0.3516845486512699,1.240232972020923,3rd,3rd,4th,0.31247977713683867,0.27373464708669004,1.1927329813340535
mem,resp,616,0,mem1.3.2.bmp,mem3.2.2.bmp,mem1.1.1.bmp,ACC034,"[-3, 3, 0]","[3, 0, 0]","[-3, -3, -3]",non-match,0.6473959944455496,1,0.19771003003765192,-0.33919724363212117,1.2253439535738324,3rd,2nd,4th,0.31247977713683867,-0.34924964105783285,1.1927329813340535
mem,resp,659,1,mem3.3.1.bmp,mem2.3.1.bmp,mem3.3.1.bmp,ACC034,"[3, 3, -3]","[0, 3, -3]","[3, 3, -3]",match,1.7113248654051871,,0.8317644425810512,0.40071443100855997,1.368998966913995,4th,3rd,4th,1.3043389599475863,0.27373464708669004,1.1927329813340535
mem,resp,542,1,mem2.3.3.bmp,mem3.1.3.bmp,mem3.1.3.bmp,ACC034,"[0, 3, 3]","[3, -3, 3]","[3, -3, 3]",match,1.3545027756320973,,0.4741202143635293,-0.6500094549191281,1.3690244453346256,3rd,1st,4th,0.31247977713683867,-1.2028022134452694,1.1927329813340535
mem,resp,582,1,mem3.2.3.bmp,mem3.1.1.bmp,mem3.2.3.bmp,ACC034,"[3, 0, 3]","[3, -3, -3]","[3, 0, 3]",match,1.3545027756320973,,-0.34343895445008976,0.40614826383621916,1.533561464842435,2nd,3rd,4th,-0.3885381377072149,0.27373464708669004,1.1927329813340535
mem,resp,605,1,mem2.1.1.bmp,mem3.2.1.bmp,mem1.2.1.bmp,ACC034,"[0, -3, -3]","[3, 0, -3]","[-3, 0, -3]",non-match,1.0144014403465114,3,0.6960267814428296,1.4803632979237977,1.6246721717765986,4th,4th,4th,1.3043389599475863,1.2773613214167774,1.1927329813340535
mem,resp,598,0,mem1.3.3.bmp,mem1.1.2.bmp,mem1.3.2.bmp,ACC034,"[-3, 3, 3]","[-3, -3, 0]","[-3, 3, 0]",non-match,1.1339745962155614,4,0.09725060554696785,-0.36797410292230553,1.2533688301383903,3rd,2nd,4th,0.31247977713683867,-0.34924964105783285,1.1927329813340535
mem,resp,851,0,mem1.2.3.bmp,mem3.3.1.bmp,mem1.1.3.bmp,ACC034,"[-3, 0, 3]","[3, 3, -3]","[-3, -3, 3]",non-match,0.7113248654051871,2,0.36156550427881395,1.3958213113743356,1.2954981608536638,3rd,4th,4th,0.31247977713683867,1.2773613214167774,1.1927329813340535
mem,resp,872,1,mem2.2.1.bmp,mem1.3.1.bmp,mem2.2.3.bmp,ACC034,"[0, 0, -3]","[-3, 3, -3]","[0, 0, 3]",non-match,0.7155429496238267,2,0.05233964078256139,0.4413049414309051,0.9959612766456947,3rd,3rd,4th,0.31247977713683867,0.27373464708669004,1.1927329813340535
mem,resp,536,0,mem1.1.1.bmp,mem3.3.2.bmp,mem3.2.3.bmp,ACC034,"[-3, -3, -3]","[3, 3, 0]","[3, 0, 3]",non-match,0.7257263057516985,2,0.9098108080829445,0.8123508846025873,0.8895851987195592,4th,4th,4th,1.3043389599475863,1.2773613214167774,1.1927329813340535
mem,resp,548,1,mem2.2.2.bmp,mem2.1.3.bmp,mem2.1.3.bmp,ACC034,"[0, 0, 0]","[0, -3, 3]","[0, -3, 3]",match,1.591751709536137,,0.39635738486857836,0.6958309804701596,0.6961505642395827,3rd,4th,4th,0.31247977713683867,1.2773613214167774,1.1927329813340535
mem,resp,539,1,mem1.2.2.bmp,mem2.3.2.bmp,mem1.2.2.bmp,ACC034,"[-3, 0, 0]","[0, 3, 0]","[-3, 0, 0]",match,1.591751709536137,,0.4167129573166921,-0.3660021964504583,0.6213081757181662,3rd,2nd,3rd,0.31247977713683867,-0.34924964105783285,0.37754810342953204
mem,resp,472,1,mem3.3.3.bmp,mem1.1.3.bmp,mem3.3.3.bmp,ACC034,"[3, 3, 3]","[-3, -3, 3]","[3, 3, 3]",match,1.1835034190722742,,0.8400657236756516,0.8583431808940019,0.7524451688644834,4th,4th,4th,1.3043389599475863,1.2773613214167774,1.1927329813340535
mem,resp,523,1,mem3.3.1.bmp,mem3.2.3.bmp,mem3.2.3.bmp,ACC034,"[3, 3, -3]","[3, 0, 3]","[3, 0, 3]",match,1.3545027756320973,,-0.4631862355771079,-0.8679975415225304,0.8088889642830441,2nd,1st,4th,-0.3885381377072149,-1.2028022134452694,1.1927329813340535
mem,resp,556,0,mem1.1.2.bmp,mem2.2.1.bmp,mem3.1.3.bmp,ACC034,"[-3, -3, 0]","[0, 0, -3]","[3, -3, 3]",non-match,0.6473959944455496,1,1.8121202282457296,0.12137768027953962,0.8276144294609169,4th,3rd,4th,1.3043389599475863,0.27373464708669004,1.1927329813340535
mem,resp,972,1,mem1.3.2.bmp,mem2.2.3.bmp,mem2.2.3.bmp,ACC034,"[-3, 3, 0]","[0, 0, 3]","[0, 0, 3]",match,1.5,,-1.1990152524115143,-0.17368928915418458,0.6433427154389871,1st,2nd,3rd,-1.229243363435063,-0.34924964105783285,0.37754810342953204
mem,resp,853,1,mem1.1.3.bmp,mem2.1.2.bmp,mem1.1.3.bmp,ACC034,"[-3, -3, 3]","[0, -3, 0]","[-3, -3, 3]",match,1.591751709536137,,-1.5642871448774087,-1.0659761310248004,0.7216174045032006,1st,1st,4th,-1.229243363435063,-1.2028022134452694,1.1927329813340535
mem,resp,586,0,mem3.2.3.bmp,mem1.3.3.bmp,mem2.2.2.bmp,ACC034,"[3, 0, 3]","[-3, 3, 3]","[0, 0, 0]",non-match,1.091751709536137,4,-0.9990673753884483,-0.2595601877787618,0.5427016889971032,1st,2nd,3rd,-1.229243363435063,-0.34924964105783285,0.37754810342953204
mem,resp,600,1,mem1.2.1.bmp,mem1.2.3.bmp,mem1.2.3.bmp,ACC034,"[-3, 0, -3]","[-3, 0, 3]","[-3, 0, 3]",match,1.4226497308103743,,-0.017336933419003157,-0.7184492998034928,0.5803168013636637,2nd,1st,3rd,-0.3885381377072149,-1.2028022134452694,0.37754810342953204
mem,resp,1167,1,mem1.3.1.bmp,mem1.3.2.bmp,mem1.3.2.bmp,ACC034,"[-3, 3, -3]","[-3, 3, 0]","[-3, 3, 0]",match,1.7113248654051871,,-0.3509237877683794,0.6640854306187194,0.7209499710096301,2nd,4th,4th,-0.3885381377072149,1.2773613214167774,1.1927329813340535
mem,resp,702,1,mem3.1.2.bmp,mem3.3.3.bmp,mem1.1.2.bmp,ACC034,"[3, -3, 0]","[3, 3, 3]","[-3, -3, 0]",non-match,0.5566243270259357,1,0.2502296176660004,2.412538390772032,0.44950697620991525,3rd,4th,3rd,0.31247977713683867,1.2773613214167774,0.37754810342953204
mem,resp,666,1,mem3.2.1.bmp,mem3.2.2.bmp,mem3.2.2.bmp,ACC034,"[3, 0, -3]","[3, 0, 0]","[3, 0, 0]",match,1.7113248654051871,,-0.5561624880715211,-0.9607735775804181,0.5280744886479877,2nd,1st,3rd,-0.3885381377072149,-1.2028022134452694,0.37754810342953204
mem,resp,769,1,mem2.1.1.bmp,mem2.1.3.bmp,mem2.3.1.bmp,ACC034,"[0, -3, -3]","[0, -3, 3]","[0, 3, -3]",non-match,0.6061531498826483,1,-0.09062084777298236,0.49514485038104816,0.7278580954233204,2nd,3rd,4th,-0.3885381377072149,0.27373464708669004,1.1927329813340535
mem,resp,874,1,mem3.1.1.bmp,mem2.3.2.bmp,mem3.1.1.bmp,ACC034,"[3, -3, -3]","[0, 3, 0]","[3, -3, -3]",match,1.2928932188134525,,-0.22040333869199188,0.045125197935860555,0.6909700397272913,2nd,3rd,3rd,-0.3885381377072149,0.27373464708669004,0.37754810342953204
mem,resp,668,1,mem3.1.3.bmp,mem3.1.2.bmp,mem3.3.1.bmp,ACC034,"[3, -3, 3]","[3, -3, 0]","[3, 3, -3]",non-match,0.5380061947043713,1,0.40033775660260446,1.3714039297222962,0.09134202425646322,3rd,4th,2nd,0.31247977713683867,1.2773613214167774,-0.26179060868022586
mem,resp,1152,0,mem1.1.3.bmp,mem1.1.1.bmp,mem1.3.3.bmp,ACC034,"[-3, -3, 3]","[-3, -3, -3]","[-3, 3, 3]",non-match,0.6061531498826483,1,-1.3305941937025494,-1.0117860062908122,-0.3134897824839047,1st,1st,2nd,-1.229243363435063,-1.2028022134452694,-0.26179060868022586
mem,resp,666,1,mem2.3.3.bmp,mem1.3.1.bmp,mem3.1.3.bmp,ACC034,"[0, 3, 3]","[-3, 3, -3]","[3, -3, 3]",non-match,0.3545027756320972,1,1.8218366796411094,1.3169083130814068,-0.44645641537209757,4th,4th,2nd,1.3043389599475863,1.2773613214167774,-0.26179060868022586
mem,resp,669,1,mem2.1.2.bmp,mem2.2.2.bmp,mem1.2.1.bmp,ACC034,"[0, -3, 0]","[0, 0, 0]","[-3, 0, -3]",non-match,1.091751709536137,4,0.8483977819726746,1.0492687022378226,-0.34837475347169566,4th,4th,2nd,1.3043389599475863,1.2773613214167774,-0.26179060868022586
mem,resp,560,1,mem2.3.2.bmp,mem2.2.1.bmp,mem1.2.3.bmp,ACC034,"[0, 3, 0]","[0, 0, -3]","[-3, 0, 3]",non-match,0.8545027756320972,2,1.4309204296240048,-0.3300043498501884,-0.28721214401217837,4th,2nd,2nd,1.3043389599475863,-0.34924964105783285,-0.26179060868022586
mem,resp,1037,0,mem3.3.2.bmp,mem1.3.3.bmp,mem3.2.1.bmp,ACC034,"[3, 3, 0]","[-3, 3, 3]","[3, 0, -3]",non-match,0.7257263057516985,2,-0.7060893152116307,0.7457423906304864,-0.4966339260174343,1st,4th,2nd,-1.229243363435063,1.2773613214167774,-0.26179060868022586
mem,resp,799,1,mem1.2.2.bmp,mem3.3.1.bmp,mem2.1.3.bmp,ACC034,"[-3, 0, 0]","[3, 3, -3]","[0, -3, 3]",non-match,0.6339745962155614,1,0.34256021954271254,0.5675332916087151,-0.4745455492816262,3rd,4th,2nd,0.31247977713683867,1.2773613214167774,-0.26179060868022586
mem,resp,784,1,mem1.1.1.bmp,mem3.1.2.bmp,mem3.1.2.bmp,ACC034,"[-3, -3, -3]","[3, -3, 0]","[3, -3, 0]",match,1.3545027756320973,,-0.7242787052091311,0.4383833937281429,-0.42488107430149036,1st,3rd,2nd,-1.229243363435063,0.27373464708669004,-0.26179060868022586
mem,resp,601,0,mem1.3.1.bmp,mem2.2.3.bmp,mem2.2.2.bmp,ACC034,"[-3, 3, -3]","[0, 0, 3]","[0, 0, 0]",non-match,1.2113248654051871,4,0.6578775018352544,0.2644236268387146,-0.020747755773753176,3rd,3rd,2nd,0.31247977713683867,0.27373464708669004,-0.26179060868022586
mem,resp,687,1,mem3.2.3.bmp,mem1.2.3.bmp,mem1.2.3.bmp,ACC034,"[3, 0, 3]","[-3, 0, 3]","[-3, 0, 3]",match,1.4226497308103743,,-0.3670950446054729,-1.0927242286827783,-0.19783831720244105,2nd,1st,2nd,-0.3885381377072149,-1.2028022134452694,-0.26179060868022586
mem,resp,618,1,mem2.1.3.bmp,mem3.2.2.bmp,mem2.1.3.bmp,ACC034,"[0, -3, 3]","[3, 0, 0]","[0, -3, 3]",match,1.5,,-1.7361507454091107,-0.9943721582389234,-0.24412326109645913,1st,1st,2nd,-1.229243363435063,-1.2028022134452694,-0.26179060868022586
mem,resp,801,1,mem1.3.3.bmp,mem2.3.1.bmp,mem3.1.2.bmp,ACC034,"[-3, 3, 3]","[0, 3, -3]","[3, -3, 0]",non-match,0.42686781502901383,1,-0.7742574178999712,-0.46903158597675004,-0.10738575317615903,1st,2nd,2nd,-1.229243363435063,-0.34924964105783285,-0.26179060868022586
mem,resp,644,1,mem2.1.1.bmp,mem1.2.1.bmp,mem2.1.1.bmp,ACC034,"[0, -3, -3]","[-3, 0, -3]","[0, -3, -3]",match,1.591751709536137,,0.7574312263076466,0.48936861344304794,-0.04340137289467046,4th,3rd,2nd,1.3043389599475863,0.27373464708669004,-0.26179060868022586
mem,resp,657,1,mem2.2.2.bmp,mem3.2.1.bmp,mem2.2.2.bmp,ACC034,"[0, 0, 0]","[3, 0, -3]","[0, 0, 0]",match,1.591751709536137,,-1.104926667354295,-0.5443979026204337,0.05600141025266143,1st,2nd,2nd,-1.229243363435063,-0.34924964105783285,-0.26179060868022586
mem,resp,598,0,mem1.2.3.bmp,mem1.1.2.bmp,mem1.3.2.bmp,ACC034,"[-3, 0, 3]","[-3, -3, 0]","[-3, 3, 0]",non-match,1.0144014403465114,3,0.13770353797010673,-1.3803668617595846,0.06948341665090471,3rd,1st,2nd,0.31247977713683867,-1.2028022134452694,-0.26179060868022586
mem,resp,641,1,mem2.2.1.bmp,mem1.2.2.bmp,mem1.2.2.bmp,ACC034,"[0, 0, -3]","[-3, 0, 0]","[-3, 0, 0]",match,1.591751709536137,,0.49478592058283216,-2.051083653258485,-0.044664228792643874,3rd,1st,2nd,0.31247977713683867,-1.2028022134452694,-0.26179060868022586
mem,resp,612,1,mem3.3.3.bmp,mem3.1.3.bmp,mem3.1.3.bmp,ACC034,"[3, 3, 3]","[3, -3, 3]","[3, -3, 3]",match,1.4226497308103743,,-0.5079996593377856,-1.6210558125220584,-0.48776721286024965,2nd,1st,2nd,-0.3885381377072149,-1.2028022134452694,-0.26179060868022586
mem,resp,645,1,mem2.2.3.bmp,mem3.1.1.bmp,mem3.1.1.bmp,ACC034,"[0, 0, 3]","[3, -3, -3]","[3, -3, -3]",match,1.2928932188134525,,0.3447084167720655,-0.9562501002682621,-0.02550960100637172,3rd,1st,2nd,0.31247977713683867,-1.2028022134452694,-0.26179060868022586
mem,resp,586,1,mem3.2.1.bmp,mem3.3.2.bmp,mem1.2.3.bmp,ACC034,"[3, 0, -3]","[3, 3, 0]","[-3, 0, 3]",non-match,0.4763966378857265,1,0.8409305576791779,-0.24318659273287124,0.04394383721297196,4th,2nd,2nd,1.3043389599475863,-0.34924964105783285,-0.26179060868022586
mem,resp,842,1,mem1.2.1.bmp,mem2.1.2.bmp,mem2.3.2.bmp,ACC034,"[-3, 0, -3]","[0, -3, 0]","[0, 3, 0]",non-match,0.9226497308103743,2,-0.9866292462984447,0.9557015500858378,0.022851085507975797,1st,4th,2nd,-1.229243363435063,1.2773613214167774,-0.26179060868022586
mem,resp,817,1,mem1.3.2.bmp,mem2.1.1.bmp,mem2.1.1.bmp,ACC034,"[-3, 3, 0]","[0, -3, -3]","[0, -3, -3]",match,1.2928932188134525,,-1.6561123783273588,-1.5438982536808845,-0.2511035208970147,1st,1st,2nd,-1.229243363435063,-1.2028022134452694,-0.26179060868022586
mem,resp,488,1,mem3.1.2.bmp,mem3.2.3.bmp,mem3.1.2.bmp,ACC034,"[3, -3, 0]","[3, 0, 3]","[3, -3, 0]",match,1.591751709536137,,-0.17784215019869923,-0.774510688645333,-0.1915157954972728,2nd,1st,2nd,-0.3885381377072149,-1.2028022134452694,-0.26179060868022586
mem,resp,627,1,mem1.1.2.bmp,mem2.1.3.bmp,mem2.1.3.bmp,ACC034,"[-3, -3, 0]","[0, -3, 3]","[0, -3, 3]",match,1.591751709536137,,-0.6513282424770166,-0.13996827710989598,-0.37575595493023173,2nd,2nd,2nd,-0.3885381377072149,-0.34924964105783285,-0.26179060868022586
mem,resp,439,1,mem3.2.2.bmp,mem3.3.3.bmp,mem3.2.2.bmp,ACC034,"[3, 0, 0]","[3, 3, 3]","[3, 0, 0]",match,1.591751709536137,,-0.9202968130381204,-0.6303986731588679,-0.7187212428195383,1st,2nd,1st,-1.229243363435063,-0.34924964105783285,-1.307025191339696
mem,resp,632,0,mem3.1.3.bmp,mem1.2.1.bmp,mem3.2.1.bmp,ACC034,"[3, -3, 3]","[-3, 0, -3]","[3, 0, -3]",non-match,0.7771525064424715,2,-0.039101052815577075,-0.7705327007667969,-0.8065233362600308,2nd,1st,1st,-0.3885381377072149,-1.2028022134452694,-1.307025191339696
mem,resp,885,1,mem3.1.1.bmp,mem1.2.2.bmp,mem3.3.2.bmp,ACC034,"[3, -3, -3]","[-3, 0, 0]","[3, 3, 0]",non-match,0.7090055512641944,2,-1.4627685107062531,-1.0236853584836296,-0.8426408984473159,1st,1st,1st,-1.229243363435063,-1.2028022134452694,-1.307025191339696
mem,resp,1102,1,mem3.3.1.bmp,mem1.1.2.bmp,mem2.3.2.bmp,ACC034,"[3, 3, -3]","[-3, -3, 0]","[0, 3, 0]",non-match,0.9462544851682343,3,-1.434823365653679,-1.0496618737782288,-0.8002224235074022,1st,1st,1st,-1.229243363435063,-1.2028022134452694,-1.307025191339696
mem,resp,754,0,mem2.3.1.bmp,mem1.3.3.bmp,mem2.1.3.bmp,ACC034,"[0, 3, -3]","[-3, 3, 3]","[0, -3, 3]",non-match,0.5380061947043713,1,-1.5858257660853659,-1.8282342321903886,-0.7077496091266378,1st,1st,1st,-1.229243363435063,-1.2028022134452694,-1.307025191339696
mem,resp,707,1,mem2.3.3.bmp,mem3.1.2.bmp,mem1.3.1.bmp,ACC034,"[0, 3, 3]","[3, -3, 0]","[-3, 3, -3]",non-match,0.4884773718476586,1,1.4879435974618387,0.22366451522106215,-0.557998086277516,4th,3rd,2nd,1.3043389599475863,0.27373464708669004,-0.26179060868022586
mem,resp,1052,0,mem1.3.2.bmp,mem2.2.2.bmp,mem2.2.3.bmp,ACC034,"[-3, 3, 0]","[0, 0, 0]","[0, 0, 3]",non-match,1.2113248654051871,4,-1.2469475040153633,-1.0840845268809822,-0.4666710710487349,1st,1st,2nd,-1.229243363435063,-1.2028022134452694,-0.26179060868022586
mem,resp,756,1,mem3.1.3.bmp,mem3.2.3.bmp,mem3.2.3.bmp,ACC034,"[3, -3, 3]","[3, 0, 3]","[3, 0, 3]",match,1.7113248654051871,,-0.4722707326745213,0.13230216471955547,-0.48573891128546803,2nd,3rd,2nd,-0.3885381377072149,0.27373464708669004,-0.26179060868022586
mem,resp,587,1,mem3.2.2.bmp,mem2.1.3.bmp,mem3.2.2.bmp,ACC034,"[3, 0, 0]","[0, -3, 3]","[3, 0, 0]",match,1.5,,-0.29019501722983687,-2.838786243827105,-0.8221930512372063,2nd,1st,1st,-0.3885381377072149,-1.2028022134452694,-1.307025191339696
mem,resp,822,1,mem3.3.3.bmp,mem1.3.1.bmp,mem3.3.3.bmp,ACC034,"[3, 3, 3]","[-3, 3, -3]","[3, 3, 3]",match,1.1835034190722742,,-1.829013904905566,-0.6242527395646894,-0.8446549695264587,1st,2nd,1st,-1.229243363435063,-0.34924964105783285,-1.307025191339696
mem,resp,847,1,mem1.2.3.bmp,mem3.3.1.bmp,mem3.3.1.bmp,ACC034,"[-3, 0, 3]","[3, 3, -3]","[3, 3, -3]",match,1.1339745962155614,,0.2659682856593084,-1.1956374525311384,-0.7111469024464718,3rd,1st,1st,0.31247977713683867,-1.2028022134452694,-1.307025191339696
mem,resp,758,1,mem2.2.1.bmp,mem3.2.1.bmp,mem2.2.1.bmp,ACC034,"[0, 0, -3]","[3, 0, -3]","[0, 0, -3]",match,1.7113248654051871,,-1.929286042149915,-1.7079757716098964,-0.6916528356481577,1st,1st,1st,-1.229243363435063,-1.2028022134452694,-1.307025191339696
mem,resp,559,1,mem1.3.3.bmp,mem2.3.3.bmp,mem2.1.1.bmp,ACC034,"[-3, 3, 3]","[0, 3, 3]","[0, -3, -3]",non-match,0.3174780152878355,1,1.4911555472483615,0.587411790855565,-0.44641958290198214,4th,4th,2nd,1.3043389599475863,1.2773613214167774,-0.26179060868022586
mem,resp,906,0,mem2.3.2.bmp,mem3.1.1.bmp,mem3.2.2.bmp,ACC034,"[0, 3, 0]","[3, -3, -3]","[3, 0, 0]",non-match,1.1835034190722742,4,-0.9995687773856416,-0.6042381044012403,-0.18927113732744663,1st,2nd,2nd,-1.229243363435063,-0.34924964105783285,-0.26179060868022586
mem,resp,518,1,mem1.2.2.bmp,mem2.2.3.bmp,mem1.2.2.bmp,ACC034,"[-3, 0, 0]","[0, 0, 3]","[-3, 0, 0]",match,1.591751709536137,,0.7375252476721024,0.4555612182944325,-0.3211387727145399,4th,3rd,2nd,1.3043389599475863,0.27373464708669004,-0.26179060868022586
mem,resp,589,1,mem3.1.2.bmp,mem1.1.1.bmp,mem1.1.1.bmp,ACC034,"[3, -3, 0]","[-3, -3, -3]","[-3, -3, -3]",match,1.3545027756320973,,0.5291478549708297,-0.10723982957817525,-0.5062527021365547,3rd,2nd,2nd,0.31247977713683867,-0.34924964105783285,-0.26179060868022586
mem,resp,652,1,mem2.2.2.bmp,mem1.3.2.bmp,mem1.3.2.bmp,ACC034,"[0, 0, 0]","[-3, 3, 0]","[-3, 3, 0]",match,1.591751709536137,,-0.5226151462563348,-1.6539735680949177,-0.4902359966107998,2nd,1st,2nd,-0.3885381377072149,-1.2028022134452694,-0.26179060868022586
mem,resp,743,0,mem2.1.2.bmp,mem3.2.2.bmp,mem2.1.3.bmp,ACC034,"[0, -3, 0]","[3, 0, 0]","[0, -3, 3]",non-match,1.2113248654051871,4,0.1996123062720328,-0.14131098465498373,-0.6605259746551961,3rd,2nd,1st,0.31247977713683867,-0.34924964105783285,-1.307025191339696
mem,resp,678,1,mem2.1.3.bmp,mem3.1.1.bmp,mem3.1.1.bmp,ACC034,"[0, -3, 3]","[3, -3, -3]","[3, -3, -3]",match,1.3545027756320973,,-0.5866492135380977,0.6005939671592148,-0.743247109648835,2nd,4th,1st,-0.3885381377072149,1.2773613214167774,-1.307025191339696
mem,resp,579,1,mem3.1.2.bmp,mem2.1.1.bmp,mem2.1.1.bmp,ACC034,"[3, -3, 0]","[0, -3, -3]","[0, -3, -3]",match,1.591751709536137,,0.5988093277660727,2.282076495499369,-0.7199395361181185,3rd,4th,1st,0.31247977713683867,1.2773613214167774,-1.307025191339696
mem,resp,873,0,mem3.2.1.bmp,mem1.2.2.bmp,mem1.1.2.bmp,ACC034,"[3, 0, -3]","[-3, 0, 0]","[-3, -3, 0]",non-match,1.0042180842186395,3,0.23039409873521433,0.9275981498096596,-0.2673257497082861,3rd,4th,2nd,0.31247977713683867,1.2773613214167774,-0.26179060868022586
mem,resp,1090,1,mem2.1.2.bmp,mem1.3.3.bmp,mem2.1.2.bmp,ACC034,"[0, -3, 0]","[-3, 3, 3]","[0, -3, 0]",match,1.2928932188134525,,-0.8248130280550461,-1.8210610015780997,-0.32923359128823043,1st,1st,2nd,-1.229243363435063,-1.2028022134452694,-0.26179060868022586
mem,resp,1016,0,mem3.2.2.bmp,mem3.1.3.bmp,mem3.1.1.bmp,ACC034,"[3, 0, 0]","[3, -3, 3]","[3, -3, -3]",non-match,1.0144014403465114,3,-1.4340357640156833,-0.6744066117028634,-0.369848718949192,1st,1st,2nd,-1.229243363435063,-1.2028022134452694,-0.26179060868022586
mem,resp,639,1,mem1.3.2.bmp,mem1.2.3.bmp,mem1.2.3.bmp,ACC034,"[-3, 3, 0]","[-3, 0, 3]","[-3, 0, 3]",match,1.591751709536137,,1.792039265926972,0.5205152016371137,-0.4027707248915441,4th,3rd,2nd,1.3043389599475863,0.27373464708669004,-0.26179060868022586
mem,resp,738,1,mem2.1.1.bmp,mem3.3.2.bmp,mem3.3.2.bmp,ACC034,"[0, -3, -3]","[3, 3, 0]","[3, 3, 0]",match,1.2928932188134525,,-0.9125442759244183,-0.33541997665880746,0.009033157940402879,1st,2nd,2nd,-1.229243363435063,-0.34924964105783285,-0.26179060868022586
mem,resp,774,1,mem2.3.2.bmp,mem3.2.3.bmp,mem3.1.2.bmp,ACC034,"[0, 3, 0]","[3, 0, 3]","[3, -3, 0]",non-match,0.9462544851682343,3,-0.6014983638077283,-0.5710465492173608,0.07691256510725515,2nd,2nd,2nd,-0.3885381377072149,-0.34924964105783285,-0.26179060868022586
mem,resp,667,1,mem1.1.2.bmp,mem1.1.3.bmp,mem1.1.3.bmp,ACC034,"[-3, -3, 0]","[-3, -3, 3]","[-3, -3, 3]",match,1.7113248654051871,,-0.05123649254017179,0.35362722727836426,-0.023135667189845242,2nd,3rd,2nd,-0.3885381377072149,0.27373464708669004,-0.26179060868022586
mem,resp,689,1,mem2.3.3.bmp,mem2.1.3.bmp,mem2.3.3.bmp,ACC034,"[0, 3, 3]","[0, -3, 3]","[0, 3, 3]",match,1.4226497308103743,,0.40883072303069873,-0.06084114438622728,0.1149167336533463,3rd,2nd,2nd,0.31247977713683867,-0.34924964105783285,-0.26179060868022586
mem,resp,935,1,mem3.3.2.bmp,mem1.3.2.bmp,mem1.2.1.bmp,ACC034,"[3, 3, 0]","[-3, 3, 0]","[-3, 0, -3]",non-match,0.8846449283495895,2,0.253178709901434,1.3406528904813635,0.18309408795273044,3rd,4th,3rd,0.31247977713683867,1.2773613214167774,0.37754810342953204
mem,resp,1130,0,mem2.2.2.bmp,mem2.2.3.bmp,mem2.2.3.bmp,ACC034,"[0, 0, 0]","[0, 0, 3]","[0, 0, 3]",match,1.7113248654051871,,-1.4507159084335728,-0.4230124808221339,0.5246567358509749,1st,2nd,3rd,-1.229243363435063,-0.34924964105783285,0.37754810342953204
mem,resp,544,1,mem1.2.2.bmp,mem3.2.1.bmp,mem1.2.2.bmp,ACC034,"[-3, 0, 0]","[3, 0, -3]","[-3, 0, 0]",match,1.3545027756320973,,1.238073863860753,0.5261507375128812,0.32957257996314154,4th,4th,3rd,1.3043389599475863,1.2773613214167774,0.37754810342953204
mem,resp,575,1,mem3.3.1.bmp,mem1.3.1.bmp,mem1.3.1.bmp,ACC034,"[3, 3, -3]","[-3, 3, -3]","[-3, 3, -3]",match,1.4226497308103743,,0.26903799278782364,-0.16045160358968485,0.21174618135851667,3rd,2nd,3rd,0.31247977713683867,-0.34924964105783285,0.37754810342953204
mem,resp,618,1,mem3.2.3.bmp,mem3.1.2.bmp,mem3.2.3.bmp,ACC034,"[3, 0, 3]","[3, -3, 0]","[3, 0, 3]",match,1.591751709536137,,1.3455860065121608,1.24638470656326,0.3236003271964238,4th,4th,3rd,1.3043389599475863,1.2773613214167774,0.37754810342953204
mem,resp,679,1,mem3.1.1.bmp,mem3.3.3.bmp,mem3.1.1.bmp,ACC034,"[3, -3, -3]","[3, 3, 3]","[3, -3, -3]",match,1.1835034190722742,,0.9366902376660906,-0.37628546890120135,0.2928087463721634,4th,2nd,3rd,1.3043389599475863,-0.34924964105783285,0.37754810342953204
mem,resp,954,1,mem1.2.1.bmp,mem1.1.1.bmp,mem1.2.3.bmp,ACC034,"[-3, 0, -3]","[-3, -3, -3]","[-3, 0, 3]",non-match,0.7771525064424715,2,-1.1565157493564855,-1.0442399312452222,0.39704042648742116,1st,1st,3rd,-1.229243363435063,-1.2028022134452694,0.37754810342953204
mem,resp,890,1,mem2.3.1.bmp,mem1.1.2.bmp,mem1.1.2.bmp,ACC034,"[0, 3, -3]","[-3, -3, 0]","[-3, -3, 0]",match,1.2928932188134525,,-1.259394475481769,-0.974558998775692,0.4440304790625662,1st,1st,3rd,-1.229243363435063,-1.2028022134452694,0.37754810342953204
mem,resp,863,1,mem3.1.3.bmp,mem3.3.1.bmp,mem3.1.3.bmp,ACC034,"[3, -3, 3]","[3, 3, -3]","[3, -3, 3]",match,1.1835034190722742,,-0.020409107633818212,-0.644791402520932,-0.13775959512785424,2nd,2nd,2nd,-0.3885381377072149,-0.34924964105783285,-0.26179060868022586
mem,resp,593,0,mem2.2.1.bmp,mem2.3.3.bmp,mem1.3.1.bmp,ACC034,"[0, 0, -3]","[0, 3, 3]","[-3, 3, -3]",non-match,0.9462544851682343,3,-0.4746972474423352,-1.9827577892388282,0.0786794595640177,2nd,1st,2nd,-0.3885381377072149,-1.2028022134452694,-0.26179060868022586
mem,resp,594,1,mem3.3.3.bmp,mem2.2.2.bmp,mem3.3.3.bmp,ACC034,"[3, 3, 3]","[0, 0, 0]","[3, 3, 3]",match,1.5,,1.268395428822648,0.3336647730026535,0.04453849871826884,4th,3rd,2nd,1.3043389599475863,0.27373464708669004,-0.26179060868022586
mem,resp,605,1,mem1.1.1.bmp,mem1.2.1.bmp,mem3.2.3.bmp,ACC034,"[-3, -3, -3]","[-3, 0, -3]","[3, 0, 3]",non-match,0.3174780152878355,1,0.4764215237806892,2.273588525679434,0.1704566282079323,3rd,4th,3rd,0.31247977713683867,1.2773613214167774,0.37754810342953204
mem,resp,678,1,mem1.2.3.bmp,mem3.3.1.bmp,mem3.3.1.bmp,ACC034,"[-3, 0, 3]","[3, 3, -3]","[3, 3, -3]",match,1.1339745962155614,,0.33290004190103123,-0.344423716996167,0.17406261592793823,3rd,2nd,3rd,0.31247977713683867,-0.34924964105783285,0.37754810342953204
mem,resp,559,1,mem1.1.3.bmp,mem3.3.2.bmp,mem1.1.3.bmp,ACC034,"[-3, -3, 3]","[3, 3, 0]","[-3, -3, 3]",match,1.1339745962155614,,0.16084997662058123,0.37245468813530946,-0.04851348265064624,3rd,3rd,2nd,0.31247977713683867,0.27373464708669004,-0.26179060868022586
mem,resp,795,1,mem1.3.1.bmp,mem1.2.2.bmp,mem1.2.2.bmp,ACC034,"[-3, 3, -3]","[-3, 0, 0]","[-3, 0, 0]",match,1.591751709536137,,-0.9721723709053959,-0.21771406224107318,0.10790765920358232,1st,2nd,2nd,-1.229243363435063,-0.34924964105783285,-0.26179060868022586
mem,resp,656,1,mem2.2.3.bmp,mem2.1.1.bmp,mem2.2.3.bmp,ACC034,"[0, 0, 3]","[0, -3, -3]","[0, 0, 3]",match,1.3545027756320973,,-0.15392720514245747,0.09924941906346262,0.2457468653774039,2nd,3rd,3rd,-0.3885381377072149,0.27373464708669004,0.37754810342953204
mem,resp,497,0,mem1.3.3.bmp,mem2.3.1.bmp,mem1.3.2.bmp,ACC034,"[-3, 3, 3]","[0, 3, -3]","[-3, 3, 0]",non-match,1.3030765749413242,4,1.6595506346723856,0.43907373104951103,0.5016441045697063,4th,3rd,3rd,1.3043389599475863,0.27373464708669004,0.37754810342953204
mem,resp,579,1,mem1.3.3.bmp,mem1.1.1.bmp,mem1.1.1.bmp,ACC034,"[-3, 3, 3]","[-3, -3, -3]","[-3, -3, -3]",match,1.1835034190722742,,0.19846698033513577,0.7390932105457804,0.2622961156630752,3rd,4th,3rd,0.31247977713683867,1.2773613214167774,0.37754810342953204
mem,resp,690,0,mem2.3.2.bmp,mem3.2.1.bmp,mem2.3.3.bmp,ACC034,"[0, 3, 0]","[3, 0, -3]","[0, 3, 3]",non-match,1.0042180842186395,3,-1.2755610027193496,-0.8761004203922775,0.5651537770961376,1st,1st,3rd,-1.229243363435063,-1.2028022134452694,0.37754810342953204
mem,resp,751,1,mem1.3.1.bmp,mem3.1.1.bmp,mem1.1.3.bmp,ACC034,"[-3, 3, -3]","[3, -3, -3]","[-3, -3, 3]",non-match,0.36700683814454815,1,1.8476104179427013,-0.7117930810281085,0.6371484549499671,4th,1st,3rd,1.3043389599475863,-1.2028022134452694,0.37754810342953204
mem,resp,685,1,mem2.2.1.bmp,mem2.1.2.bmp,mem3.3.1.bmp,ACC034,"[0, 0, -3]","[0, -3, 0]","[3, 3, -3]",non-match,0.8846449283495895,2,0.03469736213222277,1.8172971633984516,0.528937087146148,3rd,4th,3rd,0.31247977713683867,1.2773613214167774,0.37754810342953204
mem,resp,998,1,mem3.2.2.bmp,mem1.1.2.bmp,mem2.3.1.bmp,ACC034,"[3, 0, 0]","[-3, -3, 0]","[0, 3, -3]",non-match,0.7928932188134524,2,-0.34682464438658495,0.39673064121186796,0.722627257659247,2nd,3rd,4th,-0.3885381377072149,0.27373464708669004,1.1927329813340535
mem,resp,841,1,mem3.3.2.bmp,mem1.2.3.bmp,mem1.2.3.bmp,ACC034,"[3, 3, 0]","[-3, 0, 3]","[-3, 0, 3]",match,1.2928932188134525,,-0.5050828233712024,-1.8267099583681898,1.010883727332584,2nd,1st,4th,-0.3885381377072149,-1.2028022134452694,1.1927329813340535
mem,resp,633,1,mem2.2.2.bmp,mem3.3.3.bmp,mem2.2.2.bmp,ACC034,"[0, 0, 0]","[3, 3, 3]","[0, 0, 0]",match,1.5,,-0.7900611612208757,-1.8041035976117106,1.2217203704778778,1st,1st,4th,-1.229243363435063,-1.2028022134452694,1.1927329813340535
mem,resp,840,0,mem1.2.1.bmp,mem2.1.3.bmp,mem1.1.1.bmp,ACC034,"[-3, 0, -3]","[0, -3, 3]","[-3, -3, -3]",non-match,1.0658276410372842,3,-0.15062278203937332,-0.6051072644790554,1.2397153151904252,2nd,2nd,4th,-0.3885381377072149,-0.34924964105783285,1.1927329813340535
mem,resp,711,1,mem3.2.3.bmp,mem3.1.2.bmp,mem1.3.1.bmp,ACC034,"[3, 0, 3]","[3, -3, 0]","[-3, 3, -3]",non-match,0.2679491924311228,1,0.8797716262260274,0.4391169453364634,0.9876921368714442,4th,3rd,4th,1.3043389599475863,0.27373464708669004,1.1927329813340535
mem,resp,847,1,mem3.2.1.bmp,mem3.1.3.bmp,mem3.1.3.bmp,ACC034,"[3, 0, -3]","[3, -3, 3]","[3, -3, 3]",match,1.3545027756320973,,-0.9364891026335174,-0.07467800986207551,1.1955069513289176,1st,2nd,4th,-1.229243363435063,-0.34924964105783285,1.1927329813340535
mem,resp,640,1,mem1.2.2.bmp,mem2.2.3.bmp,mem2.2.1.bmp,ACC034,"[-3, 0, 0]","[0, 0, 3]","[0, 0, -3]",non-match,1.0144014403465114,3,0.5624857010459751,0.3080475765014196,0.9374527854226554,3rd,3rd,4th,0.31247977713683867,0.27373464708669004,1.1927329813340535
mem,resp,853,1,mem2.1.2.bmp,mem1.3.2.bmp,mem1.1.2.bmp,ACC034,"[0, -3, 0]","[-3, 3, 0]","[-3, -3, 0]",non-match,1.1339745962155614,4,-0.015174829695301206,-0.16648439807471888,0.7881379065318096,3rd,2nd,4th,0.31247977713683867,-0.34924964105783285,1.1927329813340535
mem,resp,959,1,mem1.2.3.bmp,mem2.3.3.bmp,mem1.2.3.bmp,ACC034,"[-3, 0, 3]","[0, 3, 3]","[-3, 0, 3]",match,1.591751709536137,,-0.1492923831348422,-0.47645614968155825,0.7426344476189425,2nd,2nd,4th,-0.3885381377072149,-0.34924964105783285,1.1927329813340535
mem,resp,723,1,mem2.1.2.bmp,mem2.1.1.bmp,mem2.1.1.bmp,ACC034,"[0, -3, 0]","[0, -3, -3]","[0, -3, -3]",match,1.7113248654051871,,-0.23936806034334948,-0.6478451030052583,0.6314618723945171,2nd,1st,3rd,-0.3885381377072149,-1.2028022134452694,0.37754810342953204
mem,resp,572,1,mem1.2.2.bmp,mem1.1.3.bmp,mem1.1.3.bmp,ACC034,"[-3, 0, 0]","[-3, -3, 3]","[-3, -3, 3]",match,1.591751709536137,,0.9198104443151549,0.069844424834645,0.8433796333204263,4th,3rd,4th,1.3043389599475863,0.27373464708669004,1.1927329813340535
mem,resp,634,1,mem1.2.3.bmp,mem3.1.2.bmp,mem1.2.3.bmp,ACC034,"[-3, 0, 3]","[3, -3, 0]","[-3, 0, 3]",match,1.2928932188134525,,0.5475522352044861,0.47065559042007027,0.732886021913431,3rd,3rd,4th,0.31247977713683867,0.27373464708669004,1.1927329813340535
mem,resp,927,1,mem3.2.2.bmp,mem1.2.1.bmp,mem2.3.3.bmp,ACC034,"[3, 0, 0]","[-3, 0, -3]","[0, 3, 3]",non-match,0.7928932188134524,2,-0.17330100409679586,1.5261025651074327,0.49736278386104416,2nd,4th,3rd,-0.3885381377072149,1.2773613214167774,0.37754810342953204
mem,resp,1044,1,mem3.2.1.bmp,mem1.1.2.bmp,mem2.1.3.bmp,ACC034,"[3, 0, -3]","[-3, -3, 0]","[0, -3, 3]",non-match,0.8846449283495895,2,-1.3435455806121175,-0.3236218033710056,0.40256922021988967,1st,2nd,3rd,-1.229243363435063,-0.34924964105783285,0.37754810342953204
mem,resp,436,1,mem1.3.1.bmp,mem1.3.2.bmp,mem3.2.3.bmp,ACC034,"[-3, 3, -3]","[-3, 3, 0]","[3, 0, 3]",non-match,0.42686781502901383,1,1.3923082537571723,0.5181296856957435,0.5733081832456992,4th,3rd,3rd,1.3043389599475863,0.27373464708669004,0.37754810342953204
mem,resp,1271,1,mem3.3.2.bmp,mem3.3.1.bmp,mem3.3.2.bmp,ACC034,"[3, 3, 0]","[3, 3, -3]","[3, 3, 0]",match,1.7113248654051871,,0.01230744820206966,0.5333017926119685,0.6181869722087232,3rd,4th,3rd,0.31247977713683867,1.2773613214167774,0.37754810342953204
mem,resp,929,1,mem3.1.3.bmp,mem3.3.3.bmp,mem2.2.3.bmp,ACC034,"[3, -3, 3]","[3, 3, 3]","[0, 0, 3]",non-match,1.1835034190722742,4,1.1070903865275472,0.09510797714585167,0.9519070164359454,4th,3rd,4th,1.3043389599475863,0.27373464708669004,1.1927329813340535
mem,resp,1244,0,mem2.2.2.bmp,mem1.2.2.bmp,mem2.2.2.bmp,ACC034,"[0, 0, 0]","[-3, 0, 0]","[0, 0, 0]",match,1.7113248654051871,,-1.024404319854301,0.2223735429618483,1.286346315248365,1st,3rd,4th,-1.229243363435063,0.27373464708669004,1.1927329813340535
mem,resp,646,1,mem2.1.3.bmp,mem1.3.3.bmp,mem2.1.3.bmp,ACC034,"[0, -3, 3]","[-3, 3, 3]","[0, -3, 3]",match,1.3545027756320973,,-0.4786422611199012,-0.14896093196413332,1.438547298843844,2nd,2nd,4th,-0.3885381377072149,-0.34924964105783285,1.1927329813340535
mem,resp,585,1,mem2.3.1.bmp,mem2.3.2.bmp,mem2.3.1.bmp,ACC034,"[0, 3, -3]","[0, 3, 0]","[0, 3, -3]",match,1.7113248654051871,,0.11151155331289994,-0.5211253176281809,1.6771315663258988,3rd,2nd,4th,0.31247977713683867,-0.34924964105783285,1.1927329813340535
mem,resp,526,1,mem1.3.2.bmp,mem2.3.3.bmp,mem1.3.2.bmp,ACC034,"[-3, 3, 0]","[0, 3, 3]","[-3, 3, 0]",match,1.591751709536137,,0.3181104013661569,-0.5125165806090184,1.6442319697719614,3rd,2nd,4th,0.31247977713683867,-0.34924964105783285,1.1927329813340535
mem,resp,941,1,mem3.3.1.bmp,mem2.2.3.bmp,mem2.2.3.bmp,ACC034,"[3, 3, -3]","[0, 0, 3]","[0, 0, 3]",match,1.2928932188134525,,-0.6676127594804255,-0.16088323719993639,2.021222192836426,2nd,2nd,4th,-0.3885381377072149,-0.34924964105783285,1.1927329813340535
mem,resp,565,0,mem1.2.1.bmp,mem2.2.2.bmp,mem1.1.1.bmp,ACC034,"[-3, 0, -3]","[0, 0, 0]","[-3, -3, -3]",non-match,1.2113248654051871,4,2.531747825391726,4.0539339206090315,1.4532688529259394,4th,4th,4th,1.3043389599475863,1.2773613214167774,1.1927329813340535
mem,resp,646,1,mem1.1.3.bmp,mem3.3.2.bmp,mem3.3.2.bmp,ACC034,"[-3, -3, 3]","[3, 3, 0]","[3, 3, 0]",match,1.1339745962155614,,0.509024901542958,2.429208120085668,1.6309243695562914,3rd,4th,4th,0.31247977713683867,1.2773613214167774,1.1927329813340535
mem,resp,637,1,mem2.1.1.bmp,mem3.2.1.bmp,mem3.2.1.bmp,ACC034,"[0, -3, -3]","[3, 0, -3]","[3, 0, -3]",match,1.591751709536137,,0.13767367190565716,-0.5520695480122156,1.7216943018987092,3rd,2nd,4th,0.31247977713683867,-0.34924964105783285,1.1927329813340535
mem,resp,791,0,mem3.1.2.bmp,mem1.2.3.bmp,mem1.3.3.bmp,ACC034,"[3, -3, 0]","[-3, 0, 3]","[-3, 3, 3]",non-match,0.8452994616207485,2,1.2041231121999365,-0.667127259642428,1.9223257502855178,4th,1st,4th,1.3043389599475863,-1.2028022134452694,1.1927329813340535
mem,resp,644,1,mem3.3.3.bmp,mem2.3.1.bmp,mem3.3.3.bmp,ACC034,"[3, 3, 3]","[0, 3, -3]","[3, 3, 3]",match,1.3545027756320973,,0.9037186795631847,-0.03804055180167908,1.6733341555154981,4th,2nd,4th,1.3043389599475863,-0.34924964105783285,1.1927329813340535
mem,resp,746,1,mem3.2.3.bmp,mem3.1.3.bmp,mem3.2.3.bmp,ACC034,"[3, 0, 3]","[3, -3, 3]","[3, 0, 3]",match,1.7113248654051871,,-0.48087050796732306,0.8711378836415753,1.4647617490182845,2nd,4th,4th,-0.3885381377072149,1.2773613214167774,1.1927329813340535
mem,resp,799,1,mem2.2.1.bmp,mem3.1.1.bmp,mem1.2.1.bmp,ACC034,"[0, 0, -3]","[3, -3, -3]","[-3, 0, -3]",non-match,1.0658276410372842,3,1.0673396507635784,2.1781772001941824,1.4503846756375642,4th,4th,4th,1.3043389599475863,1.2773613214167774,1.1927329813340535
mem,resp,882,1,mem1.1.1.bmp,mem2.2.2.bmp,mem1.1.1.bmp,ACC034,"[-3, -3, -3]","[0, 0, 0]","[-3, -3, -3]",match,1.5,,-0.6813594290055848,-0.8518637166554678,1.5369030555028347,2nd,1st,4th,-0.3885381377072149,-1.2028022134452694,1.1927329813340535
mem,resp,1220,1,mem1.1.2.bmp,mem1.2.3.bmp,mem1.1.2.bmp,ACC034,"[-3, -3, 0]","[-3, 0, 3]","[-3, -3, 0]",match,1.591751709536137,,1.4482011145840954,1.166858705607262,1.3948396098706577,4th,4th,4th,1.3043389599475863,1.2773613214167774,1.1927329813340535
mem,resp,915,1,mem2.3.2.bmp,mem2.2.3.bmp,mem2.3.2.bmp,ACC034,"[0, 3, 0]","[0, 0, 3]","[0, 3, 0]",match,1.591751709536137,,-0.7592713767850606,-0.44467880750116456,1.414254829676475,1st,2nd,4th,-1.229243363435063,-0.34924964105783285,1.1927329813340535
mem,resp,1079,1,mem1.3.3.bmp,mem2.1.2.bmp,mem1.2.2.bmp,ACC034,"[-3, 3, 3]","[0, -3, 0]","[-3, 0, 0]",non-match,1.1835034190722742,4,-0.7704947061649888,-0.9218518006714975,1.5838966179780412,1st,1st,4th,-1.229243363435063,-1.2028022134452694,1.1927329813340535
mem,resp,651,1,mem3.1.1.bmp,mem3.2.2.bmp,mem3.1.1.bmp,ACC034,"[3, -3, -3]","[3, 0, 0]","[3, -3, -3]",match,1.591751709536137,,0.8184566467601282,0.0023217740903180985,1.6816705239701082,4th,3rd,4th,1.3043389599475863,0.27373464708669004,1.1927329813340535
mem,resp,896,1,mem2.3.3.bmp,mem2.3.1.bmp,mem1.1.1.bmp,ACC034,"[0, 3, 3]","[0, 3, -3]","[-3, -3, -3]",non-match,0.4884773718476586,1,-0.6197813860802225,0.5208294873604054,1.5862767299722786,2nd,4th,4th,-0.3885381377072149,1.2773613214167774,1.1927329813340535
mem,resp,777,0,mem2.2.3.bmp,mem2.1.3.bmp,mem2.1.1.bmp,ACC034,"[0, 0, 3]","[0, -3, 3]","[0, -3, -3]",non-match,0.7771525064424715,2,0.8839948200118438,0.3139883041848731,1.580923043413162,4th,3rd,4th,1.3043389599475863,0.27373464708669004,1.1927329813340535
mem,resp,863,0,mem1.3.2.bmp,mem3.3.3.bmp,mem3.2.3.bmp,ACC034,"[-3, 3, 0]","[3, 3, 3]","[3, 0, 3]",non-match,1.0042180842186395,3,-0.5582209415535433,-1.1446446212088721,1.5258330950077499,2nd,1st,4th,-0.3885381377072149,-1.2028022134452694,1.1927329813340535
mem,resp,926,0,mem2.2.2.bmp,mem3.2.1.bmp,mem1.2.1.bmp,ACC034,"[0, 0, 0]","[3, 0, -3]","[-3, 0, -3]",non-match,1.0144014403465114,3,-1.0074666615726728,-0.5796862055495788,1.3517231557949871,1st,2nd,4th,-1.229243363435063,-0.34924964105783285,1.1927329813340535
mem,resp,589,1,mem3.1.2.bmp,mem3.1.3.bmp,mem3.1.3.bmp,ACC034,"[3, -3, 0]","[3, -3, 3]","[3, -3, 3]",match,1.7113248654051871,,2.0408488102097784,0.3178153876278686,1.6216378090882009,4th,3rd,4th,1.3043389599475863,0.27373464708669004,1.1927329813340535
mem,resp,1197,0,mem2.1.2.bmp,mem3.3.2.bmp,mem2.1.2.bmp,ACC034,"[0, -3, 0]","[3, 3, 0]","[0, -3, 0]",match,1.3545027756320973,,-2.5168850279069357,-0.7365590324652685,1.4677830020961962,1st,1st,4th,-1.229243363435063,-1.2028022134452694,1.1927329813340535
mem,resp,670,0,mem3.1.1.bmp,mem1.3.3.bmp,mem1.3.2.bmp,ACC034,"[3, -3, -3]","[-3, 3, 3]","[-3, 3, 0]",non-match,0.8452994616207485,2,0.8093766618191445,-0.2423450417828313,1.4683523767624198,4th,2nd,4th,1.3043389599475863,-0.34924964105783285,1.1927329813340535
mem,resp,884,0,mem3.2.1.bmp,mem2.1.1.bmp,mem3.2.2.bmp,ACC034,"[3, 0, -3]","[0, -3, -3]","[3, 0, 0]",non-match,1.2113248654051871,4,-0.8383807881996144,0.5166325361819443,1.3037488768274417,1st,3rd,4th,-1.229243363435063,0.27373464708669004,1.1927329813340535
mem,resp,1273,1,mem1.3.1.bmp,mem1.2.2.bmp,mem1.2.3.bmp,ACC034,"[-3, 3, -3]","[-3, 0, 0]","[-3, 0, 3]",non-match,1.0658276410372842,3,-0.1950847317881749,0.7150799625032042,1.2221404040136683,2nd,4th,4th,-0.3885381377072149,1.2773613214167774,1.1927329813340535
mem,resp,967,0,mem3.1.3.bmp,mem1.2.1.bmp,mem2.3.3.bmp,ACC034,"[3, -3, 3]","[-3, 0, -3]","[0, 3, 3]",non-match,0.6473959944455496,1,0.00531549360058743,0.054975327186361604,1.2271564874749339,3rd,3rd,4th,0.31247977713683867,0.27373464708669004,1.1927329813340535
mem,resp,1061,0,mem2.3.2.bmp,mem1.1.3.bmp,mem3.1.1.bmp,ACC034,"[0, 3, 0]","[-3, -3, 3]","[3, -3, -3]",non-match,0.4763966378857265,1,-0.8571386300417525,1.0359660497402443,1.2484142668500675,1st,4th,4th,-1.229243363435063,1.2773613214167774,1.1927329813340535
mem,resp,975,0,mem1.2.3.bmp,mem2.2.1.bmp,mem1.3.3.bmp,ACC034,"[-3, 0, 3]","[0, 0, -3]","[-3, 3, 3]",non-match,1.0042180842186395,3,-0.9933683124971245,1.3918821908910934,1.1942767015509006,1st,4th,4th,-1.229243363435063,1.2773613214167774,1.1927329813340535
mem,resp,788,1,mem3.2.3.bmp,mem3.3.1.bmp,mem3.2.3.bmp,ACC034,"[3, 0, 3]","[3, 3, -3]","[3, 0, 3]",match,1.3545027756320973,,-1.0739241955427774,-0.6004271899401903,1.052058989297907,1st,2nd,4th,-1.229243363435063,-0.34924964105783285,1.1927329813340535
mem,resp,901,1,mem1.1.1.bmp,mem1.2.3.bmp,mem2.1.3.bmp,ACC034,"[-3, -3, -3]","[-3, 0, 3]","[0, -3, 3]",non-match,0.9462544851682343,3,0.39170540110721064,-0.39988588955099585,0.8469059541998086,3rd,2nd,4th,0.31247977713683867,-0.34924964105783285,1.1927329813340535
mem,resp,802,0,mem2.3.2.bmp,mem1.3.3.bmp,mem2.2.3.bmp,ACC034,"[0, 3, 0]","[-3, 3, 3]","[0, 0, 3]",non-match,1.1835034190722742,4,-0.31207438784939173,2.082111331039382,0.47317755473693834,2nd,4th,3rd,-0.3885381377072149,1.2773613214167774,0.37754810342953204
mem,resp,888,1,mem1.1.3.bmp,mem2.2.2.bmp,mem2.2.2.bmp,ACC034,"[-3, -3, 3]","[0, 0, 0]","[0, 0, 0]",match,1.5,,-1.2278404002367385,-1.1571729267927273,0.3518241841693013,1st,1st,3rd,-1.229243363435063,-1.2028022134452694,0.37754810342953204
mem,resp,659,1,mem2.1.2.bmp,mem1.2.1.bmp,mem3.3.1.bmp,ACC034,"[0, -3, 0]","[-3, 0, -3]","[3, 3, -3]",non-match,0.6473959944455496,1,1.2921774824469165,0.21170772585728656,0.4644972289758954,4th,3rd,3rd,1.3043389599475863,0.27373464708669004,0.37754810342953204
mem,resp,974,1,mem3.2.2.bmp,mem1.1.1.bmp,mem1.1.1.bmp,ACC034,"[3, 0, 0]","[-3, -3, -3]","[-3, -3, -3]",match,1.2928932188134525,,-0.3969303936116637,-1.0133897001198335,0.2688779374715212,2nd,1st,3rd,-0.3885381377072149,-1.2028022134452694,0.37754810342953204
mem,resp,818,0,mem3.3.2.bmp,mem2.2.3.bmp,mem2.3.1.bmp,ACC034,"[3, 3, 0]","[0, 0, 3]","[0, 3, -3]",non-match,0.9462544851682343,3,0.10189366293920675,0.0008734407154838156,0.2637428904979827,3rd,3rd,3rd,0.31247977713683867,0.27373464708669004,0.37754810342953204
mem,resp,831,1,mem1.2.2.bmp,mem2.3.2.bmp,mem1.3.1.bmp,ACC034,"[-3, 0, 0]","[0, 3, 0]","[-3, 3, -3]",non-match,1.1835034190722742,4,1.15602487207962,0.14228328273042315,0.22054552455260965,4th,3rd,3rd,1.3043389599475863,0.27373464708669004,0.37754810342953204
mem,resp,894,0,mem3.2.3.bmp,mem2.1.1.bmp,mem2.2.2.bmp,ACC034,"[3, 0, 3]","[0, -3, -3]","[0, 0, 0]",non-match,1.1835034190722742,4,-0.33343207513967477,0.25270815361942006,0.4346367412536498,2nd,3rd,3rd,-0.3885381377072149,0.27373464708669004,0.37754810342953204
mem,resp,708,1,mem3.3.3.bmp,mem3.2.1.bmp,mem3.1.2.bmp,ACC034,"[3, 3, 3]","[3, 0, -3]","[3, -3, 0]",non-match,0.9462544851682343,3,-0.5704167475954542,-0.2421138198846712,0.454679066741635,2nd,2nd,3rd,-0.3885381377072149,-0.34924964105783285,0.37754810342953204
mem,resp,962,1,mem1.3.2.bmp,mem2.3.1.bmp,mem2.3.3.bmp,ACC034,"[-3, 3, 0]","[0, 3, -3]","[0, 3, 3]",non-match,1.0144014403465114,3,0.41431201158530157,0.4450254441830153,0.11847933769364168,3rd,3rd,3rd,0.31247977713683867,0.27373464708669004,0.37754810342953204
mem,resp,868,1,mem1.1.2.bmp,mem3.1.3.bmp,mem1.1.2.bmp,ACC034,"[-3, -3, 0]","[3, -3, 3]","[-3, -3, 0]",match,1.3545027756320973,,0.09042305669744272,-0.45478858623000507,0.18178236010967103,3rd,2nd,3rd,0.31247977713683867,-0.34924964105783285,0.37754810342953204
mem,resp,559,1,mem1.2.3.bmp,mem3.2.2.bmp,mem3.2.2.bmp,ACC034,"[-3, 0, 3]","[3, 0, 0]","[3, 0, 0]",match,1.3545027756320973,,1.288087992345648,0.007950980600824487,0.19179077994812543,4th,3rd,3rd,1.3043389599475863,0.27373464708669004,0.37754810342953204
mem,resp,600,1,mem3.1.2.bmp,mem3.1.1.bmp,mem3.3.1.bmp,ACC034,"[3, -3, 0]","[3, -3, -3]","[3, 3, -3]",non-match,0.7771525064424715,2,2.944159658514929,1.5665302580647946,0.041371912488616235,4th,4th,2nd,1.3043389599475863,1.2773613214167774,-0.26179060868022586
mem,resp,893,1,mem2.2.3.bmp,mem2.3.3.bmp,mem2.3.3.bmp,ACC034,"[0, 0, 3]","[0, 3, 3]","[0, 3, 3]",match,1.7113248654051871,,-0.5963091509767802,0.9416306435979912,0.22557473864323127,2nd,4th,3rd,-0.3885381377072149,1.2773613214167774,0.37754810342953204
mem,resp,739,0,mem2.2.1.bmp,mem2.1.3.bmp,mem2.2.1.bmp,ACC034,"[0, 0, -3]","[0, -3, 3]","[0, 0, -3]",match,1.3545027756320973,,-0.34543481373845736,-0.889893081196927,0.10248116546073166,2nd,1st,2nd,-0.3885381377072149,-1.2028022134452694,-0.26179060868022586
mem,resp,1284,1,mem1.3.1.bmp,mem1.2.2.bmp,mem2.2.2.bmp,ACC034,"[-3, 3, -3]","[-3, 0, 0]","[0, 0, 0]",non-match,1.2113248654051871,4,-0.43355944907926736,-1.2899343527612426,0.252466003223873,2nd,1st,3rd,-0.3885381377072149,-1.2028022134452694,0.37754810342953204
mem,resp,858,1,mem1.3.3.bmp,mem2.1.2.bmp,mem3.1.3.bmp,ACC034,"[-3, 3, 3]","[0, -3, 0]","[3, -3, 3]",non-match,0.7752551286084112,2,-1.0422912090016825,1.4921633445582143,0.3617150275209392,1st,4th,3rd,-1.229243363435063,1.2773613214167774,0.37754810342953204
mem,resp,953,0,mem2.3.1.bmp,mem3.2.3.bmp,mem2.1.1.bmp,ACC034,"[0, 3, -3]","[3, 0, 3]","[0, -3, -3]",non-match,0.7155429496238267,2,-0.8911587121314978,-0.49913206468316884,0.4741371229294583,1st,2nd,3rd,-1.229243363435063,-0.34924964105783285,0.37754810342953204
mem,resp,707,1,mem3.3.1.bmp,mem3.3.3.bmp,mem1.2.3.bmp,ACC034,"[3, 3, -3]","[3, 3, 3]","[-3, 0, 3]",non-match,0.4884773718476586,1,1.598147860509344,-0.12726921507273473,0.5751987654300686,4th,2nd,3rd,1.3043389599475863,-0.34924964105783285,0.37754810342953204
mem,resp,608,0,mem3.1.1.bmp,mem2.2.1.bmp,mem3.2.1.bmp,ACC034,"[3, -3, -3]","[0, 0, -3]","[3, 0, -3]",non-match,1.4226497308103743,4,0.9749595049010178,-0.3033977717068472,0.41852918353299323,4th,2nd,3rd,1.3043389599475863,-0.34924964105783285,0.37754810342953204
mem,resp,753,1,mem1.2.1.bmp,mem3.1.2.bmp,mem3.3.2.bmp,ACC034,"[-3, 0, -3]","[3, -3, 0]","[3, 3, 0]",non-match,0.7155429496238267,2,-1.1788858420965602,0.38024948333220726,0.24972716317564073,1st,3rd,3rd,-1.229243363435063,0.27373464708669004,0.37754810342953204
mem,resp,988,1,mem2.1.3.bmp,mem1.3.1.bmp,mem2.1.3.bmp,ACC034,"[0, -3, 3]","[-3, 3, -3]","[0, -3, 3]",match,1.1339745962155614,,-1.3753029429065275,-2.552928773665208,0.09815337690768876,1st,1st,2nd,-1.229243363435063,-1.2028022134452694,-0.26179060868022586
mem,resp,964,1,mem2.1.1.bmp,mem1.3.2.bmp,mem1.1.2.bmp,ACC034,"[0, -3, -3]","[-3, 3, 0]","[-3, -3, 0]",non-match,1.0144014403465114,3,0.060520939658701096,-0.0010599257420313493,-0.31019732071562295,3rd,3rd,2nd,0.31247977713683867,0.27373464708669004,-0.26179060868022586
mem,resp,676,1,mem3.2.1.bmp,mem3.3.3.bmp,mem1.1.1.bmp,ACC034,"[3, 0, -3]","[3, 3, 3]","[-3, -3, -3]",non-match,0.3545027756320972,1,1.8606165415818579,1.3213384322559667,-0.3185457543566201,4th,4th,2nd,1.3043389599475863,1.2773613214167774,-0.26179060868022586
mem,resp,1011,1,mem3.1.3.bmp,mem3.3.2.bmp,mem3.3.2.bmp,ACC034,"[3, -3, 3]","[3, 3, 0]","[3, 3, 0]",match,1.3545027756320973,,-0.6941390401222073,-0.7210752770612776,-0.227159120298968,2nd,1st,2nd,-0.3885381377072149,-1.2028022134452694,-0.26179060868022586
mem,resp,756,0,mem2.3.3.bmp,mem3.2.2.bmp,mem3.2.3.bmp,ACC034,"[0, 3, 3]","[3, 0, 0]","[3, 0, 3]",non-match,1.3030765749413242,4,0.0799280100296943,1.0006221466110936,-0.6202078276936961,3rd,4th,2nd,0.31247977713683867,1.2773613214167774,-0.26179060868022586
mem,resp,516,1,mem2.2.2.bmp,mem1.1.2.bmp,mem1.1.2.bmp,ACC034,"[0, 0, 0]","[-3, -3, 0]","[-3, -3, 0]",match,1.591751709536137,,0.5807422824651471,-1.3106238667262717,-0.45315103039414345,3rd,1st,2nd,0.31247977713683867,-1.2028022134452694,-0.26179060868022586
mem,resp,697,1,mem1.2.2.bmp,mem2.2.3.bmp,mem2.2.3.bmp,ACC034,"[-3, 0, 0]","[0, 0, 3]","[0, 0, 3]",match,1.591751709536137,,1.1297241404180862,1.011568674702535,-0.4083849089096374,4th,4th,2nd,1.3043389599475863,1.2773613214167774,-0.26179060868022586
mem,resp,530,1,mem1.3.3.bmp,mem1.3.1.bmp,mem3.2.1.bmp,ACC034,"[-3, 3, 3]","[-3, 3, -3]","[3, 0, -3]",non-match,0.4884773718476586,1,1.5222548711724118,0.2855415540311324,-0.4180652280980662,4th,3rd,2nd,1.3043389599475863,0.27373464708669004,-0.26179060868022586
mem,resp,952,0,mem2.3.3.bmp,mem2.3.2.bmp,mem1.3.2.bmp,ACC034,"[0, 3, 3]","[0, 3, 0]","[-3, 3, 0]",non-match,1.3030765749413242,4,-1.68720411864349,-0.20542687273555496,-0.753456141009797,1st,2nd,1st,-1.229243363435063,-0.34924964105783285,-1.307025191339696
mem,resp,885,1,mem2.2.2.bmp,mem2.1.3.bmp,mem2.2.2.bmp,ACC034,"[0, 0, 0]","[0, -3, 3]","[0, 0, 0]",match,1.591751709536137,,-0.9275439913285952,-1.0757581923170014,-0.8323830291764557,1st,1st,1st,-1.229243363435063,-1.2028022134452694,-1.307025191339696
mem,resp,1143,1,mem1.1.1.bmp,mem3.2.3.bmp,mem2.1.2.bmp,ACC034,"[-3, -3, -3]","[3, 0, 3]","[0, -3, 0]",non-match,1.091751709536137,4,0.52408253669065,-0.2881629713364451,-0.5959726686213416,3rd,2nd,2nd,0.31247977713683867,-0.34924964105783285,-0.26179060868022586
mem,resp,1008,1,mem2.2.3.bmp,mem3.1.3.bmp,mem3.1.3.bmp,ACC034,"[0, 0, 3]","[3, -3, 3]","[3, -3, 3]",match,1.591751709536137,,-3.404789472569729,-2.29914473448187,-0.6983199215295248,1st,1st,1st,-1.229243363435063,-1.2028022134452694,-1.307025191339696
mem,resp,710,0,mem3.2.2.bmp,mem1.3.2.bmp,mem1.3.3.bmp,ACC034,"[3, 0, 0]","[-3, 3, 0]","[-3, 3, 3]",non-match,1.0042180842186395,3,-0.4491012016246442,-1.13676740785485,-0.9798169066829931,2nd,1st,1st,-0.3885381377072149,-1.2028022134452694,-1.307025191339696
mem,resp,691,1,mem3.1.2.bmp,mem2.3.1.bmp,mem3.1.2.bmp,ACC034,"[3, -3, 0]","[0, 3, -3]","[3, -3, 0]",match,1.2928932188134525,,0.25115808886964924,-1.1121786604571593,-0.5480245306089199,3rd,1st,2nd,0.31247977713683867,-1.2028022134452694,-0.26179060868022586
mem,resp,874,0,mem1.2.3.bmp,mem3.1.1.bmp,mem1.3.1.bmp,ACC034,"[-3, 0, 3]","[3, -3, -3]","[-3, 3, -3]",non-match,0.5380061947043713,1,0.3148552221654144,0.41755425291966164,-0.758432457636934,3rd,3rd,1st,0.31247977713683867,0.27373464708669004,-1.307025191339696
mem,resp,790,0,mem3.3.2.bmp,mem1.1.3.bmp,mem2.1.1.bmp,ACC034,"[3, 3, 0]","[-3, -3, 3]","[0, -3, -3]",non-match,0.6473959944455496,1,0.0690683809765355,-1.576513718405135,-0.850998434154882,3rd,1st,1st,0.31247977713683867,-1.2028022134452694,-1.307025191339696
mem,resp,975,1,mem1.2.1.bmp,mem2.1.2.bmp,mem2.2.3.bmp,ACC034,"[-3, 0, -3]","[0, -3, 0]","[0, 0, 3]",non-match,0.9462544851682343,3,1.5658727585379777,-0.0766076660020243,-0.90644790695755,4th,2nd,1st,1.3043389599475863,-0.34924964105783285,-1.307025191339696
mem,resp,879,1,mem2.2.1.bmp,mem1.2.2.bmp,mem3.2.2.bmp,ACC034,"[0, 0, -3]","[-3, 0, 0]","[3, 0, 0]",non-match,1.0144014403465114,3,-0.31298524618933804,-0.19795891286548253,-1.019342990986113,2nd,2nd,1st,-0.3885381377072149,-0.34924964105783285,-1.307025191339696
mem,resp,941,1,mem2.3.2.bmp,mem2.2.1.bmp,mem2.3.2.bmp,ACC034,"[0, 3, 0]","[0, 0, -3]","[0, 3, 0]",match,1.591751709536137,,-1.5565421667861645,-1.056863190948862,-0.9638930931514322,1st,1st,1st,-1.229243363435063,-1.2028022134452694,-1.307025191339696
mem,resp,694,1,mem3.2.3.bmp,mem1.2.3.bmp,mem3.2.3.bmp,ACC034,"[3, 0, 3]","[-3, 0, 3]","[3, 0, 3]",match,1.4226497308103743,,-0.47838433572644184,-0.27566143824012923,-0.9800988118311296,2nd,2nd,1st,-0.3885381377072149,-0.34924964105783285,-1.307025191339696
mem,resp,725,1,mem1.1.1.bmp,mem2.2.3.bmp,mem1.1.1.bmp,ACC034,"[-3, -3, -3]","[0, 0, 3]","[-3, -3, -3]",match,1.2928932188134525,,0.28784748031652213,0.06319448086102754,-0.9527092543181461,3rd,3rd,1st,0.31247977713683867,0.27373464708669004,-1.307025191339696
mem,resp,896,1,mem1.3.3.bmp,mem3.2.2.bmp,mem2.2.2.bmp,ACC034,"[-3, 3, 3]","[3, 0, 0]","[0, 0, 0]",non-match,1.2113248654051871,4,-0.5400109585868069,-0.9138471179024478,-1.0369795743081338,2nd,1st,1st,-0.3885381377072149,-1.2028022134452694,-1.307025191339696
mem,resp,830,1,mem1.1.3.bmp,mem2.3.2.bmp,mem2.1.1.bmp,ACC034,"[-3, -3, 3]","[0, 3, 0]","[0, -3, -3]",non-match,0.7090055512641944,2,-0.6848036868571216,0.5022909220143839,-0.8028181847992967,2nd,3rd,1st,-0.3885381377072149,0.27373464708669004,-1.307025191339696
mem,resp,933,1,mem2.1.2.bmp,mem2.3.1.bmp,mem2.3.1.bmp,ACC034,"[0, -3, 0]","[0, 3, -3]","[0, 3, -3]",match,1.3545027756320973,,-0.8074862834946311,0.39720268818306603,-0.7517110385902412,1st,3rd,1st,-1.229243363435063,0.27373464708669004,-1.307025191339696
mem,resp,687,1,mem2.1.3.bmp,mem3.1.3.bmp,mem3.3.3.bmp,ACC034,"[0, -3, 3]","[3, -3, 3]","[3, 3, 3]",non-match,0.7771525064424715,2,0.36879650490499655,0.02807594314838745,-0.9360746622336167,3rd,3rd,1st,0.31247977713683867,0.27373464708669004,-1.307025191339696
mem,resp,648,1,mem3.1.2.bmp,mem1.1.1.bmp,mem1.2.3.bmp,ACC034,"[3, -3, 0]","[-3, -3, -3]","[-3, 0, 3]",non-match,0.6473959944455496,1,1.4247202374255459,-0.15239162981375978,-0.8461073488736859,4th,2nd,1st,1.3043389599475863,-0.34924964105783285,-1.307025191339696
mem,resp,1013,1,mem1.1.2.bmp,mem3.2.1.bmp,mem2.2.1.bmp,ACC034,"[-3, -3, 0]","[3, 0, -3]","[0, 0, -3]",non-match,1.2113248654051871,4,-0.2760831022142952,-0.6226947335676654,-0.9215280737018502,2nd,2nd,1st,-0.3885381377072149,-0.34924964105783285,-1.307025191339696
mem,resp,767,1,mem2.2.2.bmp,mem1.3.3.bmp,mem1.3.3.bmp,ACC034,"[0, 0, 0]","[-3, 3, 3]","[-3, 3, 3]",match,1.5,,-1.1299009468329426,-0.30588175656638356,-1.3412273260306042,1st,2nd,1st,-1.229243363435063,-0.34924964105783285,-1.307025191339696
mem,resp,478,1,mem1.3.1.bmp,mem1.1.3.bmp,mem2.1.1.bmp,ACC034,"[-3, 3, -3]","[-3, -3, 3]","[0, -3, -3]",non-match,0.7090055512641944,2,1.462423932382834,1.746953616409273,-1.0934919134691772,4th,4th,1st,1.3043389599475863,1.2773613214167774,-1.307025191339696
mem,resp,851,1,mem2.2.3.bmp,mem3.3.1.bmp,mem2.3.2.bmp,ACC034,"[0, 0, 3]","[3, 3, -3]","[0, 3, 0]",non-match,1.1835034190722742,4,-1.1731206885131205,0.22217213091903998,-1.2404193350656496,1st,3rd,1st,-1.229243363435063,0.27373464708669004,-1.307025191339696
mem,resp,564,1,mem1.2.2.bmp,mem1.2.1.bmp,mem1.2.1.bmp,ACC034,"[-3, 0, 0]","[-3, 0, -3]","[-3, 0, -3]",match,1.7113248654051871,,2.226037581475501,-0.34432752155690255,-1.2504486137916568,4th,2nd,1st,1.3043389599475863,-0.34924964105783285,-1.307025191339696
mem,resp,898,1,mem3.2.2.bmp,mem1.1.2.bmp,mem3.2.3.bmp,ACC034,"[3, 0, 0]","[-3, -3, 0]","[3, 0, 3]",non-match,1.0042180842186395,3,0.188505671410977,2.0627178648752134,-1.1209199817065854,3rd,4th,1st,0.31247977713683867,1.2773613214167774,-1.307025191339696
mem,resp,549,1,mem1.3.2.bmp,mem2.3.3.bmp,mem3.3.2.bmp,ACC034,"[-3, 3, 0]","[0, 3, 3]","[3, 3, 0]",non-match,1.0144014403465114,3,1.7160033890825102,-1.1049034370344086,-1.1507251847826143,4th,1st,1st,1.3043389599475863,-1.2028022134452694,-1.307025191339696
mem,resp,782,1,mem3.3.1.bmp,mem1.3.1.bmp,mem1.3.1.bmp,ACC034,"[3, 3, -3]","[-3, 3, -3]","[-3, 3, -3]",match,1.4226497308103743,,0.3515239972960775,0.40513865732580817,-1.0482680838341838,3rd,3rd,1st,0.31247977713683867,0.27373464708669004,-1.307025191339696
mem,resp,746,1,mem3.3.3.bmp,mem3.1.2.bmp,mem3.1.2.bmp,ACC034,"[3, 3, 3]","[3, -3, 0]","[3, -3, 0]",match,1.3545027756320973,,-1.1816505434273803,-0.4934663188197634,-1.090937314246756,1st,2nd,1st,-1.229243363435063,-0.34924964105783285,-1.307025191339696
mem,resp,438,1,mem3.1.1.bmp,mem2.1.2.bmp,mem1.1.3.bmp,ACC034,"[3, -3, -3]","[0, -3, 0]","[-3, -3, 3]",non-match,0.7752551286084112,2,2.3102926675928726,0.6092506473014447,-0.8184713247074193,4th,4th,1st,1.3043389599475863,1.2773613214167774,-1.307025191339696
mem,resp,801,1,mem2.2.1.bmp,mem2.2.2.bmp,mem2.2.1.bmp,ACC034,"[0, 0, -3]","[0, 0, 0]","[0, 0, -3]",match,1.7113248654051871,,0.46934022919323826,-0.7963980884127091,-0.8811411806407822,3rd,1st,1st,0.31247977713683867,-1.2028022134452694,-1.307025191339696
mem,resp,726,1,mem3.2.1.bmp,mem3.3.2.bmp,mem3.2.1.bmp,ACC034,"[3, 0, -3]","[3, 3, 0]","[3, 0, -3]",match,1.591751709536137,,0.7286835448137267,-0.4316530465459123,-0.9875578905028948,4th,2nd,1st,1.3043389599475863,-0.34924964105783285,-1.307025191339696
mem,resp,545,1,mem2.3.1.bmp,mem3.2.3.bmp,mem2.1.3.bmp,ACC034,"[0, 3, -3]","[3, 0, 3]","[0, -3, 3]",non-match,0.7752551286084112,2,0.8633327354143561,0.9698935875295353,-0.965156910036662,4th,4th,1st,1.3043389599475863,1.2773613214167774,-1.307025191339696
mem,resp,628,1,mem1.2.3.bmp,mem2.1.1.bmp,mem2.1.1.bmp,ACC034,"[-3, 0, 3]","[0, -3, -3]","[0, -3, -3]",match,1.2928932188134525,,0.821643316964895,-0.666563309560131,-0.9448245809560415,4th,1st,1st,1.3043389599475863,-1.2028022134452694,-1.307025191339696
mem,resp,580,1,mem1.2.1.bmp,mem1.3.2.bmp,mem1.2.1.bmp,ACC034,"[-3, 0, -3]","[-3, 3, 0]","[-3, 0, -3]",match,1.591751709536137,,-0.7961448434429607,-0.4449576997049233,-0.883486254921979,1st,2nd,1st,-1.229243363435063,-0.34924964105783285,-1.307025191339696
mem,resp,865,1,mem2.3.3.bmp,mem1.3.1.bmp,mem2.2.3.bmp,ACC034,"[0, 3, 3]","[-3, 3, -3]","[0, 0, 3]",non-match,1.0042180842186395,3,0.08044241420674382,0.7095434411805385,-0.6230836794468709,3rd,4th,2nd,0.31247977713683867,1.2773613214167774,-0.26179060868022586
mem,resp,688,0,mem3.3.2.bmp,mem2.2.1.bmp,mem3.3.3.bmp,ACC034,"[3, 3, 0]","[0, 0, -3]","[3, 3, 3]",non-match,1.0042180842186395,3,0.7831309941317076,0.06643587976343092,-0.3696128615317081,4th,3rd,2nd,1.3043389599475863,0.27373464708669004,-0.26179060868022586
mem,resp,1062,1,mem2.1.1.bmp,mem1.1.3.bmp,mem1.2.3.bmp,ACC034,"[0, -3, -3]","[-3, -3, 3]","[-3, 0, 3]",non-match,1.0042180842186395,3,-0.4589121080822011,-0.4688693596162816,-0.5523250096373897,2nd,2nd,2nd,-0.3885381377072149,-0.34924964105783285,-0.26179060868022586
mem,resp,1179,1,mem3.1.3.bmp,mem3.1.1.bmp,mem3.1.3.bmp,ACC034,"[3, -3, 3]","[3, -3, -3]","[3, -3, 3]",match,1.4226497308103743,,-1.8214130187808533,0.25094975409813486,-0.37811348983058324,1st,3rd,2nd,-1.229243363435063,0.27373464708669004,-0.26179060868022586
mem,resp,743,1,mem3.2.2.bmp,mem2.2.2.bmp,mem2.2.3.bmp,ACC034,"[3, 0, 0]","[0, 0, 0]","[0, 0, 3]",non-match,1.3030765749413242,4,1.5336124532539679,0.5344577747879494,-0.30693168574270974,4th,4th,2nd,1.3043389599475863,1.2773613214167774,-0.26179060868022586
mem,resp,838,1,mem2.2.1.bmp,mem3.2.3.bmp,mem1.2.2.bmp,ACC034,"[0, 0, -3]","[3, 0, 3]","[-3, 0, 0]",non-match,0.9462544851682343,3,-0.24014353193681942,-0.18846202767272272,-0.23431492384933955,2nd,2nd,2nd,-0.3885381377072149,-0.34924964105783285,-0.26179060868022586
mem,resp,1174,1,mem2.1.3.bmp,mem2.3.1.bmp,mem2.3.1.bmp,ACC034,"[0, -3, 3]","[0, 3, -3]","[0, 3, -3]",match,1.1835034190722742,,-1.1379723975948441,0.9506585009995345,-0.3475050255009127,1st,4th,2nd,-1.229243363435063,1.2773613214167774,-0.26179060868022586
mem,resp,717,1,mem2.1.1.bmp,mem2.3.2.bmp,mem3.1.3.bmp,ACC034,"[0, -3, -3]","[0, 3, 0]","[3, -3, 3]",non-match,0.6473959944455496,1,-0.4448981392578975,-0.5386428545057925,-0.5027215077499317,2nd,2nd,2nd,-0.3885381377072149,-0.34924964105783285,-0.26179060868022586
mem,resp,768,0,mem3.2.1.bmp,mem2.1.2.bmp,mem2.1.2.bmp,ACC034,"[3, 0, -3]","[0, -3, 0]","[0, -3, 0]",match,1.5,,0.327330080471614,0.033343557386627774,-0.2747610407073852,3rd,3rd,2nd,0.31247977713683867,0.27373464708669004,-0.26179060868022586
mem,resp,1054,1,mem3.1.1.bmp,mem2.2.3.bmp,mem2.2.3.bmp,ACC034,"[3, -3, -3]","[0, 0, 3]","[0, 0, 3]",match,1.2928932188134525,,-1.6729682161833963,-2.115706405502886,-0.31792623311762236,1st,1st,2nd,-1.229243363435063,-1.2028022134452694,-0.26179060868022586
mem,resp,807,1,mem3.1.2.bmp,mem1.2.2.bmp,mem3.1.2.bmp,ACC034,"[3, -3, 0]","[-3, 0, 0]","[3, -3, 0]",match,1.3545027756320973,,0.3784728774281131,-1.8553622440870965,-0.09111326353692197,3rd,1st,2nd,0.31247977713683867,-1.2028022134452694,-0.26179060868022586
mem,resp,1082,1,mem2.3.2.bmp,mem3.2.2.bmp,mem2.3.2.bmp,ACC034,"[0, 3, 0]","[3, 0, 0]","[0, 3, 0]",match,1.591751709536137,,-1.3002660851809602,-0.25118287272390216,0.1877860813108329,1st,2nd,3rd,-1.229243363435063,-0.34924964105783285,0.37754810342953204
mem,resp,1077,0,mem1.3.3.bmp,mem3.2.1.bmp,mem2.2.1.bmp,ACC034,"[-3, 3, 3]","[3, 0, -3]","[0, 0, -3]",non-match,1.0042180842186395,3,-1.8798803175171404,0.282615386619243,0.07371611764026667,1st,3rd,2nd,-1.229243363435063,0.27373464708669004,-0.26179060868022586
mem,resp,721,1,mem2.2.3.bmp,mem1.1.2.bmp,mem1.1.2.bmp,ACC034,"[0, 0, 3]","[-3, -3, 0]","[-3, -3, 0]",match,1.5,,0.2216408710290151,-1.0735630029353171,0.14803101585023515,3rd,1st,3rd,0.31247977713683867,-1.2028022134452694,0.37754810342953204
mem,resp,986,1,mem1.1.3.bmp,mem2.3.3.bmp,mem1.2.3.bmp,ACC034,"[-3, -3, 3]","[0, 3, 3]","[-3, 0, 3]",non-match,1.3030765749413242,4,-0.4135563574330099,-1.4433410769403787,0.2013191646252635,2nd,1st,3rd,-0.3885381377072149,-1.2028022134452694,0.37754810342953204
mem,resp,880,1,mem1.2.2.bmp,mem3.3.1.bmp,mem1.2.2.bmp,ACC034,"[-3, 0, 0]","[3, 3, -3]","[-3, 0, 0]",match,1.2928932188134525,,-0.629676123792492,0.7790626429080008,0.49987339623521204,2nd,4th,3rd,-0.3885381377072149,1.2773613214167774,0.37754810342953204
mem,resp,904,1,mem2.3.1.bmp,mem3.1.1.bmp,mem2.2.1.bmp,ACC034,"[0, 3, -3]","[3, -3, -3]","[0, 0, -3]",non-match,1.3030765749413242,4,-0.42892742095361885,-0.15407327668734278,0.20837578497008657,2nd,2nd,3rd,-0.3885381377072149,-0.34924964105783285,0.37754810342953204
mem,resp,918,1,mem1.2.1.bmp,mem3.1.2.bmp,mem3.1.2.bmp,ACC034,"[-3, 0, -3]","[3, -3, 0]","[3, -3, 0]",match,1.2928932188134525,,-0.7069629760628684,-0.5107743682575097,0.21701283990797823,1st,2nd,3rd,-1.229243363435063,-0.34924964105783285,0.37754810342953204
mem,resp,731,1,mem1.2.3.bmp,mem3.3.3.bmp,mem3.2.1.bmp,ACC034,"[-3, 0, 3]","[3, 3, 3]","[3, 0, -3]",non-match,0.5380061947043713,1,0.5857275613025,-0.9461204786155727,0.3095721161789894,3rd,1st,3rd,0.31247977713683867,-1.2028022134452694,0.37754810342953204
mem,resp,1278,1,mem1.1.2.bmp,mem1.2.2.bmp,mem1.1.2.bmp,ACC034,"[-3, -3, 0]","[-3, 0, 0]","[-3, -3, 0]",match,1.7113248654051871,,0.04616260100463717,-1.0324401346934848,0.47524239432872317,3rd,1st,3rd,0.31247977713683867,-1.2028022134452694,0.37754810342953204
mem,resp,650,1,mem3.2.2.bmp,mem1.3.2.bmp,mem1.3.2.bmp,ACC034,"[3, 0, 0]","[-3, 3, 0]","[-3, 3, 0]",match,1.3545027756320973,,-0.401396231580959,1.6910835817395828,0.24625379087480906,2nd,4th,3rd,-0.3885381377072149,1.2773613214167774,0.37754810342953204
mem,resp,703,1,mem2.1.2.bmp,mem1.1.3.bmp,mem3.1.1.bmp,ACC034,"[0, -3, 0]","[-3, -3, 3]","[3, -3, -3]",non-match,0.7752551286084112,2,1.3804092813128648,0.5191898907525777,0.24897863955106758,4th,3rd,3rd,1.3043389599475863,0.27373464708669004,0.37754810342953204
mem,resp,867,1,mem2.2.3.bmp,mem2.3.3.bmp,mem3.1.3.bmp,ACC034,"[0, 0, 3]","[0, 3, 3]","[3, -3, 3]",non-match,0.9462544851682343,3,-0.7831076780855002,-0.3946577247186477,0.51887174201569,1st,2nd,3rd,-1.229243363435063,-0.34924964105783285,0.37754810342953204
mem,resp,600,1,mem3.2.1.bmp,mem3.3.1.bmp,mem3.3.3.bmp,ACC034,"[3, 0, -3]","[3, 3, -3]","[3, 3, 3]",non-match,0.7771525064424715,2,1.1336474459809023,1.1761142019042161,0.18558226080508128,4th,4th,3rd,1.3043389599475863,1.2773613214167774,0.37754810342953204
mem,resp,823,0,mem2.1.1.bmp,mem1.2.1.bmp,mem2.2.2.bmp,ACC034,"[0, -3, -3]","[-3, 0, -3]","[0, 0, 0]",non-match,1.1835034190722742,4,0.7143203872538866,1.5664095636168922,0.3969477037803961,4th,4th,3rd,1.3043389599475863,1.2773613214167774,0.37754810342953204
mem,resp,673,0,mem2.3.2.bmp,mem1.3.3.bmp,mem1.3.3.bmp,ACC034,"[0, 3, 0]","[-3, 3, 3]","[-3, 3, 3]",match,1.591751709536137,,1.326298679258827,1.1311260921495125,0.29296677720560926,4th,4th,3rd,1.3043389599475863,1.2773613214167774,0.37754810342953204
mem,resp,627,1,mem1.3.2.bmp,mem3.1.3.bmp,mem3.1.3.bmp,ACC034,"[-3, 3, 0]","[3, -3, 3]","[3, -3, 3]",match,1.1339745962155614,,0.4120737928027955,0.4654330274397344,0.44180051586828156,3rd,3rd,3rd,0.31247977713683867,0.27373464708669004,0.37754810342953204
mem,resp,640,1,mem3.1.2.bmp,mem2.1.3.bmp,mem3.2.2.bmp,ACC034,"[3, -3, 0]","[0, -3, 3]","[3, 0, 0]",non-match,1.2113248654051871,4,0.4143002140180742,1.0814691661234617,0.4084673362812174,3rd,4th,3rd,0.31247977713683867,1.2773613214167774,0.37754810342953204
mem,resp,793,1,mem1.1.1.bmp,mem2.1.2.bmp,mem1.1.1.bmp,ACC034,"[-3, -3, -3]","[0, -3, 0]","[-3, -3, -3]",match,1.591751709536137,,1.8414220659502731,0.47556288553422954,0.4815902259510549,4th,3rd,3rd,1.3043389599475863,0.27373464708669004,0.37754810342953204
mem,resp,745,1,mem3.3.1.bmp,mem2.3.1.bmp,mem2.3.1.bmp,ACC034,"[3, 3, -3]","[0, 3, -3]","[0, 3, -3]",match,1.7113248654051871,,0.7502516744273269,-0.03446075011180143,0.22521079997727148,4th,2nd,3rd,1.3043389599475863,-0.34924964105783285,0.37754810342953204
mem,resp,768,1,mem3.1.3.bmp,mem1.2.3.bmp,mem3.1.3.bmp,ACC034,"[3, -3, 3]","[-3, 0, 3]","[3, -3, 3]",match,1.3545027756320973,,1.0561853727488453,1.8611969133336093,0.3516239029415915,4th,4th,3rd,1.3043389599475863,1.2773613214167774,0.37754810342953204
mem,resp,621,1,mem3.3.3.bmp,mem3.3.2.bmp,mem2.3.3.bmp,ACC034,"[3, 3, 3]","[3, 3, 0]","[0, 3, 3]",non-match,1.3030765749413242,4,2.1822538937411453,1.7188863007902138,0.4309797244563606,4th,4th,3rd,1.3043389599475863,1.2773613214167774,0.37754810342953204
mem,resp,974,0,mem2.1.3.bmp,mem2.2.1.bmp,mem1.3.3.bmp,ACC034,"[0, -3, 3]","[0, 0, -3]","[-3, 3, 3]",non-match,0.6473959944455496,1,-1.8075409489266585,-1.3859433326535004,0.1666530725964967,1st,1st,3rd,-1.229243363435063,-1.2028022134452694,0.37754810342953204
mem,resp,998,0,mem3.2.3.bmp,mem1.1.2.bmp,mem3.1.2.bmp,ACC034,"[3, 0, 3]","[-3, -3, 0]","[3, -3, 0]",non-match,1.0144014403465114,3,-2.5341528852973694,-1.6201189618834413,0.18661939062718672,1st,1st,3rd,-1.229243363435063,-1.2028022134452694,0.37754810342953204
mem,resp,851,1,mem3.1.1.bmp,mem2.1.1.bmp,mem2.1.1.bmp,ACC034,"[3, -3, -3]","[0, -3, -3]","[0, -3, -3]",match,1.7113248654051871,,-0.12410146953380395,0.3347318894353475,0.3003977047922728,2nd,3rd,3rd,-0.3885381377072149,0.27373464708669004,0.37754810342953204
mem,resp,775,1,mem1.3.1.bmp,mem3.3.2.bmp,mem3.1.3.bmp,ACC034,"[-3, 3, -3]","[3, 3, 0]","[3, -3, 3]",non-match,0.3545027756320972,1,-1.2724480270131204,0.2770738818308264,0.24787581934640157,1st,3rd,3rd,-1.229243363435063,0.27373464708669004,0.37754810342953204
mem,resp,748,1,mem2.2.1.bmp,mem2.3.1.bmp,mem3.2.1.bmp,ACC034,"[0, 0, -3]","[0, 3, -3]","[3, 0, -3]",non-match,1.3030765749413242,4,1.0057015885670813,-0.09924602313218843,0.45386669907594307,4th,2nd,3rd,1.3043389599475863,-0.34924964105783285,0.37754810342953204
mem,resp,1123,0,mem2.2.2.bmp,mem2.3.3.bmp,mem3.3.1.bmp,ACC034,"[0, 0, 0]","[0, 3, 3]","[3, 3, -3]",non-match,0.8545027756320972,2,-0.4444099733312054,-0.5104483695709197,0.7638383925448033,2nd,2nd,4th,-0.3885381377072149,-0.34924964105783285,1.1927329813340535
mem,resp,1007,0,mem1.2.2.bmp,mem3.2.2.bmp,mem2.3.2.bmp,ACC034,"[-3, 0, 0]","[3, 0, 0]","[0, 3, 0]",non-match,1.1835034190722742,4,1.3645812928161278,1.145448208962017,0.5744727433938217,4th,4th,3rd,1.3043389599475863,1.2773613214167774,0.37754810342953204
mem,resp,952,0,mem1.3.3.bmp,mem2.1.3.bmp,mem1.1.2.bmp,ACC034,"[-3, 3, 3]","[0, -3, 3]","[-3, -3, 0]",non-match,0.9462544851682343,3,-1.6261561952766448,1.0918218251502674,0.8909581909599203,1st,4th,4th,-1.229243363435063,1.2773613214167774,1.1927329813340535
mem,resp,816,0,mem3.3.2.bmp,mem3.1.2.bmp,mem1.1.1.bmp,ACC034,"[3, 3, 0]","[3, -3, 0]","[-3, -3, -3]",non-match,0.4884773718476586,1,-0.2519201775352462,0.32414253397318854,1.0136481598554408,2nd,3rd,4th,-0.3885381377072149,0.27373464708669004,1.1927329813340535
mem,resp,787,0,mem1.1.3.bmp,mem2.2.3.bmp,mem1.1.3.bmp,ACC034,"[-3, -3, 3]","[0, 0, 3]","[-3, -3, 3]",match,1.591751709536137,,1.6485127551004843,0.1517090898788186,0.855250386505848,4th,3rd,4th,1.3043389599475863,0.27373464708669004,1.1927329813340535
mem,resp,741,1,mem2.3.3.bmp,mem1.3.2.bmp,mem3.2.2.bmp,ACC034,"[0, 3, 3]","[-3, 3, 0]","[3, 0, 0]",non-match,0.8545027756320972,2,0.42448737276212317,-1.2081733970041013,1.0050897787833726,3rd,1st,4th,0.31247977713683867,-1.2028022134452694,1.1927329813340535
mem,resp,804,1,mem3.2.1.bmp,mem1.2.3.bmp,mem3.2.1.bmp,ACC034,"[3, 0, -3]","[-3, 0, 3]","[3, 0, -3]",match,1.1835034190722742,,-0.3164366550797152,0.33904295106681365,0.9191099128776311,2nd,3rd,4th,-0.3885381377072149,0.27373464708669004,1.1927329813340535
mem,resp,634,0,mem2.1.1.bmp,mem2.3.2.bmp,mem2.1.2.bmp,ACC034,"[0, -3, -3]","[0, 3, 0]","[0, -3, 0]",non-match,1.1339745962155614,4,0.811145896919159,-0.2581042882661447,1.0704886531725222,4th,2nd,4th,1.3043389599475863,-0.34924964105783285,1.1927329813340535
mem,resp,733,1,mem3.3.3.bmp,mem1.1.3.bmp,mem3.3.3.bmp,ACC034,"[3, 3, 3]","[-3, -3, 3]","[3, 3, 3]",match,1.1835034190722742,,-0.16499623906743852,0.11380976008914241,0.726565443294655,2nd,3rd,4th,-0.3885381377072149,0.27373464708669004,1.1927329813340535
mem,resp,797,0,mem1.3.3.bmp,mem3.3.1.bmp,mem3.2.2.bmp,ACC034,"[-3, 3, 3]","[3, 3, -3]","[3, 0, 0]",non-match,0.8846449283495895,2,-0.8022924624015895,-1.0799983214067528,0.9311702933310525,1st,1st,4th,-1.229243363435063,-1.2028022134452694,1.1927329813340535
mem,resp,620,1,mem3.1.1.bmp,mem2.2.2.bmp,mem1.2.1.bmp,ACC034,"[3, -3, -3]","[0, 0, 0]","[-3, 0, -3]",non-match,0.9462544851682343,3,2.325532867216004,-0.7916603766367424,1.062600181556821,4th,1st,4th,1.3043389599475863,-1.2028022134452694,1.1927329813340535
mem,resp,751,1,mem1.3.1.bmp,mem1.2.2.bmp,mem1.2.2.bmp,ACC034,"[-3, 3, -3]","[-3, 0, 0]","[-3, 0, 0]",match,1.591751709536137,,-0.2749241842556856,-0.9100911034099017,1.2572986128470418,2nd,1st,4th,-0.3885381377072149,-1.2028022134452694,1.1927329813340535
mem,resp,894,1,mem2.3.2.bmp,mem3.3.3.bmp,mem2.3.2.bmp,ACC034,"[0, 3, 0]","[3, 3, 3]","[0, 3, 0]",match,1.591751709536137,,-0.2924278406754903,0.8358644037948646,1.4004908293849057,2nd,4th,4th,-0.3885381377072149,1.2773613214167774,1.1927329813340535
mem,resp,810,1,mem3.3.1.bmp,mem3.1.3.bmp,mem3.1.3.bmp,ACC034,"[3, 3, -3]","[3, -3, 3]","[3, -3, 3]",match,1.1835034190722742,,-0.7032906264431005,-0.3725104390311263,1.3274633413857482,2nd,2nd,4th,-0.3885381377072149,-0.34924964105783285,1.1927329813340535
mem,resp,801,1,mem2.2.2.bmp,mem2.1.2.bmp,mem2.1.2.bmp,ACC034,"[0, 0, 0]","[0, -3, 0]","[0, -3, 0]",match,1.7113248654051871,,-0.8707065454751514,0.18155153782387495,1.0939299305864132,1st,3rd,4th,-1.229243363435063,0.27373464708669004,1.1927329813340535
mem,resp,1057,0,mem1.1.3.bmp,mem1.1.1.bmp,mem1.1.3.bmp,ACC034,"[-3, -3, 3]","[-3, -3, -3]","[-3, -3, 3]",match,1.4226497308103743,,-0.7430367261524498,0.10127427031195942,0.8312349584567263,1st,3rd,4th,-1.229243363435063,0.27373464708669004,1.1927329813340535
mem,resp,752,1,mem2.2.1.bmp,mem2.1.1.bmp,mem2.2.1.bmp,ACC034,"[0, 0, -3]","[0, -3, -3]","[0, 0, -3]",match,1.7113248654051871,,0.08275159757245426,2.1988407589873367,1.0689780417912262,3rd,4th,4th,0.31247977713683867,1.2773613214167774,1.1927329813340535
mem,resp,643,1,mem1.2.2.bmp,mem1.1.2.bmp,mem3.3.2.bmp,ACC034,"[-3, 0, 0]","[-3, -3, 0]","[3, 3, 0]",non-match,0.5380061947043713,1,0.6648756877460484,0.4208165678279551,0.8272890632719855,3rd,3rd,4th,0.31247977713683867,0.27373464708669004,1.1927329813340535
