mode,type,rt,acc,item_1,item_2,item_cue,subj_idx,item_1_number,item_2_number,item_cue_number,trial_type,summed_similarity,similarity_bin,ams,pams,slps,ams_quantile,pams_quantile,slps_quantile,ams_bin,pam_bin,slp_bin
mem,resp,988,1,mem3.2.1.bmp,mem3.1.2.bmp,mem1.2.2.bmp,ACC014,"[3, 0, -3]","[3, -3, 0]","[-3, 0, 0]",non-match,0.7090055512641944,2,-2.6173730172062726,-2.8293097713551907,2.59378145491038,1st,1st,4th,-1.215170984704249,-1.1772637639520467,1.383237430862071
mem,resp,940,1,mem2.3.2.bmp,mem3.3.3.bmp,mem3.3.3.bmp,ACC014,"[0, 3, 0]","[3, 3, 3]","[3, 3, 3]",match,1.591751709536137,,-0.2696729597160514,-0.6891638508445658,2.253256049717262,2nd,2nd,4th,-0.3382235761636551,-0.34091273526856736,1.383237430862071
mem,resp,682,0,mem2.2.3.bmp,mem1.2.1.bmp,mem2.2.3.bmp,ACC014,"[0, 0, 3]","[-3, 0, -3]","[0, 0, 3]",match,1.3545027756320973,,0.35136333608876646,-0.1964940259657807,2.263734595865005,3rd,2nd,4th,0.3108733748523669,-0.34091273526856736,1.383237430862071
mem,resp,968,1,mem3.2.2.bmp,mem1.3.2.bmp,mem2.2.1.bmp,ACC014,"[3, 0, 0]","[-3, 3, 0]","[0, 0, -3]",non-match,1.091751709536137,4,1.3317343526542325,-0.06384143159801617,2.510542758756892,4th,2nd,4th,1.246506742103388,-0.34091273526856736,1.383237430862071
mem,resp,648,1,mem1.1.2.bmp,mem2.3.3.bmp,mem2.3.3.bmp,ACC014,"[-3, -3, 0]","[0, 3, 3]","[0, 3, 3]",match,1.2928932188134525,,1.5447350269917262,0.5553945552342267,2.583297139226216,4th,3rd,4th,1.246506742103388,0.21943320848702125,1.383237430862071
mem,resp,777,1,mem1.1.3.bmp,mem1.2.2.bmp,mem1.1.3.bmp,ACC014,"[-3, -3, 3]","[-3, 0, 0]","[-3, -3, 3]",match,1.591751709536137,,-0.46827838996283555,-0.011366827586157322,1.8673615904054255,2nd,3rd,4th,-0.3382235761636551,0.21943320848702125,1.383237430862071
mem,resp,553,1,mem1.2.1.bmp,mem1.2.3.bmp,mem1.2.3.bmp,ACC014,"[-3, 0, -3]","[-3, 0, 3]","[-3, 0, 3]",match,1.4226497308103743,,-0.119894765314117,-0.9846037902525705,1.0086688800815835,2nd,1st,4th,-0.3382235761636551,-1.1772637639520467,1.383237430862071
mem,resp,735,1,mem3.3.2.bmp,mem3.1.3.bmp,mem3.1.3.bmp,ACC014,"[3, 3, 0]","[3, -3, 3]","[3, -3, 3]",match,1.3545027756320973,,0.1810476749569071,-0.8871283170767749,1.3882540212631416,3rd,1st,4th,0.3108733748523669,-1.1772637639520467,1.383237430862071
mem,resp,854,1,mem2.1.2.bmp,mem2.2.2.bmp,mem2.1.2.bmp,ACC014,"[0, -3, 0]","[0, 0, 0]","[0, -3, 0]",match,1.7113248654051871,,0.12281414619633749,-1.706449562877601,0.9185993732319367,3rd,1st,4th,0.3108733748523669,-1.1772637639520467,1.383237430862071
mem,resp,1020,0,mem2.3.1.bmp,mem3.1.1.bmp,mem2.3.1.bmp,ACC014,"[0, 3, -3]","[3, -3, -3]","[0, 3, -3]",match,1.3545027756320973,,-0.24831341197795567,-0.4934993561398756,1.1913969281640657,2nd,2nd,4th,-0.3382235761636551,-0.34091273526856736,1.383237430862071
mem,resp,990,0,mem1.3.1.bmp,mem3.2.2.bmp,mem1.3.1.bmp,ACC014,"[-3, 3, -3]","[3, 0, 0]","[-3, 3, -3]",match,1.2928932188134525,,-1.0394169260988138,-0.45379686134058755,1.4287598990191392,1st,2nd,4th,-1.215170984704249,-0.34091273526856736,1.383237430862071
mem,resp,802,1,mem2.1.3.bmp,mem3.2.3.bmp,mem1.3.3.bmp,ACC014,"[0, -3, 3]","[3, 0, 3]","[-3, 3, 3]",non-match,0.7090055512641944,2,-0.1688040907705853,0.12866802260352103,0.814651529657995,2nd,3rd,4th,-0.3382235761636551,0.21943320848702125,1.383237430862071
mem,resp,761,0,mem3.1.3.bmp,mem1.1.1.bmp,mem1.2.1.bmp,ACC014,"[3, -3, 3]","[-3, -3, -3]","[-3, 0, -3]",non-match,0.8452994616207485,2,0.4261339141678234,1.9101755079653318,1.0222638609306014,3rd,4th,4th,0.3108733748523669,1.3015565369962456,1.383237430862071
mem,resp,739,1,mem3.1.1.bmp,mem2.1.1.bmp,mem2.1.1.bmp,ACC014,"[3, -3, -3]","[0, -3, -3]","[0, -3, -3]",match,1.7113248654051871,,0.4402084983818758,0.26797958500101554,1.2145897359943514,3rd,3rd,4th,0.3108733748523669,0.21943320848702125,1.383237430862071
mem,resp,988,1,mem3.3.3.bmp,mem2.2.1.bmp,mem2.2.1.bmp,ACC014,"[3, 3, 3]","[0, 0, -3]","[0, 0, -3]",match,1.2928932188134525,,-1.220693348702909,-1.3963568315572379,1.7425917234895496,1st,1st,4th,-1.215170984704249,-1.1772637639520467,1.383237430862071
mem,resp,945,1,mem3.1.2.bmp,mem1.3.3.bmp,mem2.1.2.bmp,ACC014,"[3, -3, 0]","[-3, 3, 3]","[0, -3, 0]",non-match,1.0042180842186395,3,-0.5205495891457078,-0.13286346211788777,1.4366311931305236,2nd,2nd,4th,-0.3382235761636551,-0.34091273526856736,1.383237430862071
mem,resp,917,1,mem1.3.2.bmp,mem3.2.2.bmp,mem1.1.1.bmp,ACC014,"[-3, 3, 0]","[3, 0, 0]","[-3, -3, -3]",non-match,0.6473959944455496,1,-0.20374839366644898,-0.09415295607744566,1.335223925576465,2nd,2nd,4th,-0.3382235761636551,-0.34091273526856736,1.383237430862071
mem,resp,754,1,mem3.3.1.bmp,mem2.3.1.bmp,mem3.3.1.bmp,ACC014,"[3, 3, -3]","[0, 3, -3]","[3, 3, -3]",match,1.7113248654051871,,-0.18321051750072126,-0.6501327798305534,1.130150365381713,2nd,2nd,4th,-0.3382235761636551,-0.34091273526856736,1.383237430862071
mem,resp,771,1,mem2.3.3.bmp,mem3.1.3.bmp,mem3.1.3.bmp,ACC014,"[0, 3, 3]","[3, -3, 3]","[3, -3, 3]",match,1.3545027756320973,,1.7935831226626686,0.9995507402508119,1.4855383509804656,4th,4th,4th,1.246506742103388,1.3015565369962456,1.383237430862071
mem,resp,1162,0,mem3.2.3.bmp,mem3.1.1.bmp,mem3.2.3.bmp,ACC014,"[3, 0, 3]","[3, -3, -3]","[3, 0, 3]",match,1.3545027756320973,,-0.949611809980292,0.3911859392258924,0.987200619980994,1st,3rd,4th,-1.215170984704249,0.21943320848702125,1.383237430862071
mem,resp,830,1,mem2.1.1.bmp,mem3.2.1.bmp,mem1.2.1.bmp,ACC014,"[0, -3, -3]","[3, 0, -3]","[-3, 0, -3]",non-match,1.0144014403465114,3,0.43149828325412776,-0.009229588342984221,1.0767238840846534,3rd,3rd,4th,0.3108733748523669,0.21943320848702125,1.383237430862071
mem,resp,1029,0,mem1.3.3.bmp,mem1.1.2.bmp,mem1.3.2.bmp,ACC014,"[-3, 3, 3]","[-3, -3, 0]","[-3, 3, 0]",non-match,1.1339745962155614,4,-0.45112771295696674,-0.893164767645715,0.7943616554925335,2nd,1st,4th,-0.3382235761636551,-1.1772637639520467,1.383237430862071
mem,resp,835,0,mem1.2.3.bmp,mem3.3.1.bmp,mem1.1.3.bmp,ACC014,"[-3, 0, 3]","[3, 3, -3]","[-3, -3, 3]",non-match,0.7113248654051871,2,-0.5773359413438882,-0.31596366214459676,0.9176570505039015,2nd,2nd,4th,-0.3382235761636551,-0.34091273526856736,1.383237430862071
mem,resp,1022,1,mem2.2.1.bmp,mem1.3.1.bmp,mem2.2.3.bmp,ACC014,"[0, 0, -3]","[-3, 3, -3]","[0, 0, 3]",non-match,0.7155429496238267,2,-2.662648789873866,-2.3966308981830204,0.9829476599505196,1st,1st,4th,-1.215170984704249,-1.1772637639520467,1.383237430862071
mem,resp,1273,1,mem1.1.1.bmp,mem3.3.2.bmp,mem3.2.3.bmp,ACC014,"[-3, -3, -3]","[3, 3, 0]","[3, 0, 3]",non-match,0.7257263057516985,2,-0.5267527119290284,-0.4083770170425088,0.8410905157918752,2nd,2nd,4th,-0.3382235761636551,-0.34091273526856736,1.383237430862071
mem,resp,803,1,mem2.2.2.bmp,mem2.1.3.bmp,mem2.1.3.bmp,ACC014,"[0, 0, 0]","[0, -3, 3]","[0, -3, 3]",match,1.591751709536137,,-0.15481540028723023,-0.941244195827964,0.7890666997242081,2nd,1st,4th,-0.3382235761636551,-1.1772637639520467,1.383237430862071
mem,resp,831,1,mem1.2.2.bmp,mem2.3.2.bmp,mem1.2.2.bmp,ACC014,"[-3, 0, 0]","[0, 3, 0]","[-3, 0, 0]",match,1.591751709536137,,-0.5188052942867263,-1.0804949315445462,0.7114395268526473,2nd,1st,4th,-0.3382235761636551,-1.1772637639520467,1.383237430862071
mem,resp,796,1,mem3.3.3.bmp,mem1.1.3.bmp,mem3.3.3.bmp,ACC014,"[3, 3, 3]","[-3, -3, 3]","[3, 3, 3]",match,1.1835034190722742,,-0.0520272846846671,-0.423984378549743,0.6228764064624168,3rd,2nd,3rd,0.3108733748523669,-0.34091273526856736,0.2331260290961714
mem,resp,832,1,mem3.3.1.bmp,mem3.2.3.bmp,mem3.2.3.bmp,ACC014,"[3, 3, -3]","[3, 0, 3]","[3, 0, 3]",match,1.3545027756320973,,-1.9685335580396865,-0.5973249734747779,0.4662020662340437,1st,2nd,3rd,-1.215170984704249,-0.34091273526856736,0.2331260290961714
mem,resp,981,0,mem1.1.2.bmp,mem2.2.1.bmp,mem3.1.3.bmp,ACC014,"[-3, -3, 0]","[0, 0, -3]","[3, -3, 3]",non-match,0.6473959944455496,1,-0.3985014946578277,0.12825078025301956,-0.1006162742012132,2nd,3rd,3rd,-0.3382235761636551,0.21943320848702125,0.2331260290961714
mem,resp,718,1,mem1.3.2.bmp,mem2.2.3.bmp,mem2.2.3.bmp,ACC014,"[-3, 3, 0]","[0, 0, 3]","[0, 0, 3]",match,1.5,,0.4547322965183272,0.03176986513595138,-0.6291103372690467,3rd,3rd,2nd,0.3108733748523669,0.21943320848702125,-0.46522959857733326
mem,resp,875,1,mem1.1.3.bmp,mem2.1.2.bmp,mem1.1.3.bmp,ACC014,"[-3, -3, 3]","[0, -3, 0]","[-3, -3, 3]",match,1.591751709536137,,1.1892265990556776,0.7327940165846334,-0.8279241140278787,4th,4th,1st,1.246506742103388,1.3015565369962456,-1.1481450661360848
mem,resp,1316,1,mem3.2.3.bmp,mem1.3.3.bmp,mem2.2.2.bmp,ACC014,"[3, 0, 3]","[-3, 3, 3]","[0, 0, 0]",non-match,1.091751709536137,4,-1.30857126982994,0.6217909405288258,-0.7613407499808591,1st,4th,1st,-1.215170984704249,1.3015565369962456,-1.1481450661360848
mem,resp,896,1,mem1.2.1.bmp,mem1.2.3.bmp,mem1.2.3.bmp,ACC014,"[-3, 0, -3]","[-3, 0, 3]","[-3, 0, 3]",match,1.4226497308103743,,-0.6823163197383435,-0.05374629385718454,-1.0969534923364233,1st,2nd,1st,-1.215170984704249,-0.34091273526856736,-1.1481450661360848
mem,resp,762,1,mem1.3.1.bmp,mem1.3.2.bmp,mem1.3.2.bmp,ACC014,"[-3, 3, -3]","[-3, 3, 0]","[-3, 3, 0]",match,1.7113248654051871,,0.7882041921368882,0.22926268558645083,-1.4117498548210894,4th,3rd,1st,1.246506742103388,0.21943320848702125,-1.1481450661360848
mem,resp,859,1,mem3.1.2.bmp,mem3.3.3.bmp,mem1.1.2.bmp,ACC014,"[3, -3, 0]","[3, 3, 3]","[-3, -3, 0]",non-match,0.5566243270259357,1,0.7079290024123421,0.08788134300545829,-1.3844960810977414,4th,3rd,1st,1.246506742103388,0.21943320848702125,-1.1481450661360848
mem,resp,806,1,mem3.2.1.bmp,mem3.2.2.bmp,mem3.2.2.bmp,ACC014,"[3, 0, -3]","[3, 0, 0]","[3, 0, 0]",match,1.7113248654051871,,-1.325233822890944,0.5074027222525843,-1.3479690491106322,1st,3rd,1st,-1.215170984704249,0.21943320848702125,-1.1481450661360848
mem,resp,794,1,mem2.1.1.bmp,mem2.1.3.bmp,mem2.3.1.bmp,ACC014,"[0, -3, -3]","[0, -3, 3]","[0, 3, -3]",non-match,0.6061531498826483,1,0.2834158277030257,0.05984352941871445,-1.2986008598393495,3rd,3rd,1st,0.3108733748523669,0.21943320848702125,-1.1481450661360848
mem,resp,1318,0,mem2.3.1.bmp,mem3.1.1.bmp,mem2.2.1.bmp,ACC014,"[0, 3, -3]","[3, -3, -3]","[0, 0, -3]",non-match,1.3030765749413242,4,-2.0913067840589274,0.17012337743349837,-0.9072444622468071,1st,3rd,1st,-1.215170984704249,0.21943320848702125,-1.1481450661360848
mem,resp,1058,1,mem1.2.1.bmp,mem3.1.2.bmp,mem3.1.2.bmp,ACC014,"[-3, 0, -3]","[3, -3, 0]","[3, -3, 0]",match,1.2928932188134525,,-0.6772751888101226,-0.30094514831947455,-0.8333610636720051,1st,2nd,1st,-1.215170984704249,-0.34091273526856736,-1.1481450661360848
mem,resp,845,1,mem1.2.3.bmp,mem3.3.3.bmp,mem3.2.1.bmp,ACC014,"[-3, 0, 3]","[3, 3, 3]","[3, 0, -3]",non-match,0.5380061947043713,1,-1.44780612251974,-0.797674765766612,-0.9410281429850684,1st,1st,1st,-1.215170984704249,-1.1772637639520467,-1.1481450661360848
mem,resp,802,1,mem1.1.2.bmp,mem1.2.2.bmp,mem1.1.2.bmp,ACC014,"[-3, -3, 0]","[-3, 0, 0]","[-3, -3, 0]",match,1.7113248654051871,,-0.06507205608401738,-0.9099988503439794,-1.2075408976842108,3rd,1st,1st,0.3108733748523669,-1.1772637639520467,-1.1481450661360848
mem,resp,758,1,mem3.2.2.bmp,mem1.3.2.bmp,mem1.3.2.bmp,ACC014,"[3, 0, 0]","[-3, 3, 0]","[-3, 3, 0]",match,1.3545027756320973,,-0.296689249500296,0.22696501447859252,-0.8658504789458958,2nd,3rd,1st,-0.3382235761636551,0.21943320848702125,-1.1481450661360848
mem,resp,937,1,mem2.1.2.bmp,mem1.1.3.bmp,mem3.1.1.bmp,ACC014,"[0, -3, 0]","[-3, -3, 3]","[3, -3, -3]",non-match,0.7752551286084112,2,-1.2710218456460618,-0.5084890101547024,-0.2654029128352411,1st,2nd,2nd,-1.215170984704249,-0.34091273526856736,-0.46522959857733326
mem,resp,742,1,mem2.2.3.bmp,mem2.3.3.bmp,mem3.1.3.bmp,ACC014,"[0, 0, 3]","[0, 3, 3]","[3, -3, 3]",non-match,0.9462544851682343,2,-0.24720915756918094,-0.06965450245517817,-0.5179270980431578,2nd,2nd,2nd,-0.3382235761636551,-0.34091273526856736,-0.46522959857733326
mem,resp,1092,1,mem3.2.1.bmp,mem3.3.1.bmp,mem3.3.3.bmp,ACC014,"[3, 0, -3]","[3, 3, -3]","[3, 3, 3]",non-match,0.7771525064424715,2,-0.5317344487264669,0.6315303198628294,-0.22040281050648494,2nd,4th,2nd,-0.3382235761636551,1.3015565369962456,-0.46522959857733326
mem,resp,739,0,mem2.1.1.bmp,mem1.2.1.bmp,mem2.2.2.bmp,ACC014,"[0, -3, -3]","[-3, 0, -3]","[0, 0, 0]",non-match,1.1835034190722742,4,-0.5735947677129375,-0.6500623332128763,0.44562051000640956,2nd,2nd,3rd,-0.3382235761636551,-0.34091273526856736,0.2331260290961714
mem,resp,1078,1,mem2.3.2.bmp,mem1.3.3.bmp,mem1.3.3.bmp,ACC014,"[0, 3, 0]","[-3, 3, 3]","[-3, 3, 3]",match,1.591751709536137,,-0.07706959828450208,0.6877610012965995,0.17584912070635628,2nd,4th,3rd,-0.3382235761636551,1.3015565369962456,0.2331260290961714
mem,resp,878,1,mem1.3.2.bmp,mem3.1.3.bmp,mem3.1.3.bmp,ACC014,"[-3, 3, 0]","[3, -3, 3]","[3, -3, 3]",match,1.1339745962155614,,-0.9470042543785134,-0.01987324173290688,-0.0358282079480843,1st,3rd,3rd,-1.215170984704249,0.21943320848702125,0.2331260290961714
mem,resp,774,0,mem3.1.2.bmp,mem2.1.3.bmp,mem3.2.2.bmp,ACC014,"[3, -3, 0]","[0, -3, 3]","[3, 0, 0]",non-match,1.2113248654051871,4,-0.3818031534007815,1.5092798798256006,-0.24368362724183149,2nd,4th,2nd,-0.3382235761636551,1.3015565369962456,-0.46522959857733326
mem,resp,781,1,mem1.1.1.bmp,mem2.1.2.bmp,mem1.1.1.bmp,ACC014,"[-3, -3, -3]","[0, -3, 0]","[-3, -3, -3]",match,1.591751709536137,,-0.21918014485499482,-1.0642158773718162,-0.5909783881038071,2nd,1st,2nd,-0.3382235761636551,-1.1772637639520467,-0.46522959857733326
mem,resp,647,1,mem3.3.1.bmp,mem2.3.1.bmp,mem2.3.1.bmp,ACC014,"[3, 3, -3]","[0, 3, -3]","[0, 3, -3]",match,1.7113248654051871,,-0.23216130994784037,-0.38803646739336556,-0.7408145049121908,2nd,2nd,2nd,-0.3382235761636551,-0.34091273526856736,-0.46522959857733326
mem,resp,611,1,mem3.1.3.bmp,mem1.2.3.bmp,mem3.1.3.bmp,ACC014,"[3, -3, 3]","[-3, 0, 3]","[3, -3, 3]",match,1.3545027756320973,,-0.4209764736236981,-1.5645335967922256,-0.5996890773736927,2nd,1st,2nd,-0.3382235761636551,-1.1772637639520467,-0.46522959857733326
mem,resp,798,1,mem3.3.3.bmp,mem3.3.2.bmp,mem2.3.3.bmp,ACC014,"[3, 3, 3]","[3, 3, 0]","[0, 3, 3]",non-match,1.3030765749413242,4,0.35434967591575156,1.1826757370089342,-0.6480286418932717,3rd,4th,2nd,0.3108733748523669,1.3015565369962456,-0.46522959857733326
mem,resp,643,0,mem2.1.3.bmp,mem2.2.1.bmp,mem1.3.3.bmp,ACC014,"[0, -3, 3]","[0, 0, -3]","[-3, 3, 3]",non-match,0.6473959944455496,1,0.44631907776808877,2.2631676750891074,-1.067386643228782,3rd,4th,1st,0.3108733748523669,1.3015565369962456,-1.1481450661360848
mem,resp,1294,1,mem3.1.1.bmp,mem2.1.1.bmp,mem2.1.1.bmp,ACC014,"[3, -3, -3]","[0, -3, -3]","[0, -3, -3]",match,1.7113248654051871,,-0.21770311978069212,-0.09737216932647243,-1.215827970875707,2nd,2nd,1st,-0.3382235761636551,-0.34091273526856736,-1.1481450661360848
mem,resp,762,1,mem1.3.1.bmp,mem3.3.2.bmp,mem3.1.3.bmp,ACC014,"[-3, 3, -3]","[3, 3, 0]","[3, -3, 3]",non-match,0.3545027756320972,1,-0.8367247508561049,-0.44166426879383575,-0.6035155641630344,1st,2nd,2nd,-1.215170984704249,-0.34091273526856736,-0.46522959857733326
mem,resp,889,1,mem2.2.1.bmp,mem2.3.1.bmp,mem3.2.1.bmp,ACC014,"[0, 0, -3]","[0, 3, -3]","[3, 0, -3]",non-match,1.3030765749413242,4,0.5169641761880146,0.7644124781874354,-0.20693708792588447,3rd,4th,2nd,0.3108733748523669,1.3015565369962456,-0.46522959857733326
mem,resp,1037,1,mem2.2.2.bmp,mem2.3.3.bmp,mem3.3.1.bmp,ACC014,"[0, 0, 0]","[0, 3, 3]","[3, 3, -3]",non-match,0.8545027756320972,2,0.4440367111667631,1.3174142443734054,-0.7209937152926214,3rd,4th,2nd,0.3108733748523669,1.3015565369962456,-0.46522959857733326
mem,resp,827,1,mem1.2.2.bmp,mem3.2.2.bmp,mem2.3.2.bmp,ACC014,"[-3, 0, 0]","[3, 0, 0]","[0, 3, 0]",non-match,1.1835034190722742,4,-0.01749655392532212,0.1891844157417229,-0.6238252175196211,3rd,3rd,2nd,0.3108733748523669,0.21943320848702125,-0.46522959857733326
mem,resp,560,0,mem1.3.3.bmp,mem2.1.3.bmp,mem1.1.2.bmp,ACC014,"[-3, 3, 3]","[0, -3, 3]","[-3, -3, 0]",non-match,0.9462544851682343,2,-0.15676348260101508,1.5185649710898836,-0.7598322945671722,2nd,4th,1st,-0.3382235761636551,1.3015565369962456,-1.1481450661360848
mem,resp,685,1,mem3.3.2.bmp,mem3.1.2.bmp,mem1.1.1.bmp,ACC014,"[3, 3, 0]","[3, -3, 0]","[-3, -3, -3]",non-match,0.4884773718476586,1,0.9032841114011654,-0.016117283813315286,-1.2717388956157956,4th,3rd,1st,1.246506742103388,0.21943320848702125,-1.1481450661360848
mem,resp,730,1,mem1.1.3.bmp,mem2.2.3.bmp,mem1.1.3.bmp,ACC014,"[-3, -3, 3]","[0, 0, 3]","[-3, -3, 3]",match,1.591751709536137,,0.7657627521846835,1.4123807065883112,-0.41441740090618956,4th,4th,2nd,1.246506742103388,1.3015565369962456,-0.46522959857733326
mem,resp,757,1,mem2.3.3.bmp,mem1.3.2.bmp,mem3.2.2.bmp,ACC014,"[0, 3, 3]","[-3, 3, 0]","[3, 0, 0]",non-match,0.8545027756320972,2,0.5528124017018332,0.28124213173512685,-0.05300792563556751,3rd,3rd,3rd,0.3108733748523669,0.21943320848702125,0.2331260290961714
mem,resp,994,1,mem3.2.1.bmp,mem1.2.3.bmp,mem3.2.1.bmp,ACC014,"[3, 0, -3]","[-3, 0, 3]","[3, 0, -3]",match,1.1835034190722742,,0.08756103167944687,1.1139400340479346,-0.3814054596131288,3rd,4th,2nd,0.3108733748523669,1.3015565369962456,-0.46522959857733326
mem,resp,1021,0,mem2.1.1.bmp,mem2.3.2.bmp,mem2.1.2.bmp,ACC014,"[0, -3, -3]","[0, 3, 0]","[0, -3, 0]",non-match,1.1339745962155614,4,0.510712557260616,0.7135945348386149,-1.0249983327042633,3rd,4th,1st,0.3108733748523669,1.3015565369962456,-1.1481450661360848
mem,resp,1283,1,mem3.3.3.bmp,mem1.1.3.bmp,mem3.3.3.bmp,ACC014,"[3, 3, 3]","[-3, -3, 3]","[3, 3, 3]",match,1.1835034190722742,,-1.1006097675424151,-0.25943093859686617,-0.9669141470555028,1st,2nd,1st,-1.215170984704249,-0.34091273526856736,-1.1481450661360848
mem,resp,781,0,mem1.3.3.bmp,mem3.3.1.bmp,mem3.2.2.bmp,ACC014,"[-3, 3, 3]","[3, 3, -3]","[3, 0, 0]",non-match,0.8846449283495895,2,-0.9494397923060403,0.10905350929992247,-0.47875373824282796,1st,3rd,2nd,-1.215170984704249,0.21943320848702125,-0.46522959857733326
mem,resp,766,1,mem3.1.1.bmp,mem2.2.2.bmp,mem1.2.1.bmp,ACC014,"[3, -3, -3]","[0, 0, 0]","[-3, 0, -3]",non-match,0.9462544851682343,2,0.050086723428489646,0.0806414741979,-0.7741785225476093,3rd,3rd,1st,0.3108733748523669,0.21943320848702125,-1.1481450661360848
mem,resp,783,1,mem1.3.1.bmp,mem1.2.2.bmp,mem1.2.2.bmp,ACC014,"[-3, 3, -3]","[-3, 0, 0]","[-3, 0, 0]",match,1.591751709536137,,-0.6426332173248701,-0.8149307812814398,-0.627392066344675,1st,1st,2nd,-1.215170984704249,-1.1772637639520467,-0.46522959857733326
mem,resp,977,1,mem2.3.2.bmp,mem3.3.3.bmp,mem2.3.2.bmp,ACC014,"[0, 3, 0]","[3, 3, 3]","[0, 3, 0]",match,1.591751709536137,,-0.775215206592225,-0.8848020849144215,-0.4764778471472995,1st,1st,2nd,-1.215170984704249,-1.1772637639520467,-0.46522959857733326
mem,resp,660,1,mem3.3.1.bmp,mem3.1.3.bmp,mem3.1.3.bmp,ACC014,"[3, 3, -3]","[3, -3, 3]","[3, -3, 3]",match,1.1835034190722742,,0.16289238698359637,0.93741252137587,-1.2691574702804143,3rd,4th,1st,0.3108733748523669,1.3015565369962456,-1.1481450661360848
mem,resp,585,1,mem2.2.2.bmp,mem2.1.2.bmp,mem2.1.2.bmp,ACC014,"[0, 0, 0]","[0, -3, 0]","[0, -3, 0]",match,1.7113248654051871,,0.9804121162083876,0.549702480476129,-1.1935742519758055,4th,3rd,1st,1.246506742103388,0.21943320848702125,-1.1481450661360848
mem,resp,1013,0,mem1.1.3.bmp,mem1.1.1.bmp,mem1.1.3.bmp,ACC014,"[-3, -3, 3]","[-3, -3, -3]","[-3, -3, 3]",match,1.4226497308103743,,-0.7754601926150897,0.5312743862061194,-1.4898747988012142,1st,3rd,1st,-1.215170984704249,0.21943320848702125,-1.1481450661360848
mem,resp,780,0,mem2.2.1.bmp,mem2.1.1.bmp,mem2.2.1.bmp,ACC014,"[0, 0, -3]","[0, -3, -3]","[0, 0, -3]",match,1.7113248654051871,,-0.011142431654399506,-0.8694233612210486,-1.469136114547126,3rd,1st,1st,0.3108733748523669,-1.1772637639520467,-1.1481450661360848
mem,resp,666,1,mem1.2.2.bmp,mem1.1.2.bmp,mem3.3.2.bmp,ACC014,"[-3, 0, 0]","[-3, -3, 0]","[3, 3, 0]",non-match,0.5380061947043713,1,0.5959556974644756,-0.09595194400367936,-1.2070627494484398,3rd,2nd,1st,0.3108733748523669,-0.34091273526856736,-1.1481450661360848
mem,resp,1087,1,mem2.1.2.bmp,mem2.1.1.bmp,mem2.1.1.bmp,ACC014,"[0, -3, 0]","[0, -3, -3]","[0, -3, -3]",match,1.7113248654051871,,-0.4065338682434687,-0.7231420948860788,-0.741343260625404,2nd,1st,1st,-0.3382235761636551,-1.1772637639520467,-1.1481450661360848
mem,resp,681,1,mem1.2.2.bmp,mem1.1.3.bmp,mem1.1.3.bmp,ACC014,"[-3, 0, 0]","[-3, -3, 3]","[-3, -3, 3]",match,1.591751709536137,,-0.4749816697673959,-0.22810436141081908,-0.8615359162855998,2nd,2nd,1st,-0.3382235761636551,-0.34091273526856736,-1.1481450661360848
mem,resp,736,1,mem1.2.3.bmp,mem3.1.2.bmp,mem1.2.3.bmp,ACC014,"[-3, 0, 3]","[3, -3, 0]","[-3, 0, 3]",match,1.2928932188134525,,1.036652519247429,-1.5428810759844764,-0.9784801756467759,4th,1st,1st,1.246506742103388,-1.1772637639520467,-1.1481450661360848
mem,resp,641,1,mem3.2.2.bmp,mem1.2.1.bmp,mem2.3.3.bmp,ACC014,"[3, 0, 0]","[-3, 0, -3]","[0, 3, 3]",non-match,0.7928932188134524,2,0.7783055808364145,-0.6987444713463647,-1.1408118053127443,4th,2nd,1st,1.246506742103388,-0.34091273526856736,-1.1481450661360848
mem,resp,846,1,mem3.2.1.bmp,mem1.1.2.bmp,mem2.1.3.bmp,ACC014,"[3, 0, -3]","[-3, -3, 0]","[0, -3, 3]",non-match,0.8846449283495895,2,-1.6333259000704294,-1.4560133905647943,-1.6378936398669608,1st,1st,1st,-1.215170984704249,-1.1772637639520467,-1.1481450661360848
mem,resp,581,1,mem1.3.1.bmp,mem1.3.2.bmp,mem3.2.3.bmp,ACC014,"[-3, 3, -3]","[-3, 3, 0]","[3, 0, 3]",non-match,0.42686781502901383,1,0.7603202561226658,0.04499942922972468,-1.1657021977203248,4th,3rd,1st,1.246506742103388,0.21943320848702125,-1.1481450661360848
mem,resp,546,1,mem3.3.2.bmp,mem3.3.1.bmp,mem3.3.2.bmp,ACC014,"[3, 3, 0]","[3, 3, -3]","[3, 3, 0]",match,1.7113248654051871,,-1.1231423163760206,0.16441272006463048,-1.3564679577392893,1st,3rd,1st,-1.215170984704249,0.21943320848702125,-1.1481450661360848
mem,resp,861,1,mem3.1.3.bmp,mem3.3.3.bmp,mem2.2.3.bmp,ACC014,"[3, -3, 3]","[3, 3, 3]","[0, 0, 3]",non-match,1.1835034190722742,4,-2.1078604617382504,-1.1355153831074551,-1.049276307928605,1st,1st,1st,-1.215170984704249,-1.1772637639520467,-1.1481450661360848
mem,resp,767,1,mem2.2.2.bmp,mem1.2.2.bmp,mem2.2.2.bmp,ACC014,"[0, 0, 0]","[-3, 0, 0]","[0, 0, 0]",match,1.7113248654051871,,-0.8962628027732941,0.35501240768923503,-0.687676385949727,1st,3rd,2nd,-1.215170984704249,0.21943320848702125,-0.46522959857733326
mem,resp,1024,1,mem2.1.3.bmp,mem1.3.3.bmp,mem2.1.3.bmp,ACC014,"[0, -3, 3]","[-3, 3, 3]","[0, -3, 3]",match,1.3545027756320973,,-0.9727920182242854,0.37606805922163833,-0.5098174124160014,1st,3rd,2nd,-1.215170984704249,0.21943320848702125,-0.46522959857733326
mem,resp,567,1,mem2.3.1.bmp,mem2.3.2.bmp,mem2.3.1.bmp,ACC014,"[0, 3, -3]","[0, 3, 0]","[0, 3, -3]",match,1.7113248654051871,,1.3748119636909695,-0.5316246593189675,-0.9609340585274383,4th,2nd,1st,1.246506742103388,-0.34091273526856736,-1.1481450661360848
mem,resp,480,1,mem1.3.2.bmp,mem2.3.3.bmp,mem1.3.2.bmp,ACC014,"[-3, 3, 0]","[0, 3, 3]","[-3, 3, 0]",match,1.591751709536137,,-0.5288924249540358,0.7563074125826185,-0.7718385551884274,2nd,4th,1st,-0.3382235761636551,1.3015565369962456,-1.1481450661360848
mem,resp,626,1,mem3.3.1.bmp,mem2.2.3.bmp,mem2.2.3.bmp,ACC014,"[3, 3, -3]","[0, 0, 3]","[0, 0, 3]",match,1.2928932188134525,,1.6963464094400968,-0.33363966856328764,-1.0695329244649476,4th,2nd,1st,1.246506742103388,-0.34091273526856736,-1.1481450661360848
mem,resp,801,1,mem1.2.1.bmp,mem2.2.2.bmp,mem1.1.1.bmp,ACC014,"[-3, 0, -3]","[0, 0, 0]","[-3, -3, -3]",non-match,1.2113248654051871,4,0.49813753187947657,-0.1209297214317214,-1.3874706865590274,3rd,2nd,1st,0.3108733748523669,-0.34091273526856736,-1.1481450661360848
mem,resp,948,0,mem1.1.3.bmp,mem3.3.2.bmp,mem3.3.2.bmp,ACC014,"[-3, -3, 3]","[3, 3, 0]","[3, 3, 0]",match,1.1339745962155614,,-1.189649476023409,0.01873126574963872,-1.5741227642863802,1st,3rd,1st,-1.215170984704249,0.21943320848702125,-1.1481450661360848
mem,resp,624,1,mem2.1.1.bmp,mem3.2.1.bmp,mem3.2.1.bmp,ACC014,"[0, -3, -3]","[3, 0, -3]","[3, 0, -3]",match,1.591751709536137,,0.6894791328355968,1.5056252598734228,-1.7794751572522405,4th,4th,1st,1.246506742103388,1.3015565369962456,-1.1481450661360848
mem,resp,1031,0,mem3.1.2.bmp,mem1.2.3.bmp,mem1.3.3.bmp,ACC014,"[3, -3, 0]","[-3, 0, 3]","[-3, 3, 3]",non-match,0.8452994616207485,2,0.783547303486401,0.5026665465526733,-1.3964805602326955,4th,3rd,1st,1.246506742103388,0.21943320848702125,-1.1481450661360848
mem,resp,877,1,mem3.3.3.bmp,mem2.3.1.bmp,mem3.3.3.bmp,ACC014,"[3, 3, 3]","[0, 3, -3]","[3, 3, 3]",match,1.3545027756320973,,-0.39476780161003805,-0.14044695984678784,-1.2046276959738424,2nd,2nd,1st,-0.3382235761636551,-0.34091273526856736,-1.1481450661360848
mem,resp,569,1,mem3.2.3.bmp,mem3.1.3.bmp,mem3.2.3.bmp,ACC014,"[3, 0, 3]","[3, -3, 3]","[3, 0, 3]",match,1.7113248654051871,,0.9391028588173602,1.8526965650473404,-1.387226602716482,4th,4th,1st,1.246506742103388,1.3015565369962456,-1.1481450661360848
mem,resp,642,1,mem2.2.1.bmp,mem3.1.1.bmp,mem1.2.1.bmp,ACC014,"[0, 0, -3]","[3, -3, -3]","[-3, 0, -3]",non-match,1.0658276410372842,3,-0.5832883563142883,-0.4550577303195758,-1.1557751818516862,2nd,2nd,1st,-0.3382235761636551,-0.34091273526856736,-1.1481450661360848
mem,resp,909,1,mem1.1.1.bmp,mem2.2.2.bmp,mem1.1.1.bmp,ACC014,"[-3, -3, -3]","[0, 0, 0]","[-3, -3, -3]",match,1.5,,-0.3200100048216025,2.203495745095633,-1.4845609182194537,2nd,4th,1st,-0.3382235761636551,1.3015565369962456,-1.1481450661360848
mem,resp,735,1,mem1.1.2.bmp,mem1.2.3.bmp,mem1.1.2.bmp,ACC014,"[-3, -3, 0]","[-3, 0, 3]","[-3, -3, 0]",match,1.591751709536137,,0.0693599063107372,1.3755088632443637,-2.1006111961966507,3rd,4th,1st,0.3108733748523669,1.3015565369962456,-1.1481450661360848
mem,resp,976,1,mem1.3.3.bmp,mem2.1.2.bmp,mem1.2.2.bmp,ACC014,"[-3, 3, 3]","[0, -3, 0]","[-3, 0, 0]",non-match,1.1835034190722742,4,-0.8522985186852493,-0.4329316965063661,-1.4201147649745058,1st,2nd,1st,-1.215170984704249,-0.34091273526856736,-1.1481450661360848
mem,resp,714,1,mem3.1.1.bmp,mem3.2.2.bmp,mem3.1.1.bmp,ACC014,"[3, -3, -3]","[3, 0, 0]","[3, -3, -3]",match,1.591751709536137,,0.6652586751441827,0.9035673132921679,-1.0021461477417564,4th,4th,1st,1.246506742103388,1.3015565369962456,-1.1481450661360848
mem,resp,667,1,mem2.3.3.bmp,mem2.3.1.bmp,mem1.1.1.bmp,ACC014,"[0, 3, 3]","[0, 3, -3]","[-3, -3, -3]",non-match,0.4884773718476586,1,0.2718589983994258,0.639875346126333,-0.6014135185731244,3rd,4th,2nd,0.3108733748523669,1.3015565369962456,-0.46522959857733326
mem,resp,954,1,mem2.2.3.bmp,mem2.1.3.bmp,mem2.1.1.bmp,ACC014,"[0, 0, 3]","[0, -3, 3]","[0, -3, -3]",non-match,0.7771525064424715,2,-0.689552748576159,0.42813032047811805,-0.448129519491242,1st,3rd,2nd,-1.215170984704249,0.21943320848702125,-0.46522959857733326
mem,resp,700,0,mem1.3.2.bmp,mem3.3.3.bmp,mem3.2.3.bmp,ACC014,"[-3, 3, 0]","[3, 3, 3]","[3, 0, 3]",non-match,1.0042180842186395,3,-0.4663406250335992,0.020187640524251222,-0.22977742612212232,2nd,3rd,2nd,-0.3382235761636551,0.21943320848702125,-0.46522959857733326
mem,resp,605,1,mem2.2.2.bmp,mem3.2.1.bmp,mem1.2.1.bmp,ACC014,"[0, 0, 0]","[3, 0, -3]","[-3, 0, -3]",non-match,1.0144014403465114,3,1.157500368269349,-0.3444650252308663,-0.5679187090986926,4th,2nd,2nd,1.246506742103388,-0.34091273526856736,-0.46522959857733326
mem,resp,661,1,mem3.1.2.bmp,mem3.1.3.bmp,mem3.1.3.bmp,ACC014,"[3, -3, 0]","[3, -3, 3]","[3, -3, 3]",match,1.7113248654051871,,0.14050638608111393,1.2068740008032026,-0.7043778044188401,3rd,4th,2nd,0.3108733748523669,1.3015565369962456,-0.46522959857733326
mem,resp,846,1,mem2.1.2.bmp,mem3.3.2.bmp,mem2.1.2.bmp,ACC014,"[0, -3, 0]","[3, 3, 0]","[0, -3, 0]",match,1.3545027756320973,,0.27838085166960747,-1.2910258136209176,-0.15904524188100502,3rd,1st,3rd,0.3108733748523669,-1.1772637639520467,0.2331260290961714
mem,resp,732,0,mem3.1.1.bmp,mem1.3.3.bmp,mem1.3.2.bmp,ACC014,"[3, -3, -3]","[-3, 3, 3]","[-3, 3, 0]",non-match,0.8452994616207485,2,-0.33419928111340824,0.44933200384563826,-0.2484603843405064,2nd,3rd,2nd,-0.3382235761636551,0.21943320848702125,-0.46522959857733326
mem,resp,726,1,mem3.2.1.bmp,mem2.1.1.bmp,mem3.2.2.bmp,ACC014,"[3, 0, -3]","[0, -3, -3]","[3, 0, 0]",non-match,1.2113248654051871,4,-0.7135238818520796,-0.7955380941594592,-0.4456003807274821,1st,1st,2nd,-1.215170984704249,-1.1772637639520467,-0.46522959857733326
mem,resp,923,1,mem1.3.1.bmp,mem1.2.2.bmp,mem1.2.3.bmp,ACC014,"[-3, 3, -3]","[-3, 0, 0]","[-3, 0, 3]",non-match,1.0658276410372842,3,-0.5973695834883853,-0.41007741555469035,-0.22654571791768321,1st,2nd,2nd,-1.215170984704249,-0.34091273526856736,-0.46522959857733326
mem,resp,670,1,mem3.1.3.bmp,mem1.2.1.bmp,mem2.3.3.bmp,ACC014,"[3, -3, 3]","[-3, 0, -3]","[0, 3, 3]",non-match,0.6473959944455496,1,-1.2879526685958762,-0.3279778876433258,0.026977161600280464,1st,2nd,3rd,-1.215170984704249,-0.34091273526856736,0.2331260290961714
mem,resp,674,1,mem3.3.3.bmp,mem1.1.2.bmp,mem3.3.2.bmp,ACC014,"[3, 3, 3]","[-3, -3, 0]","[3, 3, 0]",non-match,0.8948282844774612,2,-0.6042995289663544,0.28807497564054907,-0.06942521265575531,1st,3rd,3rd,-1.215170984704249,0.21943320848702125,0.2331260290961714
mem,resp,829,1,mem2.3.2.bmp,mem1.1.3.bmp,mem3.1.1.bmp,ACC014,"[0, 3, 0]","[-3, -3, 3]","[3, -3, -3]",non-match,0.4763966378857265,1,-0.17148486244140604,-0.376838084233709,0.022041176975927352,2nd,2nd,3rd,-0.3382235761636551,-0.34091273526856736,0.2331260290961714
mem,resp,684,1,mem1.2.3.bmp,mem2.2.1.bmp,mem1.3.3.bmp,ACC014,"[-3, 0, 3]","[0, 0, -3]","[-3, 3, 3]",non-match,1.0042180842186395,3,-0.5027122428189718,0.9403313057922572,0.7273928394493598,2nd,4th,4th,-0.3382235761636551,1.3015565369962456,1.383237430862071
mem,resp,518,1,mem3.2.3.bmp,mem3.3.1.bmp,mem3.2.3.bmp,ACC014,"[3, 0, 3]","[3, 3, -3]","[3, 0, 3]",match,1.3545027756320973,,-0.5378086920671166,-0.9571232757354422,0.40094774058042826,2nd,1st,3rd,-0.3382235761636551,-1.1772637639520467,0.2331260290961714
mem,resp,913,1,mem1.1.3.bmp,mem1.1.1.bmp,mem1.3.3.bmp,ACC014,"[-3, -3, 3]","[-3, -3, -3]","[-3, 3, 3]",non-match,0.6061531498826483,1,-0.48568668597619824,0.009062990296073596,-0.31491821734961206,2nd,3rd,2nd,-0.3382235761636551,0.21943320848702125,-0.46522959857733326
mem,resp,619,1,mem2.3.3.bmp,mem1.3.1.bmp,mem3.1.3.bmp,ACC014,"[0, 3, 3]","[-3, 3, -3]","[3, -3, 3]",non-match,0.3545027756320972,1,1.9552409371368775,1.1554945758035644,-0.520423198128084,4th,4th,2nd,1.246506742103388,1.3015565369962456,-0.46522959857733326
mem,resp,752,1,mem2.1.2.bmp,mem2.2.2.bmp,mem1.2.1.bmp,ACC014,"[0, -3, 0]","[0, 0, 0]","[-3, 0, -3]",non-match,1.091751709536137,4,-0.6839313486721005,-1.0437523897109078,-0.2015689932363777,1st,1st,2nd,-1.215170984704249,-1.1772637639520467,-0.46522959857733326
mem,resp,626,1,mem2.3.2.bmp,mem2.2.1.bmp,mem1.2.3.bmp,ACC014,"[0, 3, 0]","[0, 0, -3]","[-3, 0, 3]",non-match,0.8545027756320972,2,0.6729608858642376,0.1526432353173913,-0.07988179767576596,4th,3rd,3rd,1.246506742103388,0.21943320848702125,0.2331260290961714
mem,resp,652,1,mem3.3.2.bmp,mem1.3.3.bmp,mem3.2.1.bmp,ACC014,"[3, 3, 0]","[-3, 3, 3]","[3, 0, -3]",non-match,0.7257263057516985,2,1.0624456363253578,-0.1295494835290509,0.040247829068098276,4th,2nd,3rd,1.246506742103388,-0.34091273526856736,0.2331260290961714
mem,resp,633,1,mem1.2.2.bmp,mem3.3.1.bmp,mem2.1.3.bmp,ACC014,"[-3, 0, 0]","[3, 3, -3]","[0, -3, 3]",non-match,0.6339745962155614,1,0.5627080540211409,0.7451238477106497,0.14096161307903285,3rd,4th,3rd,0.3108733748523669,1.3015565369962456,0.2331260290961714
mem,resp,628,0,mem1.1.1.bmp,mem3.1.2.bmp,mem3.1.2.bmp,ACC014,"[-3, -3, -3]","[3, -3, 0]","[3, -3, 0]",match,1.3545027756320973,,-0.18554264362852196,-0.9446910908722912,-0.10963294504165201,2nd,1st,3rd,-0.3382235761636551,-1.1772637639520467,0.2331260290961714
mem,resp,923,1,mem1.3.1.bmp,mem2.2.3.bmp,mem2.2.2.bmp,ACC014,"[-3, 3, -3]","[0, 0, 3]","[0, 0, 0]",non-match,1.2113248654051871,4,-0.7045884036428303,-1.0063506730797995,0.13947019487893328,1st,1st,3rd,-1.215170984704249,-1.1772637639520467,0.2331260290961714
mem,resp,761,1,mem3.2.3.bmp,mem1.2.3.bmp,mem1.2.3.bmp,ACC014,"[3, 0, 3]","[-3, 0, 3]","[-3, 0, 3]",match,1.4226497308103743,,0.4780864284679138,-0.8891307875784965,0.8981264450075199,3rd,1st,4th,0.3108733748523669,-1.1772637639520467,1.383237430862071
mem,resp,876,1,mem2.1.3.bmp,mem3.2.2.bmp,mem2.1.3.bmp,ACC014,"[0, -3, 3]","[3, 0, 0]","[0, -3, 3]",match,1.5,,-0.4280236210631041,-0.33380410375569464,1.404042343710377,2nd,2nd,4th,-0.3382235761636551,-0.34091273526856736,1.383237430862071
mem,resp,791,0,mem1.3.3.bmp,mem2.3.1.bmp,mem3.1.2.bmp,ACC014,"[-3, 3, 3]","[0, 3, -3]","[3, -3, 0]",non-match,0.42686781502901383,1,-1.4497504527016098,-0.9486578210088942,1.5263312786264913,1st,1st,4th,-1.215170984704249,-1.1772637639520467,1.383237430862071
mem,resp,789,1,mem2.1.1.bmp,mem1.2.1.bmp,mem2.1.1.bmp,ACC014,"[0, -3, -3]","[-3, 0, -3]","[0, -3, -3]",match,1.591751709536137,,0.15681403584904088,-0.6583683120932994,1.2208087010024449,3rd,2nd,4th,0.3108733748523669,-0.34091273526856736,1.383237430862071
mem,resp,854,1,mem2.2.2.bmp,mem3.2.1.bmp,mem2.2.2.bmp,ACC014,"[0, 0, 0]","[3, 0, -3]","[0, 0, 0]",match,1.591751709536137,,-0.14108675924500108,-1.3718658617677644,1.3869881328378206,2nd,1st,4th,-0.3382235761636551,-1.1772637639520467,1.383237430862071
mem,resp,747,1,mem1.2.3.bmp,mem1.1.2.bmp,mem1.3.2.bmp,ACC014,"[-3, 0, 3]","[-3, -3, 0]","[-3, 3, 0]",non-match,1.0144014403465114,3,-0.1329584970464373,0.30017076147272204,0.783733358509085,2nd,3rd,4th,-0.3382235761636551,0.21943320848702125,1.383237430862071
mem,resp,633,1,mem2.2.1.bmp,mem1.2.2.bmp,mem1.2.2.bmp,ACC014,"[0, 0, -3]","[-3, 0, 0]","[-3, 0, 0]",match,1.591751709536137,,0.6748345293669371,1.425226608483521,0.859804872633504,4th,4th,4th,1.246506742103388,1.3015565369962456,1.383237430862071
mem,resp,992,1,mem3.3.3.bmp,mem3.1.3.bmp,mem3.1.3.bmp,ACC014,"[3, 3, 3]","[3, -3, 3]","[3, -3, 3]",match,1.4226497308103743,,-1.0712121642602417,-0.2788335742869925,0.7146000377391232,1st,2nd,4th,-1.215170984704249,-0.34091273526856736,1.383237430862071
mem,resp,685,1,mem2.2.3.bmp,mem3.1.1.bmp,mem3.1.1.bmp,ACC014,"[0, 0, 3]","[3, -3, -3]","[3, -3, -3]",match,1.2928932188134525,,1.5693967201015602,1.76485076807573,0.852017680892278,4th,4th,4th,1.246506742103388,1.3015565369962456,1.383237430862071
mem,resp,578,1,mem3.2.1.bmp,mem3.3.2.bmp,mem1.2.3.bmp,ACC014,"[3, 0, -3]","[3, 3, 0]","[-3, 0, 3]",non-match,0.4763966378857265,1,1.9930163516924784,0.23117251191454324,1.226829785252817,4th,3rd,4th,1.246506742103388,0.21943320848702125,1.383237430862071
mem,resp,795,1,mem1.2.1.bmp,mem2.1.2.bmp,mem2.3.2.bmp,ACC014,"[-3, 0, -3]","[0, -3, 0]","[0, 3, 0]",non-match,0.9226497308103743,2,0.13755692378409634,-1.0363341338150749,1.297576143659775,3rd,1st,4th,0.3108733748523669,-1.1772637639520467,1.383237430862071
mem,resp,750,1,mem1.3.2.bmp,mem2.1.1.bmp,mem2.1.1.bmp,ACC014,"[-3, 3, 0]","[0, -3, -3]","[0, -3, -3]",match,1.2928932188134525,,-0.3633672279093349,0.5881616731374777,1.0344225550617652,2nd,4th,4th,-0.3382235761636551,1.3015565369962456,1.383237430862071
mem,resp,626,1,mem3.1.2.bmp,mem3.2.3.bmp,mem3.1.2.bmp,ACC014,"[3, -3, 0]","[3, 0, 3]","[3, -3, 0]",match,1.591751709536137,,0.7509235832707695,2.114998421475037,0.6304785689060527,4th,4th,3rd,1.246506742103388,1.3015565369962456,0.2331260290961714
mem,resp,881,0,mem1.1.2.bmp,mem2.1.3.bmp,mem2.1.3.bmp,ACC014,"[-3, -3, 0]","[0, -3, 3]","[0, -3, 3]",match,1.591751709536137,,-1.2823645500991758,-0.7986313220875589,0.9234942444371449,1st,1st,4th,-1.215170984704249,-1.1772637639520467,1.383237430862071
mem,resp,766,0,mem3.2.2.bmp,mem3.3.3.bmp,mem3.2.2.bmp,ACC014,"[3, 0, 0]","[3, 3, 3]","[3, 0, 0]",match,1.591751709536137,,-1.108668258598822,-0.6715146129455689,0.631440560065609,1st,2nd,3rd,-1.215170984704249,-0.34091273526856736,0.2331260290961714
mem,resp,742,1,mem3.1.3.bmp,mem1.2.1.bmp,mem3.2.1.bmp,ACC014,"[3, -3, 3]","[-3, 0, -3]","[3, 0, -3]",non-match,0.7771525064424715,2,1.4905645974253938,0.8194767572262275,0.852093818832595,4th,4th,4th,1.246506742103388,1.3015565369962456,1.383237430862071
mem,resp,677,1,mem3.1.1.bmp,mem1.2.2.bmp,mem3.3.2.bmp,ACC014,"[3, -3, -3]","[-3, 0, 0]","[3, 3, 0]",non-match,0.7090055512641944,2,-0.5257320143793519,1.4711732190084386,0.9911776967469488,2nd,4th,4th,-0.3382235761636551,1.3015565369962456,1.383237430862071
mem,resp,712,1,mem3.3.1.bmp,mem1.1.2.bmp,mem2.3.2.bmp,ACC014,"[3, 3, -3]","[-3, -3, 0]","[0, 3, 0]",non-match,0.9462544851682343,2,-0.7872286104335605,0.49627143964564246,1.0495303371806002,1st,3rd,4th,-1.215170984704249,0.21943320848702125,1.383237430862071
mem,resp,705,1,mem2.3.1.bmp,mem1.3.3.bmp,mem2.1.3.bmp,ACC014,"[0, 3, -3]","[-3, 3, 3]","[0, -3, 3]",non-match,0.5380061947043713,1,-0.22272889511003724,0.7244464210212476,0.9582741411430231,2nd,4th,4th,-0.3382235761636551,1.3015565369962456,1.383237430862071
mem,resp,629,1,mem2.3.3.bmp,mem3.1.2.bmp,mem1.3.1.bmp,ACC014,"[0, 3, 3]","[3, -3, 0]","[-3, 3, -3]",non-match,0.4884773718476586,1,-0.10809197698094822,-0.06591151053731399,1.286479477168264,2nd,2nd,4th,-0.3382235761636551,-0.34091273526856736,1.383237430862071
mem,resp,814,1,mem1.3.2.bmp,mem2.2.2.bmp,mem2.2.3.bmp,ACC014,"[-3, 3, 0]","[0, 0, 0]","[0, 0, 3]",non-match,1.2113248654051871,4,1.0698197210803966,0.24680174234634836,1.7550520503213192,4th,3rd,4th,1.246506742103388,0.21943320848702125,1.383237430862071
mem,resp,668,1,mem3.1.3.bmp,mem3.2.3.bmp,mem3.2.3.bmp,ACC014,"[3, -3, 3]","[3, 0, 3]","[3, 0, 3]",match,1.7113248654051871,,1.5316593668170149,0.8620683401153669,1.465898947467835,4th,4th,4th,1.246506742103388,1.3015565369962456,1.383237430862071
mem,resp,1127,1,mem3.3.3.bmp,mem1.3.1.bmp,mem3.3.3.bmp,ACC014,"[3, 3, 3]","[-3, 3, -3]","[3, 3, 3]",match,1.1835034190722742,,-0.13361768140078709,-1.1782250342888172,1.4724824879776321,2nd,1st,4th,-0.3382235761636551,-1.1772637639520467,1.383237430862071
mem,resp,885,1,mem1.2.3.bmp,mem3.3.1.bmp,mem3.3.1.bmp,ACC014,"[-3, 0, 3]","[3, 3, -3]","[3, 3, -3]",match,1.1339745962155614,,-0.028665168925213792,0.025558313792537913,1.7096614078786967,3rd,3rd,4th,0.3108733748523669,0.21943320848702125,1.383237430862071
mem,resp,516,1,mem2.2.1.bmp,mem3.2.1.bmp,mem2.2.1.bmp,ACC014,"[0, 0, -3]","[3, 0, -3]","[0, 0, -3]",match,1.7113248654051871,,0.5392172524744832,-0.27759564975345624,2.22319584415615,3rd,2nd,4th,0.3108733748523669,-0.34091273526856736,1.383237430862071
mem,resp,509,1,mem1.3.3.bmp,mem2.3.3.bmp,mem2.1.1.bmp,ACC014,"[-3, 3, 3]","[0, 3, 3]","[0, -3, -3]",non-match,0.3174780152878355,1,1.2655895084291502,0.8785805731901207,2.084240512351136,4th,4th,4th,1.246506742103388,1.3015565369962456,1.383237430862071
mem,resp,674,0,mem2.3.2.bmp,mem3.1.1.bmp,mem3.2.2.bmp,ACC014,"[0, 3, 0]","[3, -3, -3]","[3, 0, 0]",non-match,1.1835034190722742,4,-0.04263217441218105,-1.1806832567636802,2.3024312374244484,3rd,1st,4th,0.3108733748523669,-1.1772637639520467,1.383237430862071
mem,resp,588,1,mem1.2.2.bmp,mem2.2.3.bmp,mem1.2.2.bmp,ACC014,"[-3, 0, 0]","[0, 0, 3]","[-3, 0, 0]",match,1.591751709536137,,1.4763612399321113,0.9518025127486188,2.0397072352898604,4th,4th,4th,1.246506742103388,1.3015565369962456,1.383237430862071
mem,resp,573,1,mem3.1.2.bmp,mem1.1.1.bmp,mem1.1.1.bmp,ACC014,"[3, -3, 0]","[-3, -3, -3]","[-3, -3, -3]",match,1.3545027756320973,,-0.21804037735355097,0.4295146353537321,1.6038629775310214,2nd,3rd,4th,-0.3382235761636551,0.21943320848702125,1.383237430862071
mem,resp,768,0,mem2.2.2.bmp,mem1.3.2.bmp,mem1.3.2.bmp,ACC014,"[0, 0, 0]","[-3, 3, 0]","[-3, 3, 0]",match,1.591751709536137,,-2.644740902235795,-2.0807392691673776,1.651011083939712,1st,1st,4th,-1.215170984704249,-1.1772637639520467,1.383237430862071
mem,resp,621,0,mem2.1.2.bmp,mem3.2.2.bmp,mem2.1.3.bmp,ACC014,"[0, -3, 0]","[3, 0, 0]","[0, -3, 3]",non-match,1.2113248654051871,4,2.295897269754094,0.9955987985263173,1.7146316758098226,4th,4th,4th,1.246506742103388,1.3015565369962456,1.383237430862071
mem,resp,746,1,mem2.1.3.bmp,mem3.1.1.bmp,mem3.1.1.bmp,ACC014,"[0, -3, 3]","[3, -3, -3]","[3, -3, -3]",match,1.3545027756320973,,1.0812915972014125,-0.8805600214323926,0.8840094546488619,4th,1st,4th,1.246506742103388,-1.1772637639520467,1.383237430862071
mem,resp,649,1,mem3.1.2.bmp,mem2.1.1.bmp,mem2.1.1.bmp,ACC014,"[3, -3, 0]","[0, -3, -3]","[0, -3, -3]",match,1.591751709536137,,-0.7310844467350971,-0.28477678317070343,1.458813528573618,1st,2nd,4th,-1.215170984704249,-0.34091273526856736,1.383237430862071
mem,resp,593,0,mem3.2.1.bmp,mem1.2.2.bmp,mem1.1.2.bmp,ACC014,"[3, 0, -3]","[-3, 0, 0]","[-3, -3, 0]",non-match,1.0042180842186395,3,1.190716378734014,-0.3840810003504287,1.4110860528609044,4th,2nd,4th,1.246506742103388,-0.34091273526856736,1.383237430862071
mem,resp,1210,0,mem2.1.2.bmp,mem1.3.3.bmp,mem2.1.2.bmp,ACC014,"[0, -3, 0]","[-3, 3, 3]","[0, -3, 0]",match,1.2928932188134525,,-0.7449930251954827,-0.30404019865795523,1.6067955728491785,1st,2nd,4th,-1.215170984704249,-0.34091273526856736,1.383237430862071
mem,resp,808,1,mem3.2.2.bmp,mem3.1.3.bmp,mem3.1.1.bmp,ACC014,"[3, 0, 0]","[3, -3, 3]","[3, -3, -3]",non-match,1.0144014403465114,3,-1.0989764129569686,-0.3032624775589831,1.923261481857977,1st,2nd,4th,-1.215170984704249,-0.34091273526856736,1.383237430862071
mem,resp,865,1,mem1.3.2.bmp,mem1.2.3.bmp,mem1.2.3.bmp,ACC014,"[-3, 3, 0]","[-3, 0, 3]","[-3, 0, 3]",match,1.591751709536137,,-0.8331304552493825,-0.013083956423147733,1.8572983362895723,1st,3rd,4th,-1.215170984704249,0.21943320848702125,1.383237430862071
mem,resp,672,1,mem2.1.1.bmp,mem3.3.2.bmp,mem3.3.2.bmp,ACC014,"[0, -3, -3]","[3, 3, 0]","[3, 3, 0]",match,1.2928932188134525,,-0.2506002473538565,0.004947688900051978,1.643588287016214,2nd,3rd,4th,-0.3382235761636551,0.21943320848702125,1.383237430862071
mem,resp,737,1,mem2.3.2.bmp,mem3.2.3.bmp,mem3.1.2.bmp,ACC014,"[0, 3, 0]","[3, 0, 3]","[3, -3, 0]",non-match,0.9462544851682343,2,0.6144769863361434,0.044634947153531446,1.435269836998413,3rd,3rd,4th,0.3108733748523669,0.21943320848702125,1.383237430862071
mem,resp,703,1,mem1.1.2.bmp,mem1.1.3.bmp,mem1.1.3.bmp,ACC014,"[-3, -3, 0]","[-3, -3, 3]","[-3, -3, 3]",match,1.7113248654051871,,-0.14146874345660526,0.23792218220520137,1.9889378350954472,2nd,3rd,4th,-0.3382235761636551,0.21943320848702125,1.383237430862071
mem,resp,598,1,mem2.3.3.bmp,mem2.1.3.bmp,mem2.3.3.bmp,ACC014,"[0, 3, 3]","[0, -3, 3]","[0, 3, 3]",match,1.4226497308103743,,1.0112162661669184,1.6473827360068145,1.7241383702987434,4th,4th,4th,1.246506742103388,1.3015565369962456,1.383237430862071
mem,resp,671,1,mem3.3.2.bmp,mem1.3.2.bmp,mem1.2.1.bmp,ACC014,"[3, 3, 0]","[-3, 3, 0]","[-3, 0, -3]",non-match,0.8846449283495895,2,0.7859135163945505,-0.035884102823834634,1.6110059031997754,4th,2nd,4th,1.246506742103388,-0.34091273526856736,1.383237430862071
mem,resp,534,1,mem2.2.2.bmp,mem2.2.3.bmp,mem2.2.3.bmp,ACC014,"[0, 0, 0]","[0, 0, 3]","[0, 0, 3]",match,1.7113248654051871,,0.35781735168147893,3.074703270048857,1.5369750147562882,3rd,4th,4th,0.3108733748523669,1.3015565369962456,1.383237430862071
mem,resp,1083,1,mem1.2.2.bmp,mem3.2.1.bmp,mem1.2.2.bmp,ACC014,"[-3, 0, 0]","[3, 0, -3]","[-3, 0, 0]",match,1.3545027756320973,,-0.5913328062627504,-0.8781071168107721,1.9148488495776876,2nd,1st,4th,-0.3382235761636551,-1.1772637639520467,1.383237430862071
mem,resp,879,1,mem3.3.1.bmp,mem1.3.1.bmp,mem1.3.1.bmp,ACC014,"[3, 3, -3]","[-3, 3, -3]","[-3, 3, -3]",match,1.4226497308103743,,-1.6109979712027407,1.0185051824895404,2.2758248451291303,1st,4th,4th,-1.215170984704249,1.3015565369962456,1.383237430862071
mem,resp,956,1,mem3.2.3.bmp,mem3.1.2.bmp,mem3.2.3.bmp,ACC014,"[3, 0, 3]","[3, -3, 0]","[3, 0, 3]",match,1.591751709536137,,-1.0728734048009816,0.6296286794436612,1.788692725298965,1st,4th,4th,-1.215170984704249,1.3015565369962456,1.383237430862071
mem,resp,975,0,mem3.1.1.bmp,mem3.3.3.bmp,mem3.1.1.bmp,ACC014,"[3, -3, -3]","[3, 3, 3]","[3, -3, -3]",match,1.1835034190722742,,0.4913941347117044,0.03953040555202507,1.388649754155954,3rd,3rd,4th,0.3108733748523669,0.21943320848702125,1.383237430862071
mem,resp,789,1,mem1.2.1.bmp,mem1.1.1.bmp,mem1.2.3.bmp,ACC014,"[-3, 0, -3]","[-3, -3, -3]","[-3, 0, 3]",non-match,0.7771525064424715,2,1.2115733369653252,-0.6482355311216477,0.7341101557659301,4th,2nd,4th,1.246506742103388,-0.34091273526856736,1.383237430862071
mem,resp,958,1,mem2.3.1.bmp,mem1.1.2.bmp,mem1.1.2.bmp,ACC014,"[0, 3, -3]","[-3, -3, 0]","[-3, -3, 0]",match,1.2928932188134525,,-2.515104827514078,-0.22053968529732842,0.9114305525380529,1st,2nd,4th,-1.215170984704249,-0.34091273526856736,1.383237430862071
mem,resp,700,1,mem3.1.3.bmp,mem3.3.1.bmp,mem3.1.3.bmp,ACC014,"[3, -3, 3]","[3, 3, -3]","[3, -3, 3]",match,1.1835034190722742,,0.43598632481966887,1.428200184713657,0.670958844648577,3rd,4th,3rd,0.3108733748523669,1.3015565369962456,0.2331260290961714
mem,resp,835,1,mem2.2.1.bmp,mem2.3.3.bmp,mem1.3.1.bmp,ACC014,"[0, 0, -3]","[0, 3, 3]","[-3, 3, -3]",non-match,0.9462544851682343,2,0.019079541249759878,-0.517728989293161,0.6273537980837459,3rd,2nd,3rd,0.3108733748523669,-0.34091273526856736,0.2331260290961714
mem,resp,661,0,mem3.3.3.bmp,mem2.2.2.bmp,mem3.3.3.bmp,ACC014,"[3, 3, 3]","[0, 0, 0]","[3, 3, 3]",match,1.5,,-0.08802127298489684,0.4728120586963262,0.45535052743389837,2nd,3rd,3rd,-0.3382235761636551,0.21943320848702125,0.2331260290961714
mem,resp,584,1,mem1.1.1.bmp,mem1.2.1.bmp,mem3.2.3.bmp,ACC014,"[-3, -3, -3]","[-3, 0, -3]","[3, 0, 3]",non-match,0.3174780152878355,1,1.903350127479822,0.9428317723372629,0.028015536528395314,4th,4th,3rd,1.246506742103388,1.3015565369962456,0.2331260290961714
mem,resp,917,1,mem1.2.3.bmp,mem3.3.1.bmp,mem3.3.1.bmp,ACC014,"[-3, 0, 3]","[3, 3, -3]","[3, 3, -3]",match,1.1339745962155614,,0.12982585321975929,1.8349064936641484,-0.002449692269319525,3rd,4th,3rd,0.3108733748523669,1.3015565369962456,0.2331260290961714
mem,resp,599,1,mem1.1.3.bmp,mem3.3.2.bmp,mem1.1.3.bmp,ACC014,"[-3, -3, 3]","[3, 3, 0]","[-3, -3, 3]",match,1.1339745962155614,,0.5278902718577564,-1.2695410292571678,0.11121340303849792,3rd,1st,3rd,0.3108733748523669,-1.1772637639520467,0.2331260290961714
mem,resp,515,1,mem1.3.1.bmp,mem1.2.2.bmp,mem1.2.2.bmp,ACC014,"[-3, 3, -3]","[-3, 0, 0]","[-3, 0, 0]",match,1.591751709536137,,0.4852182365286003,-0.19814507001977621,-0.07567835982388854,3rd,2nd,3rd,0.3108733748523669,-0.34091273526856736,0.2331260290961714
mem,resp,568,1,mem2.2.3.bmp,mem2.1.1.bmp,mem2.2.3.bmp,ACC014,"[0, 0, 3]","[0, -3, -3]","[0, 0, 3]",match,1.3545027756320973,,0.30766235559066424,1.8231232063989422,-0.023911360145711682,3rd,4th,3rd,0.3108733748523669,1.3015565369962456,0.2331260290961714
mem,resp,1035,1,mem1.3.3.bmp,mem2.3.1.bmp,mem1.3.2.bmp,ACC014,"[-3, 3, 3]","[0, 3, -3]","[-3, 3, 0]",non-match,1.3030765749413242,4,-0.5265010824326462,0.38140312079854655,-0.22439113319753118,2nd,3rd,2nd,-0.3382235761636551,0.21943320848702125,-0.46522959857733326
mem,resp,658,1,mem1.3.3.bmp,mem1.1.1.bmp,mem1.1.1.bmp,ACC014,"[-3, 3, 3]","[-3, -3, -3]","[-3, -3, -3]",match,1.1835034190722742,,0.46488142046324527,1.149508824093911,-0.326158268298555,3rd,4th,2nd,0.3108733748523669,1.3015565369962456,-0.46522959857733326
mem,resp,572,1,mem2.3.2.bmp,mem3.2.1.bmp,mem2.3.3.bmp,ACC014,"[0, 3, 0]","[3, 0, -3]","[0, 3, 3]",non-match,1.0042180842186395,3,0.9348896681789035,-0.8169771688857846,-0.176805688929163,4th,1st,2nd,1.246506742103388,-1.1772637639520467,-0.46522959857733326
mem,resp,929,1,mem1.3.1.bmp,mem3.1.1.bmp,mem1.1.3.bmp,ACC014,"[-3, 3, -3]","[3, -3, -3]","[-3, -3, 3]",non-match,0.36700683814454815,1,-0.23646499343361982,-0.9969978837512014,-0.1750043278385423,2nd,1st,3rd,-0.3382235761636551,-1.1772637639520467,0.2331260290961714
mem,resp,762,1,mem2.2.1.bmp,mem2.1.2.bmp,mem3.3.1.bmp,ACC014,"[0, 0, -3]","[0, -3, 0]","[3, 3, -3]",non-match,0.8846449283495895,2,-0.4256800267582809,-0.830276163827515,-0.03582416406105128,2nd,1st,3rd,-0.3382235761636551,-1.1772637639520467,0.2331260290961714
mem,resp,628,1,mem3.2.2.bmp,mem1.1.2.bmp,mem2.3.1.bmp,ACC014,"[3, 0, 0]","[-3, -3, 0]","[0, 3, -3]",non-match,0.7928932188134524,2,1.957614602408491,2.7709507193816645,0.46937543298954243,4th,4th,3rd,1.246506742103388,1.3015565369962456,0.2331260290961714
mem,resp,1003,1,mem3.3.2.bmp,mem1.2.3.bmp,mem1.2.3.bmp,ACC014,"[3, 3, 0]","[-3, 0, 3]","[-3, 0, 3]",match,1.2928932188134525,,-0.32893039255871453,0.21473843335711082,0.4905000713689288,2nd,3rd,3rd,-0.3382235761636551,0.21943320848702125,0.2331260290961714
mem,resp,1050,0,mem2.2.2.bmp,mem3.3.3.bmp,mem2.2.2.bmp,ACC014,"[0, 0, 0]","[3, 3, 3]","[0, 0, 0]",match,1.5,,-0.03023464048605306,0.06513574941387965,0.17664514340217613,3rd,3rd,3rd,0.3108733748523669,0.21943320848702125,0.2331260290961714
mem,resp,766,1,mem1.2.1.bmp,mem2.1.3.bmp,mem1.1.1.bmp,ACC014,"[-3, 0, -3]","[0, -3, 3]","[-3, -3, -3]",non-match,1.0658276410372842,3,0.11321083029136116,0.6780406825826465,0.5043069092963807,3rd,4th,3rd,0.3108733748523669,1.3015565369962456,0.2331260290961714
mem,resp,588,1,mem3.2.3.bmp,mem3.1.2.bmp,mem1.3.1.bmp,ACC014,"[3, 0, 3]","[3, -3, 0]","[-3, 3, -3]",non-match,0.2679491924311228,1,0.6146451989913679,0.31467571407737144,0.228086485945998,3rd,3rd,3rd,0.3108733748523669,0.21943320848702125,0.2331260290961714
mem,resp,571,1,mem3.2.1.bmp,mem3.1.3.bmp,mem3.1.3.bmp,ACC014,"[3, 0, -3]","[3, -3, 3]","[3, -3, 3]",match,1.3545027756320973,,0.6108443070509104,0.5308884534634748,0.09509728610460316,3rd,3rd,3rd,0.3108733748523669,0.21943320848702125,0.2331260290961714
mem,resp,595,1,mem1.2.2.bmp,mem2.2.3.bmp,mem2.2.1.bmp,ACC014,"[-3, 0, 0]","[0, 0, 3]","[0, 0, -3]",non-match,1.0144014403465114,3,1.3372747843511912,-0.55411398018517,0.8909256475504232,4th,2nd,4th,1.246506742103388,-0.34091273526856736,1.383237430862071
mem,resp,626,1,mem2.1.2.bmp,mem1.3.2.bmp,mem1.1.2.bmp,ACC014,"[0, -3, 0]","[-3, 3, 0]","[-3, -3, 0]",non-match,1.1339745962155614,4,-0.7311665105430212,-0.9646656049150808,0.7851886282090668,1st,1st,4th,-1.215170984704249,-1.1772637639520467,1.383237430862071
mem,resp,604,1,mem2.3.2.bmp,mem2.2.1.bmp,mem2.3.2.bmp,ACC014,"[0, 3, 0]","[0, 0, -3]","[0, 3, 0]",match,1.591751709536137,,-4.969880501322841,-3.4983729451450842,0.3489228840655415,1st,1st,3rd,-1.215170984704249,-1.1772637639520467,0.2331260290961714
mem,resp,858,1,mem3.2.3.bmp,mem1.2.3.bmp,mem3.2.3.bmp,ACC014,"[3, 0, 3]","[-3, 0, 3]","[3, 0, 3]",match,1.4226497308103743,,-0.47480724235999755,-1.9136551453875332,-0.02041262284370423,2nd,1st,3rd,-0.3382235761636551,-1.1772637639520467,0.2331260290961714
mem,resp,591,1,mem1.1.1.bmp,mem2.2.3.bmp,mem1.1.1.bmp,ACC014,"[-3, -3, -3]","[0, 0, 3]","[-3, -3, -3]",match,1.2928932188134525,,-0.003279793612477416,-2.297070950706419,0.6441443213257817,3rd,1st,3rd,0.3108733748523669,-1.1772637639520467,0.2331260290961714
mem,resp,564,0,mem1.3.3.bmp,mem3.2.2.bmp,mem2.2.2.bmp,ACC014,"[-3, 3, 3]","[3, 0, 0]","[0, 0, 0]",non-match,1.2113248654051871,4,-0.015358929167677483,-0.7411713202872968,0.5515052329219039,3rd,1st,3rd,0.3108733748523669,-1.1772637639520467,0.2331260290961714
mem,resp,1181,1,mem1.1.3.bmp,mem2.3.2.bmp,mem2.1.1.bmp,ACC014,"[-3, -3, 3]","[0, 3, 0]","[0, -3, -3]",non-match,0.7090055512641944,2,-1.816578947181195,-1.0323246815990494,0.2160360823784493,1st,1st,3rd,-1.215170984704249,-1.1772637639520467,0.2331260290961714
mem,resp,495,1,mem2.1.2.bmp,mem2.3.1.bmp,mem2.3.1.bmp,ACC014,"[0, -3, 0]","[0, 3, -3]","[0, 3, -3]",match,1.3545027756320973,,0.31090288821033035,-0.7040516291315384,0.2370287642044251,3rd,1st,3rd,0.3108733748523669,-1.1772637639520467,0.2331260290961714
mem,resp,608,1,mem2.1.3.bmp,mem3.1.3.bmp,mem3.3.3.bmp,ACC014,"[0, -3, 3]","[3, -3, 3]","[3, 3, 3]",non-match,0.7771525064424715,2,1.026258486087414,0.5593783443270187,0.22793987701971363,4th,3rd,3rd,1.246506742103388,0.21943320848702125,0.2331260290961714
mem,resp,601,1,mem3.1.2.bmp,mem1.1.1.bmp,mem1.2.3.bmp,ACC014,"[3, -3, 0]","[-3, -3, -3]","[-3, 0, 3]",non-match,0.6473959944455496,1,0.3397345779249183,0.7775265432888679,-0.074027623231045,3rd,4th,3rd,0.3108733748523669,1.3015565369962456,0.2331260290961714
mem,resp,735,1,mem1.1.2.bmp,mem3.2.1.bmp,mem2.2.1.bmp,ACC014,"[-3, -3, 0]","[3, 0, -3]","[0, 0, -3]",non-match,1.2113248654051871,4,0.10845789692728028,0.30894713136049434,0.10156241843380966,3rd,3rd,3rd,0.3108733748523669,0.21943320848702125,0.2331260290961714
mem,resp,832,1,mem2.2.2.bmp,mem1.3.3.bmp,mem1.3.3.bmp,ACC014,"[0, 0, 0]","[-3, 3, 3]","[-3, 3, 3]",match,1.5,,-0.6122096453203082,-0.14274845502888814,-0.35333309412994873,1st,2nd,2nd,-1.215170984704249,-0.34091273526856736,-0.46522959857733326
mem,resp,665,1,mem1.3.1.bmp,mem1.1.3.bmp,mem2.1.1.bmp,ACC014,"[-3, 3, -3]","[-3, -3, 3]","[0, -3, -3]",non-match,0.7090055512641944,2,0.45465563224939,0.18260073417363298,-0.4389903356056652,3rd,3rd,2nd,0.3108733748523669,0.21943320848702125,-0.46522959857733326
mem,resp,873,1,mem2.2.3.bmp,mem3.3.1.bmp,mem2.3.2.bmp,ACC014,"[0, 0, 3]","[3, 3, -3]","[0, 3, 0]",non-match,1.1835034190722742,4,-0.7084728986684341,-0.8015602044499915,-0.30631751356012976,1st,1st,2nd,-1.215170984704249,-1.1772637639520467,-0.46522959857733326
mem,resp,798,1,mem1.2.2.bmp,mem1.2.1.bmp,mem1.2.1.bmp,ACC014,"[-3, 0, 0]","[-3, 0, -3]","[-3, 0, -3]",match,1.7113248654051871,,0.935846602387651,-0.0952143159330883,0.6524768860543827,4th,2nd,3rd,1.246506742103388,-0.34091273526856736,0.2331260290961714
mem,resp,813,1,mem3.2.2.bmp,mem1.1.2.bmp,mem3.2.3.bmp,ACC014,"[3, 0, 0]","[-3, -3, 0]","[3, 0, 3]",non-match,1.0042180842186395,3,0.7284003924591985,-0.7220499930585998,0.3246064207003708,4th,1st,3rd,1.246506742103388,-1.1772637639520467,0.2331260290961714
mem,resp,545,1,mem1.3.2.bmp,mem2.3.3.bmp,mem3.3.2.bmp,ACC014,"[-3, 3, 0]","[0, 3, 3]","[3, 3, 0]",non-match,1.0144014403465114,3,0.8437079927559761,0.8330503684994631,0.46927295910142053,4th,4th,3rd,1.246506742103388,1.3015565369962456,0.2331260290961714
mem,resp,897,1,mem3.3.1.bmp,mem1.3.1.bmp,mem1.3.1.bmp,ACC014,"[3, 3, -3]","[-3, 3, -3]","[-3, 3, -3]",match,1.4226497308103743,,-0.9986690449568687,0.15576105084784375,-0.2405452087975006,1st,3rd,2nd,-1.215170984704249,0.21943320848702125,-0.46522959857733326
mem,resp,712,0,mem3.3.3.bmp,mem3.1.2.bmp,mem3.1.2.bmp,ACC014,"[3, 3, 3]","[3, -3, 0]","[3, -3, 0]",match,1.3545027756320973,,0.11701406532859301,0.9734445024144125,-0.37211211075974393,3rd,4th,2nd,0.3108733748523669,1.3015565369962456,-0.46522959857733326
mem,resp,706,1,mem3.1.1.bmp,mem2.1.2.bmp,mem1.1.3.bmp,ACC014,"[3, -3, -3]","[0, -3, 0]","[-3, -3, 3]",non-match,0.7752551286084112,2,1.0162249499480454,-0.4195036390589678,-0.4380389273896365,4th,2nd,2nd,1.246506742103388,-0.34091273526856736,-0.46522959857733326
mem,resp,791,0,mem2.2.1.bmp,mem2.2.2.bmp,mem2.2.1.bmp,ACC014,"[0, 0, -3]","[0, 0, 0]","[0, 0, -3]",match,1.7113248654051871,,-1.4241143341353513,-1.244624078510038,-0.6792786678657466,1st,1st,2nd,-1.215170984704249,-1.1772637639520467,-0.46522959857733326
mem,resp,950,1,mem3.2.1.bmp,mem3.3.2.bmp,mem3.2.1.bmp,ACC014,"[3, 0, -3]","[3, 3, 0]","[3, 0, -3]",match,1.591751709536137,,-1.635571851903598,-1.3314692526801784,-0.46395943293004643,1st,1st,2nd,-1.215170984704249,-1.1772637639520467,-0.46522959857733326
mem,resp,684,1,mem2.3.1.bmp,mem3.2.3.bmp,mem2.1.3.bmp,ACC014,"[0, 3, -3]","[3, 0, 3]","[0, -3, 3]",non-match,0.7752551286084112,2,1.5876308368281096,0.1751785048256585,-0.7477849846382933,4th,3rd,1st,1.246506742103388,0.21943320848702125,-1.1481450661360848
mem,resp,779,0,mem1.2.3.bmp,mem2.1.1.bmp,mem2.1.1.bmp,ACC014,"[-3, 0, 3]","[0, -3, -3]","[0, -3, -3]",match,1.2928932188134525,,-0.6006144919848198,-0.48172679420789455,-0.5690876321844763,1st,2nd,2nd,-1.215170984704249,-0.34091273526856736,-0.46522959857733326
mem,resp,652,1,mem1.2.1.bmp,mem1.3.2.bmp,mem1.2.1.bmp,ACC014,"[-3, 0, -3]","[-3, 3, 0]","[-3, 0, -3]",match,1.591751709536137,,0.33222585075089156,1.4514936964427263,-1.0088868679039853,3rd,4th,1st,0.3108733748523669,1.3015565369962456,-1.1481450661360848
mem,resp,780,1,mem2.3.3.bmp,mem1.3.1.bmp,mem2.2.3.bmp,ACC014,"[0, 3, 3]","[-3, 3, -3]","[0, 0, 3]",non-match,1.0042180842186395,3,-0.8494441550488,-1.5784601581677686,-1.4234835926551894,1st,1st,1st,-1.215170984704249,-1.1772637639520467,-1.1481450661360848
mem,resp,915,1,mem3.3.2.bmp,mem2.2.1.bmp,mem3.3.3.bmp,ACC014,"[3, 3, 0]","[0, 0, -3]","[3, 3, 3]",non-match,1.0042180842186395,3,-0.4651420587267433,-0.7549891046760023,-1.1860109883743468,2nd,1st,1st,-0.3382235761636551,-1.1772637639520467,-1.1481450661360848
mem,resp,1123,0,mem2.1.1.bmp,mem1.1.3.bmp,mem1.2.3.bmp,ACC014,"[0, -3, -3]","[-3, -3, 3]","[-3, 0, 3]",non-match,1.0042180842186395,3,0.14290786445271647,-1.0627597416018442,-1.3144331826268567,3rd,1st,1st,0.3108733748523669,-1.1772637639520467,-1.1481450661360848
mem,resp,636,1,mem3.1.3.bmp,mem3.1.1.bmp,mem3.1.3.bmp,ACC014,"[3, -3, 3]","[3, -3, -3]","[3, -3, 3]",match,1.4226497308103743,,1.9248559131136662,1.4751007822596407,-1.0267822629719758,4th,4th,1st,1.246506742103388,1.3015565369962456,-1.1481450661360848
mem,resp,975,0,mem3.2.2.bmp,mem2.2.2.bmp,mem2.2.3.bmp,ACC014,"[3, 0, 0]","[0, 0, 0]","[0, 0, 3]",non-match,1.3030765749413242,4,-1.4525770580572537,-1.2938891788363758,-0.8539732994564858,1st,1st,1st,-1.215170984704249,-1.1772637639520467,-1.1481450661360848
mem,resp,608,1,mem2.2.1.bmp,mem3.2.3.bmp,mem1.2.2.bmp,ACC014,"[0, 0, -3]","[3, 0, 3]","[-3, 0, 0]",non-match,0.9462544851682343,2,1.3118795407466675,-0.6246565582255276,-0.6882516333100486,4th,2nd,2nd,1.246506742103388,-0.34091273526856736,-0.46522959857733326
mem,resp,721,1,mem2.1.3.bmp,mem2.3.1.bmp,mem2.3.1.bmp,ACC014,"[0, -3, 3]","[0, 3, -3]","[0, 3, -3]",match,1.1835034190722742,,-1.1846450637798707,-0.5545709869326723,-0.7122318882268839,1st,2nd,2nd,-1.215170984704249,-0.34091273526856736,-0.46522959857733326
mem,resp,676,1,mem2.1.1.bmp,mem2.3.2.bmp,mem3.1.3.bmp,ACC014,"[0, -3, -3]","[0, 3, 0]","[3, -3, 3]",non-match,0.6473959944455496,1,-0.14649616122716574,-0.17023858948278173,-0.92229477310114,2nd,2nd,1st,-0.3382235761636551,-0.34091273526856736,-1.1481450661360848
mem,resp,1104,1,mem3.2.1.bmp,mem2.1.2.bmp,mem2.1.2.bmp,ACC014,"[3, 0, -3]","[0, -3, 0]","[0, -3, 0]",match,1.5,,-0.6343091087339792,-0.03503521809326464,-0.9759350820057057,1st,3rd,1st,-1.215170984704249,0.21943320848702125,-1.1481450661360848
mem,resp,697,1,mem3.1.1.bmp,mem2.2.3.bmp,mem2.2.3.bmp,ACC014,"[3, -3, -3]","[0, 0, 3]","[0, 0, 3]",match,1.2928932188134525,,1.8068594326321512,0.769544565073716,-0.8039832166623816,4th,4th,1st,1.246506742103388,1.3015565369962456,-1.1481450661360848
mem,resp,691,1,mem3.1.2.bmp,mem1.2.2.bmp,mem3.1.2.bmp,ACC014,"[3, -3, 0]","[-3, 0, 0]","[3, -3, 0]",match,1.3545027756320973,,0.7069138078851961,0.059915051557272336,-0.4307841780042822,4th,3rd,2nd,1.246506742103388,0.21943320848702125,-0.46522959857733326
mem,resp,868,1,mem2.3.2.bmp,mem3.2.2.bmp,mem2.3.2.bmp,ACC014,"[0, 3, 0]","[3, 0, 0]","[0, 3, 0]",match,1.591751709536137,,0.4175820602914762,2.554749750974087,-0.2008804704990693,3rd,4th,2nd,0.3108733748523669,1.3015565369962456,-0.46522959857733326
mem,resp,723,1,mem1.3.3.bmp,mem3.2.1.bmp,mem2.2.1.bmp,ACC014,"[-3, 3, 3]","[3, 0, -3]","[0, 0, -3]",non-match,1.0042180842186395,3,-1.8217617973536595,-0.9211029760486861,0.21120675350951051,1st,1st,3rd,-1.215170984704249,-1.1772637639520467,0.2331260290961714
mem,resp,614,1,mem2.2.3.bmp,mem1.1.2.bmp,mem1.1.2.bmp,ACC014,"[0, 0, 3]","[-3, -3, 0]","[-3, -3, 0]",match,1.5,,1.0108941053196954,0.28113708919579117,0.05306606681014345,4th,3rd,3rd,1.246506742103388,0.21943320848702125,0.2331260290961714
mem,resp,742,1,mem1.1.3.bmp,mem2.3.3.bmp,mem1.2.3.bmp,ACC014,"[-3, -3, 3]","[0, 3, 3]","[-3, 0, 3]",non-match,1.3030765749413242,4,-0.8275709618782748,0.7773003851481479,0.5022622307219746,1st,4th,3rd,-1.215170984704249,1.3015565369962456,0.2331260290961714
mem,resp,483,1,mem1.2.2.bmp,mem3.3.1.bmp,mem1.2.2.bmp,ACC014,"[-3, 0, 0]","[3, 3, -3]","[-3, 0, 0]",match,1.2928932188134525,,-0.5558757474095167,0.7234707443290906,0.4933753453331091,2nd,4th,3rd,-0.3382235761636551,1.3015565369962456,0.2331260290961714
mem,resp,824,1,mem1.2.1.bmp,mem1.3.3.bmp,mem2.2.1.bmp,ACC014,"[-3, 0, -3]","[-3, 3, 3]","[0, 0, -3]",non-match,1.0042180842186395,3,-0.7294115359551941,-1.1880461532097437,0.5748724083942321,1st,1st,3rd,-1.215170984704249,-1.1772637639520467,0.2331260290961714
mem,resp,736,1,mem2.1.3.bmp,mem1.1.1.bmp,mem2.1.3.bmp,ACC014,"[0, -3, 3]","[-3, -3, -3]","[0, -3, 3]",match,1.3545027756320973,,0.4457257129412355,1.3516134183291348,0.643857071914083,3rd,4th,3rd,0.3108733748523669,1.3015565369962456,0.2331260290961714
mem,resp,559,1,mem3.1.2.bmp,mem3.1.1.bmp,mem1.1.2.bmp,ACC014,"[3, -3, 0]","[3, -3, -3]","[-3, -3, 0]",non-match,0.7771525064424715,2,1.613955149388247,-0.19663217064777405,0.689294929717964,4th,2nd,3rd,1.246506742103388,-0.34091273526856736,0.2331260290961714
mem,resp,814,0,mem2.2.2.bmp,mem3.3.2.bmp,mem1.2.1.bmp,ACC014,"[0, 0, 0]","[3, 3, 0]","[-3, 0, -3]",non-match,0.8846449283495895,2,-1.4282089547816743,-1.5571810074212673,0.8159884363687242,1st,1st,4th,-1.215170984704249,-1.1772637639520467,1.383237430862071
mem,resp,727,1,mem3.3.3.bmp,mem1.1.3.bmp,mem3.3.1.bmp,ACC014,"[3, 3, 3]","[-3, -3, 3]","[3, 3, -3]",non-match,0.42264973081037427,1,0.2670883240789771,-0.4483445082365374,0.6414686606133346,3rd,2nd,3rd,0.3108733748523669,-0.34091273526856736,0.2331260290961714
mem,resp,651,1,mem2.1.2.bmp,mem2.3.3.bmp,mem2.3.3.bmp,ACC014,"[0, -3, 0]","[0, 3, 3]","[0, 3, 3]",match,1.3545027756320973,,0.5119594049153701,-0.809051864645923,0.6354525589684126,3rd,1st,3rd,0.3108733748523669,-1.1772637639520467,0.2331260290961714
mem,resp,656,1,mem2.2.3.bmp,mem2.2.1.bmp,mem3.1.2.bmp,ACC014,"[0, 0, 3]","[0, 0, -3]","[3, -3, 0]",non-match,1.0,3,-0.41424107057667203,0.27896603079604043,0.6956375326127419,2nd,3rd,3rd,-0.3382235761636551,0.21943320848702125,0.2331260290961714
mem,resp,658,1,mem2.3.2.bmp,mem2.3.1.bmp,mem1.3.1.bmp,ACC014,"[0, 3, 0]","[0, 3, -3]","[-3, 3, -3]",non-match,1.3030765749413242,4,1.2263936835736646,0.39961766442260266,-0.05366507618983335,4th,3rd,3rd,1.246506742103388,0.21943320848702125,0.2331260290961714
mem,resp,763,1,mem1.3.2.bmp,mem3.2.1.bmp,mem1.3.2.bmp,ACC014,"[-3, 3, 0]","[3, 0, -3]","[-3, 3, 0]",match,1.2928932188134525,,1.0136521177332678,-0.9291499037747921,0.03598024878915971,4th,1st,3rd,1.246506742103388,-1.1772637639520467,0.2331260290961714
mem,resp,749,0,mem3.3.1.bmp,mem2.1.3.bmp,mem1.1.1.bmp,ACC014,"[3, 3, -3]","[0, -3, 3]","[-3, -3, -3]",non-match,0.5380061947043713,1,0.39057706069839443,0.7025427810256761,0.21059156533404147,3rd,4th,3rd,0.3108733748523669,1.3015565369962456,0.2331260290961714
mem,resp,814,1,mem1.3.3.bmp,mem1.2.2.bmp,mem1.2.2.bmp,ACC014,"[-3, 3, 3]","[-3, 0, 0]","[-3, 0, 0]",match,1.591751709536137,,0.25501972981362653,-1.0324545507453784,-0.12423538618404244,3rd,1st,3rd,0.3108733748523669,-1.1772637639520467,0.2331260290961714
mem,resp,505,0,mem1.2.1.bmp,mem2.3.2.bmp,mem2.3.1.bmp,ACC014,"[-3, 0, -3]","[0, 3, 0]","[0, 3, -3]",non-match,1.3030765749413242,4,0.5670560657777036,0.11039486309147384,-0.4387623471832767,3rd,3rd,2nd,0.3108733748523669,0.21943320848702125,-0.46522959857733326
mem,resp,489,1,mem1.1.3.bmp,mem1.1.2.bmp,mem1.1.3.bmp,ACC014,"[-3, -3, 3]","[-3, -3, 0]","[-3, -3, 3]",match,1.7113248654051871,,0.38524340136809715,2.543277289243366,-0.7000406928680557,3rd,4th,2nd,0.3108733748523669,1.3015565369962456,-0.46522959857733326
mem,resp,1102,0,mem3.3.2.bmp,mem3.2.2.bmp,mem3.2.2.bmp,ACC014,"[3, 3, 0]","[3, 0, 0]","[3, 0, 0]",match,1.7113248654051871,,-0.1901650224675476,1.781475452833663,-0.28209635631711966,2nd,4th,2nd,-0.3382235761636551,1.3015565369962456,-0.46522959857733326
mem,resp,789,1,mem2.1.1.bmp,mem3.1.3.bmp,mem3.1.3.bmp,ACC014,"[0, -3, -3]","[3, -3, 3]","[3, -3, 3]",match,1.3545027756320973,,-0.0838262099795131,-0.2894238698910065,-0.792765366502497,2nd,2nd,1st,-0.3382235761636551,-0.34091273526856736,-1.1481450661360848
mem,resp,755,1,mem1.3.1.bmp,mem1.3.2.bmp,mem1.3.1.bmp,ACC014,"[-3, 3, -3]","[-3, 3, 0]","[-3, 3, -3]",match,1.7113248654051871,,0.6982963907458085,-0.44284781977174315,-0.6736220696364615,4th,2nd,2nd,1.246506742103388,-0.34091273526856736,-0.46522959857733326
mem,resp,720,0,mem1.1.1.bmp,mem3.2.3.bmp,mem2.1.3.bmp,ACC014,"[-3, -3, -3]","[3, 0, 3]","[0, -3, 3]",non-match,0.9462544851682343,2,-0.5939257068304559,1.0315209569327206,-0.48855312853222826,2nd,4th,2nd,-0.3382235761636551,1.3015565369962456,-0.46522959857733326
mem,resp,701,1,mem2.3.1.bmp,mem1.3.3.bmp,mem2.3.1.bmp,ACC014,"[0, 3, -3]","[-3, 3, 3]","[0, 3, -3]",match,1.3545027756320973,,1.101351624045577,0.685948151101239,-0.8127857474661178,4th,4th,1st,1.246506742103388,1.3015565369962456,-1.1481450661360848
mem,resp,625,1,mem3.2.1.bmp,mem2.1.1.bmp,mem3.2.1.bmp,ACC014,"[3, 0, -3]","[0, -3, -3]","[3, 0, -3]",match,1.591751709536137,,1.480606195679459,-0.074302306189402,-0.6771106909300126,4th,2nd,2nd,1.246506742103388,-0.34091273526856736,-0.46522959857733326
mem,resp,971,1,mem3.1.1.bmp,mem2.2.2.bmp,mem3.3.2.bmp,ACC014,"[3, -3, -3]","[0, 0, 0]","[3, 3, 0]",non-match,0.9462544851682343,2,-0.014605006538945434,-1.3978846687192479,-0.39827782639307013,3rd,1st,2nd,0.3108733748523669,-1.1772637639520467,-0.46522959857733326
mem,resp,774,1,mem3.1.3.bmp,mem2.1.2.bmp,mem3.3.1.bmp,ACC014,"[3, -3, 3]","[0, -3, 0]","[3, 3, -3]",non-match,0.4763966378857265,1,0.9165488478940449,0.11099715478459295,-0.9346862577594297,4th,3rd,1st,1.246506742103388,0.21943320848702125,-1.1481450661360848
mem,resp,758,1,mem2.3.3.bmp,mem3.3.3.bmp,mem2.3.3.bmp,ACC014,"[0, 3, 3]","[3, 3, 3]","[0, 3, 3]",match,1.7113248654051871,,-1.0589171974408758,-1.0971901824224772,-0.7798986649428059,1st,1st,1st,-1.215170984704249,-1.1772637639520467,-1.1481450661360848
mem,resp,643,1,mem1.2.3.bmp,mem2.2.3.bmp,mem3.1.2.bmp,ACC014,"[-3, 0, 3]","[0, 0, 3]","[3, -3, 0]",non-match,0.7928932188134524,2,2.338643918248576,0.24335350290092073,-0.7734717087165847,4th,3rd,1st,1.246506742103388,0.21943320848702125,-1.1481450661360848
mem,resp,676,1,mem1.2.2.bmp,mem3.3.2.bmp,mem3.3.2.bmp,ACC014,"[-3, 0, 0]","[3, 3, 0]","[3, 3, 0]",match,1.3545027756320973,,0.5868819817888459,-0.18391377772807155,-1.0610240874696593,3rd,2nd,1st,0.3108733748523669,-0.34091273526856736,-1.1481450661360848
mem,resp,729,1,mem2.2.1.bmp,mem1.3.3.bmp,mem2.2.1.bmp,ACC014,"[0, 0, -3]","[-3, 3, 3]","[0, 0, -3]",match,1.2928932188134525,,0.7367935831693181,0.3121684359001221,-0.8685596977063804,4th,3rd,1st,1.246506742103388,0.21943320848702125,-1.1481450661360848
mem,resp,683,1,mem3.2.2.bmp,mem2.3.3.bmp,mem1.1.1.bmp,ACC014,"[3, 0, 0]","[0, 3, 3]","[-3, -3, -3]",non-match,0.42686781502901383,1,2.58901397081407,1.492216860557675,-0.3612356332775019,4th,4th,2nd,1.246506742103388,1.3015565369962456,-0.46522959857733326
mem,resp,566,1,mem3.2.3.bmp,mem1.3.1.bmp,mem2.1.1.bmp,ACC014,"[3, 0, 3]","[-3, 3, -3]","[0, -3, -3]",non-match,0.6473959944455496,1,-0.5296421220494377,-0.3121489688346941,-0.337828816710726,2nd,2nd,2nd,-0.3382235761636551,-0.34091273526856736,-0.46522959857733326
mem,resp,537,1,mem1.1.2.bmp,mem1.2.2.bmp,mem2.3.2.bmp,ACC014,"[-3, -3, 0]","[-3, 0, 0]","[0, 3, 0]",non-match,0.9462544851682343,2,0.7303779863223387,0.3159748237987797,-0.042424021291618284,4th,3rd,3rd,1.246506742103388,0.21943320848702125,0.2331260290961714
mem,resp,640,1,mem1.3.2.bmp,mem2.1.3.bmp,mem3.1.1.bmp,ACC014,"[-3, 3, 0]","[0, -3, 3]","[3, -3, -3]",non-match,0.4884773718476586,1,1.9933512742068829,0.5634833087723545,0.2529127188899899,4th,4th,3rd,1.246506742103388,1.3015565369962456,0.2331260290961714
mem,resp,563,1,mem3.2.2.bmp,mem1.2.1.bmp,mem2.1.2.bmp,ACC014,"[3, 0, 0]","[-3, 0, -3]","[0, -3, 0]",non-match,1.091751709536137,4,1.536498481411763,-0.5244722064585359,0.22599780532683042,4th,2nd,3rd,1.246506742103388,-0.34091273526856736,0.2331260290961714
mem,resp,1160,0,mem1.1.1.bmp,mem2.1.1.bmp,mem2.2.3.bmp,ACC014,"[-3, -3, -3]","[0, -3, -3]","[0, 0, 3]",non-match,0.6473959944455496,1,0.9078162011571446,0.24895152933312867,0.2756593950088687,4th,3rd,3rd,1.246506742103388,0.21943320848702125,0.2331260290961714
mem,resp,926,0,mem2.2.1.bmp,mem2.3.2.bmp,mem2.2.1.bmp,ACC014,"[0, 0, -3]","[0, 3, 0]","[0, 0, -3]",match,1.591751709536137,,-2.0052995641915543,-1.929262336977406,0.24200255744459645,1st,1st,3rd,-1.215170984704249,-1.1772637639520467,0.2331260290961714
mem,resp,548,1,mem2.3.3.bmp,mem1.1.2.bmp,mem1.1.2.bmp,ACC014,"[0, 3, 3]","[-3, -3, 0]","[-3, -3, 0]",match,1.2928932188134525,,1.6993040317334007,-0.795679614781994,0.03357082688877785,4th,1st,3rd,1.246506742103388,-1.1772637639520467,0.2331260290961714
mem,resp,780,1,mem2.2.2.bmp,mem1.3.2.bmp,mem1.3.2.bmp,ACC014,"[0, 0, 0]","[-3, 3, 0]","[-3, 3, 0]",match,1.591751709536137,,-0.6692267113169487,0.2658255556818742,-0.015474656430924348,1st,3rd,3rd,-1.215170984704249,0.21943320848702125,0.2331260290961714
mem,resp,827,0,mem1.1.3.bmp,mem3.2.1.bmp,mem3.2.1.bmp,ACC014,"[-3, -3, 3]","[3, 0, -3]","[3, 0, -3]",match,1.1339745962155614,,-0.12733349069548974,-0.8112288085349372,0.020866346992134445,2nd,1st,3rd,-0.3382235761636551,-1.1772637639520467,0.2331260290961714
mem,resp,790,1,mem2.2.3.bmp,mem2.3.1.bmp,mem1.3.1.bmp,ACC014,"[0, 0, 3]","[0, 3, -3]","[-3, 3, -3]",non-match,1.0042180842186395,3,-0.4105928471742637,-0.7585380547016638,0.23073567026892625,2nd,1st,3rd,-0.3382235761636551,-1.1772637639520467,0.2331260290961714
mem,resp,686,1,mem2.3.2.bmp,mem3.3.3.bmp,mem2.1.1.bmp,ACC014,"[0, 3, 0]","[3, 3, 3]","[0, -3, -3]",non-match,0.4884773718476586,1,-1.0724098018353352,-0.08438029534730461,-0.2209083455461784,1st,2nd,2nd,-1.215170984704249,-0.34091273526856736,-0.46522959857733326
mem,resp,665,0,mem3.3.1.bmp,mem3.2.3.bmp,mem3.2.2.bmp,ACC014,"[3, 3, -3]","[3, 0, 3]","[3, 0, 0]",non-match,1.3030765749413242,4,1.3968725506150694,1.4635965329117824,-0.43838711722615675,4th,4th,2nd,1.246506742103388,1.3015565369962456,-0.46522959857733326
mem,resp,860,1,mem2.1.2.bmp,mem3.1.2.bmp,mem2.1.2.bmp,ACC014,"[0, -3, 0]","[3, -3, 0]","[0, -3, 0]",match,1.7113248654051871,,0.5673382998759351,0.08247876261771435,-0.37136210621418475,3rd,3rd,2nd,0.3108733748523669,0.21943320848702125,-0.46522959857733326
mem,resp,553,1,mem1.2.1.bmp,mem1.1.3.bmp,mem1.1.3.bmp,ACC014,"[-3, 0, -3]","[-3, -3, 3]","[-3, -3, 3]",match,1.3545027756320973,,-0.4162492754193405,1.0135644785688414,-0.3922875692413151,2nd,4th,2nd,-0.3382235761636551,1.3015565369962456,-0.46522959857733326
mem,resp,495,1,mem1.2.2.bmp,mem1.3.2.bmp,mem1.3.2.bmp,ACC014,"[-3, 0, 0]","[-3, 3, 0]","[-3, 3, 0]",match,1.7113248654051871,,1.7053932424897604,-0.2868752439110159,-0.33967284675755,4th,2nd,2nd,1.246506742103388,-0.34091273526856736,-0.46522959857733326
mem,resp,705,1,mem1.1.1.bmp,mem1.2.3.bmp,mem2.1.3.bmp,ACC014,"[-3, -3, -3]","[-3, 0, 3]","[0, -3, 3]",non-match,0.9462544851682343,2,0.3644529810745565,-0.39925594271251347,-0.11935621023010184,3rd,2nd,3rd,0.3108733748523669,-0.34091273526856736,0.2331260290961714
mem,resp,942,0,mem2.3.2.bmp,mem1.3.3.bmp,mem2.2.3.bmp,ACC014,"[0, 3, 0]","[-3, 3, 3]","[0, 0, 3]",non-match,1.1835034190722742,4,-0.5559079405376094,0.673922692384423,0.38056670441443824,2nd,4th,3rd,-0.3382235761636551,1.3015565369962456,0.2331260290961714
mem,resp,736,1,mem1.1.3.bmp,mem2.2.2.bmp,mem2.2.2.bmp,ACC014,"[-3, -3, 3]","[0, 0, 0]","[0, 0, 0]",match,1.5,,-0.15995716938254395,-0.11132442370082916,0.6475002674314196,2nd,2nd,3rd,-0.3382235761636551,-0.34091273526856736,0.2331260290961714
mem,resp,689,1,mem2.1.2.bmp,mem1.2.1.bmp,mem3.3.1.bmp,ACC014,"[0, -3, 0]","[-3, 0, -3]","[3, 3, -3]",non-match,0.6473959944455496,1,1.6218725225656359,-0.011119995544066433,0.45682327383681964,4th,3rd,3rd,1.246506742103388,0.21943320848702125,0.2331260290961714
mem,resp,564,1,mem3.2.2.bmp,mem1.1.1.bmp,mem1.1.1.bmp,ACC014,"[3, 0, 0]","[-3, -3, -3]","[-3, -3, -3]",match,1.2928932188134525,,-0.18254474380740682,-0.12113801397559165,-0.026843286796104135,2nd,2nd,3rd,-0.3382235761636551,-0.34091273526856736,0.2331260290961714
mem,resp,747,0,mem3.3.2.bmp,mem2.2.3.bmp,mem2.3.1.bmp,ACC014,"[3, 3, 0]","[0, 0, 3]","[0, 3, -3]",non-match,0.9462544851682343,2,0.042642904295931705,-1.4210246498426153,-0.2612422536009425,3rd,1st,2nd,0.3108733748523669,-1.1772637639520467,-0.46522959857733326
mem,resp,871,1,mem1.2.2.bmp,mem2.3.2.bmp,mem1.3.1.bmp,ACC014,"[-3, 0, 0]","[0, 3, 0]","[-3, 3, -3]",non-match,1.1835034190722742,4,-0.23526725527468909,-0.34971201359788806,-0.8508774421964529,2nd,2nd,1st,-0.3382235761636551,-0.34091273526856736,-1.1481450661360848
mem,resp,726,0,mem3.2.3.bmp,mem2.1.1.bmp,mem2.2.2.bmp,ACC014,"[3, 0, 3]","[0, -3, -3]","[0, 0, 0]",non-match,1.1835034190722742,4,0.5082099968972824,-0.1743133198411419,-0.956691063912262,3rd,2nd,1st,0.3108733748523669,-0.34091273526856736,-1.1481450661360848
mem,resp,1213,1,mem3.3.3.bmp,mem3.2.1.bmp,mem3.1.2.bmp,ACC014,"[3, 3, 3]","[3, 0, -3]","[3, -3, 0]",non-match,0.9462544851682343,2,-2.1661476504504114,-2.452742402660466,-1.3622933486884987,1st,1st,1st,-1.215170984704249,-1.1772637639520467,-1.1481450661360848
mem,resp,991,0,mem1.3.2.bmp,mem2.3.1.bmp,mem2.3.3.bmp,ACC014,"[-3, 3, 0]","[0, 3, -3]","[0, 3, 3]",non-match,1.0144014403465114,3,-0.22059587839449474,-0.8716743367973421,-0.8209486825119896,2nd,1st,1st,-0.3382235761636551,-1.1772637639520467,-1.1481450661360848
mem,resp,747,1,mem1.1.2.bmp,mem3.1.3.bmp,mem1.1.2.bmp,ACC014,"[-3, -3, 0]","[3, -3, 3]","[-3, -3, 0]",match,1.3545027756320973,,1.6484261581067259,1.6318406227663351,-0.6666983869371799,4th,4th,2nd,1.246506742103388,1.3015565369962456,-0.46522959857733326
mem,resp,861,1,mem1.2.3.bmp,mem3.2.2.bmp,mem3.2.2.bmp,ACC014,"[-3, 0, 3]","[3, 0, 0]","[3, 0, 0]",match,1.3545027756320973,,-0.7873013177064204,1.5074241282973373,-0.7227051717150963,1st,4th,2nd,-1.215170984704249,1.3015565369962456,-0.46522959857733326
mem,resp,684,1,mem3.1.2.bmp,mem3.1.1.bmp,mem3.3.1.bmp,ACC014,"[3, -3, 0]","[3, -3, -3]","[3, 3, -3]",non-match,0.7771525064424715,2,0.3968119380225335,1.0632936362795649,-0.7096457386947093,3rd,4th,2nd,0.3108733748523669,1.3015565369962456,-0.46522959857733326
mem,resp,537,1,mem2.2.3.bmp,mem2.3.3.bmp,mem2.3.3.bmp,ACC014,"[0, 0, 3]","[0, 3, 3]","[0, 3, 3]",match,1.7113248654051871,,1.0724491076143872,3.069486515768811,-0.9315481396011144,4th,4th,1st,1.246506742103388,1.3015565369962456,-1.1481450661360848
mem,resp,782,1,mem2.2.1.bmp,mem2.1.3.bmp,mem2.2.1.bmp,ACC014,"[0, 0, -3]","[0, -3, 3]","[0, 0, -3]",match,1.3545027756320973,,0.436272937775005,-0.3373319317462848,-1.1402014509358909,3rd,2nd,1st,0.3108733748523669,-0.34091273526856736,-1.1481450661360848
mem,resp,896,0,mem1.3.1.bmp,mem1.2.2.bmp,mem2.2.2.bmp,ACC014,"[-3, 3, -3]","[-3, 0, 0]","[0, 0, 0]",non-match,1.2113248654051871,4,-0.7411871703050006,0.27669459044743633,-1.0685837613387719,1st,3rd,1st,-1.215170984704249,0.21943320848702125,-1.1481450661360848
mem,resp,1131,0,mem1.3.3.bmp,mem2.1.2.bmp,mem3.1.3.bmp,ACC014,"[-3, 3, 3]","[0, -3, 0]","[3, -3, 3]",non-match,0.7752551286084112,2,-0.07624234764702072,1.221284068565722,-1.1846261207968227,2nd,4th,1st,-0.3382235761636551,1.3015565369962456,-1.1481450661360848
mem,resp,787,0,mem2.3.1.bmp,mem3.2.3.bmp,mem2.1.1.bmp,ACC014,"[0, 3, -3]","[3, 0, 3]","[0, -3, -3]",non-match,0.7155429496238267,2,-1.1162065553458738,-0.7160656156256272,-0.5683869379314961,1st,1st,2nd,-1.215170984704249,-1.1772637639520467,-0.46522959857733326
mem,resp,663,1,mem3.3.1.bmp,mem3.3.3.bmp,mem1.2.3.bmp,ACC014,"[3, 3, -3]","[3, 3, 3]","[-3, 0, 3]",non-match,0.4884773718476586,1,1.993999922046134,-0.9029748027264556,-0.5125501821428855,4th,1st,2nd,1.246506742103388,-1.1772637639520467,-0.46522959857733326
mem,resp,676,0,mem3.1.1.bmp,mem2.2.1.bmp,mem3.2.1.bmp,ACC014,"[3, -3, -3]","[0, 0, -3]","[3, 0, -3]",non-match,1.4226497308103743,4,-0.6964387509965296,0.13304754362920257,-0.6564249730184795,1st,3rd,2nd,-1.215170984704249,0.21943320848702125,-0.46522959857733326
mem,resp,771,1,mem1.2.1.bmp,mem3.1.2.bmp,mem3.3.2.bmp,ACC014,"[-3, 0, -3]","[3, -3, 0]","[3, 3, 0]",non-match,0.7155429496238267,2,0.39424224634518523,0.3575244062081274,-0.838512019592976,3rd,3rd,1st,0.3108733748523669,0.21943320848702125,-1.1481450661360848
mem,resp,794,1,mem2.1.3.bmp,mem1.3.1.bmp,mem2.1.3.bmp,ACC014,"[0, -3, 3]","[-3, 3, -3]","[0, -3, 3]",match,1.1339745962155614,,-1.4725092710267296,-0.49524187921987944,-0.5203016410783081,1st,2nd,2nd,-1.215170984704249,-0.34091273526856736,-0.46522959857733326
mem,resp,680,1,mem2.1.1.bmp,mem1.3.2.bmp,mem1.1.2.bmp,ACC014,"[0, -3, -3]","[-3, 3, 0]","[-3, -3, 0]",non-match,1.0144014403465114,3,-0.5278394409444747,0.5613468462942625,-0.12698337070348498,2nd,4th,3rd,-0.3382235761636551,1.3015565369962456,0.2331260290961714
mem,resp,623,1,mem3.2.1.bmp,mem3.3.3.bmp,mem1.1.1.bmp,ACC014,"[3, 0, -3]","[3, 3, 3]","[-3, -3, -3]",non-match,0.3545027756320972,1,0.7908004176488838,-0.3389572828014667,-0.5410766847742293,4th,2nd,2nd,1.246506742103388,-0.34091273526856736,-0.46522959857733326
mem,resp,887,0,mem3.1.3.bmp,mem3.3.2.bmp,mem3.3.2.bmp,ACC014,"[3, -3, 3]","[3, 3, 0]","[3, 3, 0]",match,1.3545027756320973,,-0.9637394025840014,0.42296519120034004,-0.367883002747087,1st,3rd,2nd,-1.215170984704249,0.21943320848702125,-0.46522959857733326
mem,resp,1037,1,mem2.3.3.bmp,mem3.2.2.bmp,mem3.2.3.bmp,ACC014,"[0, 3, 3]","[3, 0, 0]","[3, 0, 3]",non-match,1.3030765749413242,4,-0.5405593105837121,-0.8374942234616619,-0.3456882414009818,2nd,1st,2nd,-0.3382235761636551,-1.1772637639520467,-0.46522959857733326
mem,resp,668,1,mem2.2.2.bmp,mem1.1.2.bmp,mem1.1.2.bmp,ACC014,"[0, 0, 0]","[-3, -3, 0]","[-3, -3, 0]",match,1.591751709536137,,1.0491794591873782,-0.00614493470634881,-0.595666367573446,4th,3rd,2nd,1.246506742103388,0.21943320848702125,-0.46522959857733326
mem,resp,602,1,mem1.2.2.bmp,mem2.2.3.bmp,mem2.2.3.bmp,ACC014,"[-3, 0, 0]","[0, 0, 3]","[0, 0, 3]",match,1.591751709536137,,0.06829088400367855,2.4768282631767784,-0.6949062999691259,3rd,4th,2nd,0.3108733748523669,1.3015565369962456,-0.46522959857733326
mem,resp,725,1,mem1.3.3.bmp,mem1.3.1.bmp,mem3.2.1.bmp,ACC014,"[-3, 3, 3]","[-3, 3, -3]","[3, 0, -3]",non-match,0.4884773718476586,1,1.6308667524996032,0.3885765463161496,-0.7309224857966836,4th,3rd,2nd,1.246506742103388,0.21943320848702125,-0.46522959857733326
mem,resp,638,0,mem2.3.3.bmp,mem2.3.2.bmp,mem1.3.2.bmp,ACC014,"[0, 3, 3]","[0, 3, 0]","[-3, 3, 0]",non-match,1.3030765749413242,4,-0.11295893480674542,2.1041886001090666,-0.9023507507142147,2nd,4th,1st,-0.3382235761636551,1.3015565369962456,-1.1481450661360848
mem,resp,945,0,mem2.2.2.bmp,mem2.1.3.bmp,mem2.2.2.bmp,ACC014,"[0, 0, 0]","[0, -3, 3]","[0, 0, 0]",match,1.591751709536137,,-1.1419117283653377,-0.9014265605432948,-0.563064919693017,1st,1st,2nd,-1.215170984704249,-1.1772637639520467,-0.46522959857733326
mem,resp,888,0,mem1.1.1.bmp,mem3.2.3.bmp,mem2.1.2.bmp,ACC014,"[-3, -3, -3]","[3, 0, 3]","[0, -3, 0]",non-match,1.091751709536137,4,0.7386574649225323,3.0513625549033625,-0.18770890891193137,4th,4th,2nd,1.246506742103388,1.3015565369962456,-0.46522959857733326
mem,resp,532,1,mem2.2.3.bmp,mem3.1.3.bmp,mem3.1.3.bmp,ACC014,"[0, 0, 3]","[3, -3, 3]","[3, -3, 3]",match,1.591751709536137,,0.5189935241066251,-0.023451977711844273,-0.2053415994206254,3rd,3rd,2nd,0.3108733748523669,0.21943320848702125,-0.46522959857733326
mem,resp,849,1,mem3.2.2.bmp,mem1.3.2.bmp,mem1.3.3.bmp,ACC014,"[3, 0, 0]","[-3, 3, 0]","[-3, 3, 3]",non-match,1.0042180842186395,3,-1.3419366889733537,-0.9959029138680405,-0.052781169348027096,1st,1st,3rd,-1.215170984704249,-1.1772637639520467,0.2331260290961714
mem,resp,691,1,mem3.1.2.bmp,mem2.3.1.bmp,mem3.1.2.bmp,ACC014,"[3, -3, 0]","[0, 3, -3]","[3, -3, 0]",match,1.2928932188134525,,0.5690120746548998,-0.609595352196563,-0.9095355430086153,3rd,2nd,1st,0.3108733748523669,-0.34091273526856736,-1.1481450661360848
mem,resp,786,1,mem1.2.3.bmp,mem3.1.1.bmp,mem1.3.1.bmp,ACC014,"[-3, 0, 3]","[3, -3, -3]","[-3, 3, -3]",non-match,0.5380061947043713,1,-0.42120356780526486,-1.177492574693569,-1.6932756724342726,2nd,1st,1st,-0.3382235761636551,-1.1772637639520467,-1.1481450661360848
mem,resp,740,1,mem3.3.2.bmp,mem1.1.3.bmp,mem2.1.1.bmp,ACC014,"[3, 3, 0]","[-3, -3, 3]","[0, -3, -3]",non-match,0.6473959944455496,1,0.9881858014055739,-0.6701521072433667,-1.7273056440225973,4th,2nd,1st,1.246506742103388,-0.34091273526856736,-1.1481450661360848
mem,resp,935,1,mem1.2.1.bmp,mem2.1.2.bmp,mem2.2.3.bmp,ACC014,"[-3, 0, -3]","[0, -3, 0]","[0, 0, 3]",non-match,0.9462544851682343,2,-0.5204740426265246,-1.0691780319589668,-1.9650568702449056,2nd,1st,1st,-0.3382235761636551,-1.1772637639520467,-1.1481450661360848
mem,resp,1013,0,mem2.2.1.bmp,mem1.2.2.bmp,mem3.2.2.bmp,ACC014,"[0, 0, -3]","[-3, 0, 0]","[3, 0, 0]",non-match,1.0144014403465114,3,-0.8283270101080612,-1.2389908287689917,-2.6965789539483676,1st,1st,1st,-1.215170984704249,-1.1772637639520467,-1.1481450661360848
mem,resp,1234,0,mem2.1.3.bmp,mem1.1.1.bmp,mem2.1.3.bmp,ACC015,"[0, -3, 3]","[-3, -3, -3]","[0, -3, 3]",match,1.3545027756320973,,-0.9898447079751692,-0.2731974715554659,-1.1658085847696968,1st,2nd,1st,-1.2718801764532661,-0.3843457589774647,-1.209324600757658
mem,resp,936,1,mem3.1.2.bmp,mem3.1.1.bmp,mem1.1.2.bmp,ACC015,"[3, -3, 0]","[3, -3, -3]","[-3, -3, 0]",non-match,0.7771525064424715,2,-1.2119512726398407,-1.1332024977988076,-1.6745648671170468,1st,1st,1st,-1.2718801764532661,-1.2024579749957074,-1.209324600757658
mem,resp,1188,0,mem2.2.2.bmp,mem3.3.2.bmp,mem1.2.1.bmp,ACC015,"[0, 0, 0]","[3, 3, 0]","[-3, 0, -3]",non-match,0.8846449283495895,2,-1.272280248633764,-1.2094900684972276,-1.7611146984149277,1st,1st,1st,-1.2718801764532661,-1.2024579749957074,-1.209324600757658
mem,resp,1090,0,mem3.3.3.bmp,mem1.1.3.bmp,mem3.3.1.bmp,ACC015,"[3, 3, 3]","[-3, -3, 3]","[3, 3, -3]",non-match,0.42264973081037427,1,-3.502087319520415,-0.20539550511676521,-1.7781230033953401,1st,2nd,1st,-1.2718801764532661,-0.3843457589774647,-1.209324600757658
mem,resp,1012,1,mem2.1.2.bmp,mem2.3.3.bmp,mem2.3.3.bmp,ACC015,"[0, -3, 0]","[0, 3, 3]","[0, 3, 3]",match,1.3545027756320973,,-1.0600164551810813,-0.9651440711847976,-1.964242524285253,1st,1st,1st,-1.2718801764532661,-1.2024579749957074,-1.209324600757658
mem,resp,1206,1,mem2.2.3.bmp,mem2.2.1.bmp,mem3.1.2.bmp,ACC015,"[0, 0, 3]","[0, 0, -3]","[3, -3, 0]",non-match,1.0,3,-0.2556907776051703,0.4807545913177036,-1.8257770863844458,2nd,3rd,1st,-0.3042535782081131,0.253852332995441,-1.209324600757658
mem,resp,1050,1,mem2.3.2.bmp,mem2.3.1.bmp,mem1.3.1.bmp,ACC015,"[0, 3, 0]","[0, 3, -3]","[-3, 3, -3]",non-match,1.3030765749413242,4,-2.4060476542241926,-1.2112003826833164,-1.4881570246412346,1st,1st,1st,-1.2718801764532661,-1.2024579749957074,-1.209324600757658
mem,resp,768,1,mem1.3.2.bmp,mem3.2.1.bmp,mem1.3.2.bmp,ACC015,"[-3, 3, 0]","[3, 0, -3]","[-3, 3, 0]",match,1.2928932188134525,,-0.11376415945635984,-1.3557110587034176,-1.1158375163073897,2nd,1st,1st,-0.3042535782081131,-1.2024579749957074,-1.209324600757658
mem,resp,825,1,mem3.3.1.bmp,mem2.1.3.bmp,mem1.1.1.bmp,ACC015,"[3, 3, -3]","[0, -3, 3]","[-3, -3, -3]",non-match,0.5380061947043713,1,-1.039466450059821,0.4829409200594046,-1.016752355488057,1st,3rd,1st,-1.2718801764532661,0.253852332995441,-1.209324600757658
mem,resp,1036,1,mem1.3.3.bmp,mem1.2.2.bmp,mem1.2.2.bmp,ACC015,"[-3, 3, 3]","[-3, 0, 0]","[-3, 0, 0]",match,1.591751709536137,,-2.368599631453813,-0.6281374193359991,-1.2145695356599915,1st,2nd,1st,-1.2718801764532661,-0.3843457589774647,-1.209324600757658
mem,resp,1004,1,mem1.2.1.bmp,mem2.3.2.bmp,mem2.3.1.bmp,ACC015,"[-3, 0, -3]","[0, 3, 0]","[0, 3, -3]",non-match,1.3030765749413242,4,-0.9454418120363015,0.25257647338869926,-1.1841832256136557,1st,3rd,1st,-1.2718801764532661,0.253852332995441,-1.209324600757658
mem,resp,911,1,mem1.1.3.bmp,mem1.1.2.bmp,mem1.1.3.bmp,ACC015,"[-3, -3, 3]","[-3, -3, 0]","[-3, -3, 3]",match,1.7113248654051871,,-0.6930882514229711,-0.8740147719969834,-1.1044509953979893,1st,1st,1st,-1.2718801764532661,-1.2024579749957074,-1.209324600757658
mem,resp,1021,1,mem3.3.2.bmp,mem3.2.2.bmp,mem3.2.2.bmp,ACC015,"[3, 3, 0]","[3, 0, 0]","[3, 0, 0]",match,1.7113248654051871,,1.2337781402644228,0.15239552603463238,-1.0443760097973436,4th,3rd,1st,1.2467389823999189,0.253852332995441,-1.209324600757658
mem,resp,1243,1,mem2.1.1.bmp,mem3.1.3.bmp,mem3.1.3.bmp,ACC015,"[0, -3, -3]","[3, -3, 3]","[3, -3, 3]",match,1.3545027756320973,,-0.04764867970565548,-0.8744065251923555,-0.7660931845998453,2nd,1st,1st,-0.3042535782081131,-1.2024579749957074,-1.209324600757658
mem,resp,992,1,mem1.3.1.bmp,mem1.3.2.bmp,mem1.3.1.bmp,ACC015,"[-3, 3, -3]","[-3, 3, 0]","[-3, 3, -3]",match,1.7113248654051871,,-2.5143916096845254,-2.5301490209949353,-0.8836902250364574,1st,1st,1st,-1.2718801764532661,-1.2024579749957074,-1.209324600757658
mem,resp,920,1,mem1.1.1.bmp,mem3.2.3.bmp,mem2.1.3.bmp,ACC015,"[-3, -3, -3]","[3, 0, 3]","[0, -3, 3]",non-match,0.9462544851682343,3,-0.5904548615191353,-0.6345526507773206,-1.1266730717589004,2nd,2nd,1st,-0.3042535782081131,-0.3843457589774647,-1.209324600757658
mem,resp,574,1,mem2.3.1.bmp,mem1.3.3.bmp,mem2.3.1.bmp,ACC015,"[0, 3, -3]","[-3, 3, 3]","[0, 3, -3]",match,1.3545027756320973,,-0.8271899502036434,-0.9011270148936891,-0.8358651397402103,1st,1st,1st,-1.2718801764532661,-1.2024579749957074,-1.209324600757658
mem,resp,731,1,mem3.2.1.bmp,mem2.1.1.bmp,mem3.2.1.bmp,ACC015,"[3, 0, -3]","[0, -3, -3]","[3, 0, -3]",match,1.591751709536137,,-1.1517313299332899,-1.3332678993148837,-1.3467144714880557,1st,1st,1st,-1.2718801764532661,-1.2024579749957074,-1.209324600757658
mem,resp,808,0,mem3.1.1.bmp,mem2.2.2.bmp,mem3.3.2.bmp,ACC015,"[3, -3, -3]","[0, 0, 0]","[3, 3, 0]",non-match,0.9462544851682343,3,-0.19780405736885875,-0.8739924052907581,-1.4596936679233283,2nd,1st,1st,-0.3042535782081131,-1.2024579749957074,-1.209324600757658
mem,resp,581,1,mem3.1.3.bmp,mem2.1.2.bmp,mem3.3.1.bmp,ACC015,"[3, -3, 3]","[0, -3, 0]","[3, 3, -3]",non-match,0.4763966378857265,1,0.3393202791499756,-1.9640117015594427,-1.4166426672838779,3rd,1st,1st,0.32972128127514033,-1.2024579749957074,-1.209324600757658
mem,resp,534,1,mem2.3.3.bmp,mem3.3.3.bmp,mem2.3.3.bmp,ACC015,"[0, 3, 3]","[3, 3, 3]","[0, 3, 3]",match,1.7113248654051871,,-0.21377372585822704,-0.8805925818539753,-1.4743121331045768,2nd,1st,1st,-0.3042535782081131,-1.2024579749957074,-1.209324600757658
mem,resp,731,1,mem1.2.3.bmp,mem2.2.3.bmp,mem3.1.2.bmp,ACC015,"[-3, 0, 3]","[0, 0, 3]","[3, -3, 0]",non-match,0.7928932188134524,2,-0.610880824491653,-1.201940994497495,-1.4377977050487147,2nd,1st,1st,-0.3042535782081131,-1.2024579749957074,-1.209324600757658
mem,resp,554,1,mem1.2.2.bmp,mem3.3.2.bmp,mem3.3.2.bmp,ACC015,"[-3, 0, 0]","[3, 3, 0]","[3, 3, 0]",match,1.3545027756320973,,-0.23004515756008598,0.026621290372243925,-1.6610704312401805,2nd,3rd,1st,-0.3042535782081131,0.253852332995441,-1.209324600757658
mem,resp,799,0,mem2.2.1.bmp,mem1.3.3.bmp,mem2.2.1.bmp,ACC015,"[0, 0, -3]","[-3, 3, 3]","[0, 0, -3]",match,1.2928932188134525,,-0.054689994689729605,-0.09936485807735462,-1.5857732006715222,2nd,2nd,1st,-0.3042535782081131,-0.3843457589774647,-1.209324600757658
mem,resp,794,1,mem3.2.2.bmp,mem2.3.3.bmp,mem1.1.1.bmp,ACC015,"[3, 0, 0]","[0, 3, 3]","[-3, -3, -3]",non-match,0.42686781502901383,1,-0.3737305970630441,-1.1803101016919637,-1.2337028057968717,2nd,1st,1st,-0.3042535782081131,-1.2024579749957074,-1.209324600757658
mem,resp,520,0,mem3.2.3.bmp,mem1.3.1.bmp,mem2.1.1.bmp,ACC015,"[3, 0, 3]","[-3, 3, -3]","[0, -3, -3]",non-match,0.6473959944455496,1,0.2305616611577089,1.355866849935936,-1.4576566046056432,3rd,4th,1st,0.32972128127514033,1.3312784083369367,-1.209324600757658
mem,resp,675,1,mem1.1.2.bmp,mem1.2.2.bmp,mem2.3.2.bmp,ACC015,"[-3, -3, 0]","[-3, 0, 0]","[0, 3, 0]",non-match,0.9462544851682343,3,-1.030774125340658,-0.695099526031033,-1.3598396453658483,1st,2nd,1st,-1.2718801764532661,-0.3843457589774647,-1.209324600757658
mem,resp,830,1,mem1.3.2.bmp,mem2.1.3.bmp,mem3.1.1.bmp,ACC015,"[-3, 3, 0]","[0, -3, 3]","[3, -3, -3]",non-match,0.4884773718476586,1,0.7438537729560156,-0.248909999245349,-1.3597744800548028,3rd,2nd,1st,0.32972128127514033,-0.3843457589774647,-1.209324600757658
mem,resp,1299,1,mem3.2.2.bmp,mem1.2.1.bmp,mem2.1.2.bmp,ACC015,"[3, 0, 0]","[-3, 0, -3]","[0, -3, 0]",non-match,1.091751709536137,4,-0.06398790224935709,-0.825797996929141,-1.281423447340328,2nd,1st,1st,-0.3042535782081131,-1.2024579749957074,-1.209324600757658
mem,resp,1207,1,mem1.1.1.bmp,mem2.1.1.bmp,mem2.2.3.bmp,ACC015,"[-3, -3, -3]","[0, -3, -3]","[0, 0, 3]",non-match,0.6473959944455496,1,-0.34107271576071907,-1.9814205217387444,-1.6657647732393055,2nd,1st,1st,-0.3042535782081131,-1.2024579749957074,-1.209324600757658
mem,resp,997,1,mem2.2.1.bmp,mem2.3.2.bmp,mem2.2.1.bmp,ACC015,"[0, 0, -3]","[0, 3, 0]","[0, 0, -3]",match,1.591751709536137,,-0.23514798009349794,-0.906399722404889,-1.4569608956316895,2nd,1st,1st,-0.3042535782081131,-1.2024579749957074,-1.209324600757658
mem,resp,1044,1,mem2.3.3.bmp,mem1.1.2.bmp,mem1.1.2.bmp,ACC015,"[0, 3, 3]","[-3, -3, 0]","[-3, -3, 0]",match,1.2928932188134525,,0.09108884540104475,-1.1261760440552335,-1.3321690678878833,3rd,1st,1st,0.32972128127514033,-1.2024579749957074,-1.209324600757658
mem,resp,770,1,mem2.2.2.bmp,mem1.3.2.bmp,mem1.3.2.bmp,ACC015,"[0, 0, 0]","[-3, 3, 0]","[-3, 3, 0]",match,1.591751709536137,,-0.642153726047884,-2.0882079677768197,-0.9209541818121665,2nd,1st,1st,-0.3042535782081131,-1.2024579749957074,-1.209324600757658
mem,resp,563,1,mem1.1.3.bmp,mem3.2.1.bmp,mem3.2.1.bmp,ACC015,"[-3, -3, 3]","[3, 0, -3]","[3, 0, -3]",match,1.1339745962155614,,0.6462949096836602,-0.152843417576517,-0.7192229299744799,3rd,2nd,1st,0.32972128127514033,-0.3843457589774647,-1.209324600757658
mem,resp,787,1,mem2.2.3.bmp,mem2.3.1.bmp,mem1.3.1.bmp,ACC015,"[0, 0, 3]","[0, 3, -3]","[-3, 3, -3]",non-match,1.0042180842186395,3,-0.22673284042062639,-0.826408413223962,-0.877659543971685,2nd,1st,1st,-0.3042535782081131,-1.2024579749957074,-1.209324600757658
mem,resp,693,1,mem2.3.2.bmp,mem3.3.3.bmp,mem2.1.1.bmp,ACC015,"[0, 3, 0]","[3, 3, 3]","[0, -3, -3]",non-match,0.4884773718476586,1,-0.57902232236557,-0.7773464721968625,-0.7877590098723624,2nd,1st,1st,-0.3042535782081131,-1.2024579749957074,-1.209324600757658
mem,resp,1062,1,mem3.3.1.bmp,mem3.2.3.bmp,mem3.2.2.bmp,ACC015,"[3, 3, -3]","[3, 0, 3]","[3, 0, 0]",non-match,1.3030765749413242,4,0.4127883554193945,-1.6324847416094461,-0.6749856233387408,3rd,1st,2nd,0.32972128127514033,-1.2024579749957074,-0.3039955996531794
mem,resp,1017,0,mem2.1.2.bmp,mem3.1.2.bmp,mem2.1.2.bmp,ACC015,"[0, -3, 0]","[3, -3, 0]","[0, -3, 0]",match,1.7113248654051871,,-2.4625905759962703,-2.523117591100011,-0.7259866307347506,1st,1st,1st,-1.2718801764532661,-1.2024579749957074,-1.209324600757658
mem,resp,684,1,mem1.1.3.bmp,mem1.1.1.bmp,mem1.3.3.bmp,ACC015,"[-3, -3, 3]","[-3, -3, -3]","[-3, 3, 3]",non-match,0.6061531498826483,1,1.5001249161225705,0.4280622249007245,-0.20818729568179234,4th,3rd,2nd,1.2467389823999189,0.253852332995441,-0.3039955996531794
mem,resp,620,1,mem2.3.3.bmp,mem1.3.1.bmp,mem3.1.3.bmp,ACC015,"[0, 3, 3]","[-3, 3, -3]","[3, -3, 3]",non-match,0.3545027756320972,1,0.3126312370128105,-0.04193797042385466,0.03048371378095401,3rd,3rd,3rd,0.32972128127514033,0.253852332995441,0.2301770448961853
mem,resp,623,1,mem2.1.2.bmp,mem2.2.2.bmp,mem1.2.1.bmp,ACC015,"[0, -3, 0]","[0, 0, 0]","[-3, 0, -3]",non-match,1.091751709536137,4,0.8440070267933051,-0.6550518713673688,0.09523618596736749,4th,2nd,3rd,1.2467389823999189,-0.3843457589774647,0.2301770448961853
mem,resp,596,0,mem2.3.2.bmp,mem2.2.1.bmp,mem1.2.3.bmp,ACC015,"[0, 3, 0]","[0, 0, -3]","[-3, 0, 3]",non-match,0.8545027756320972,2,0.02848585361330296,0.40903729265389505,0.16070820645245587,3rd,3rd,3rd,0.32972128127514033,0.253852332995441,0.2301770448961853
mem,resp,1010,1,mem3.3.2.bmp,mem1.3.3.bmp,mem3.2.1.bmp,ACC015,"[3, 3, 0]","[-3, 3, 3]","[3, 0, -3]",non-match,0.7257263057516985,2,-1.0373466761420331,-2.060633101802141,0.2755886488943382,1st,1st,3rd,-1.2718801764532661,-1.2024579749957074,0.2301770448961853
mem,resp,1160,1,mem1.2.2.bmp,mem3.3.1.bmp,mem2.1.3.bmp,ACC015,"[-3, 0, 0]","[3, 3, -3]","[0, -3, 3]",non-match,0.6339745962155614,1,0.5346227461366975,-0.9431049062295025,0.07673660260613135,3rd,1st,3rd,0.32972128127514033,-1.2024579749957074,0.2301770448961853
mem,resp,817,1,mem1.1.1.bmp,mem3.1.2.bmp,mem3.1.2.bmp,ACC015,"[-3, -3, -3]","[3, -3, 0]","[3, -3, 0]",match,1.3545027756320973,,-1.0911236411124865,0.2761089350291403,-0.30662443007955065,1st,3rd,2nd,-1.2718801764532661,0.253852332995441,-0.3039955996531794
mem,resp,780,1,mem1.3.1.bmp,mem2.2.3.bmp,mem2.2.2.bmp,ACC015,"[-3, 3, -3]","[0, 0, 3]","[0, 0, 0]",non-match,1.2113248654051871,4,-0.46968296076663635,-1.1569731850107337,-0.10702687356683394,2nd,1st,2nd,-0.3042535782081131,-1.2024579749957074,-0.3039955996531794
mem,resp,868,1,mem3.2.3.bmp,mem1.2.3.bmp,mem1.2.3.bmp,ACC015,"[3, 0, 3]","[-3, 0, 3]","[-3, 0, 3]",match,1.4226497308103743,,0.2044891702826838,0.7491482485416346,-0.1136168650618863,3rd,4th,2nd,0.32972128127514033,1.3312784083369367,-0.3039955996531794
mem,resp,1097,1,mem1.3.3.bmp,mem2.3.1.bmp,mem3.1.2.bmp,ACC015,"[-3, 3, 3]","[0, 3, -3]","[3, -3, 0]",non-match,0.42686781502901383,1,-0.4903657858016718,-1.235707038639348,-0.31956562659765564,2nd,1st,2nd,-0.3042535782081131,-1.2024579749957074,-0.3039955996531794
mem,resp,843,1,mem2.1.1.bmp,mem1.2.1.bmp,mem2.1.1.bmp,ACC015,"[0, -3, -3]","[-3, 0, -3]","[0, -3, -3]",match,1.591751709536137,,-1.0349841533985502,-1.4769401512920555,-0.3253931326855914,1st,1st,2nd,-1.2718801764532661,-1.2024579749957074,-0.3039955996531794
mem,resp,840,0,mem2.2.2.bmp,mem3.2.1.bmp,mem2.2.2.bmp,ACC015,"[0, 0, 0]","[3, 0, -3]","[0, 0, 0]",match,1.591751709536137,,-0.3660062812872594,-0.3391127089314988,-0.3858998274372429,2nd,2nd,2nd,-0.3042535782081131,-0.3843457589774647,-0.3039955996531794
mem,resp,856,1,mem1.2.3.bmp,mem1.1.2.bmp,mem1.3.2.bmp,ACC015,"[-3, 0, 3]","[-3, -3, 0]","[-3, 3, 0]",non-match,1.0144014403465114,3,-0.1378064467240364,0.14946414417340043,-0.5230173227589006,2nd,3rd,2nd,-0.3042535782081131,0.253852332995441,-0.3039955996531794
mem,resp,559,1,mem2.2.1.bmp,mem1.2.2.bmp,mem1.2.2.bmp,ACC015,"[0, 0, -3]","[-3, 0, 0]","[-3, 0, 0]",match,1.591751709536137,,-1.5637253262613897,-0.5135907832358818,-0.9692569172358929,1st,2nd,1st,-1.2718801764532661,-0.3843457589774647,-1.209324600757658
mem,resp,764,0,mem3.3.3.bmp,mem3.1.3.bmp,mem3.1.3.bmp,ACC015,"[3, 3, 3]","[3, -3, 3]","[3, -3, 3]",match,1.4226497308103743,,0.5404752448002437,-0.9699296059750059,-0.9228612863137737,3rd,1st,1st,0.32972128127514033,-1.2024579749957074,-1.209324600757658
mem,resp,608,1,mem2.2.3.bmp,mem3.1.1.bmp,mem3.1.1.bmp,ACC015,"[0, 0, 3]","[3, -3, -3]","[3, -3, -3]",match,1.2928932188134525,,0.8623051045565046,-0.4128485524566751,-0.8032058979186498,4th,2nd,1st,1.2467389823999189,-0.3843457589774647,-1.209324600757658
mem,resp,652,1,mem3.2.1.bmp,mem3.3.2.bmp,mem1.2.3.bmp,ACC015,"[3, 0, -3]","[3, 3, 0]","[-3, 0, 3]",non-match,0.4763966378857265,1,-0.29341859134871967,-0.5247440454044149,-0.8575754430413768,2nd,2nd,1st,-0.3042535782081131,-0.3843457589774647,-1.209324600757658
mem,resp,837,1,mem1.2.1.bmp,mem2.1.2.bmp,mem2.3.2.bmp,ACC015,"[-3, 0, -3]","[0, -3, 0]","[0, 3, 0]",non-match,0.9226497308103743,2,-1.1142303376812597,-1.305829122657474,-0.9188843610252286,1st,1st,1st,-1.2718801764532661,-1.2024579749957074,-1.209324600757658
mem,resp,592,1,mem1.3.2.bmp,mem2.1.1.bmp,mem2.1.1.bmp,ACC015,"[-3, 3, 0]","[0, -3, -3]","[0, -3, -3]",match,1.2928932188134525,,-0.1099717930554304,1.2351033609735855,-0.980170803025811,2nd,4th,1st,-0.3042535782081131,1.3312784083369367,-1.209324600757658
mem,resp,668,1,mem3.1.2.bmp,mem3.2.3.bmp,mem3.1.2.bmp,ACC015,"[3, -3, 0]","[3, 0, 3]","[3, -3, 0]",match,1.591751709536137,,0.7580580486593204,0.4330026474523606,-1.426364742409309,4th,3rd,1st,1.2467389823999189,0.253852332995441,-1.209324600757658
mem,resp,691,1,mem1.1.2.bmp,mem2.1.3.bmp,mem2.1.3.bmp,ACC015,"[-3, -3, 0]","[0, -3, 3]","[0, -3, 3]",match,1.591751709536137,,0.774103841834668,-0.06954218010658815,-1.6310134120326183,4th,2nd,1st,1.2467389823999189,-0.3843457589774647,-1.209324600757658
mem,resp,576,1,mem3.2.2.bmp,mem3.3.3.bmp,mem3.2.2.bmp,ACC015,"[3, 0, 0]","[3, 3, 3]","[3, 0, 0]",match,1.591751709536137,,0.23662915969326143,-0.5056019398272255,-1.7945315376926745,3rd,2nd,1st,0.32972128127514033,-0.3843457589774647,-1.209324600757658
mem,resp,1133,0,mem3.1.3.bmp,mem1.2.1.bmp,mem3.2.1.bmp,ACC015,"[3, -3, 3]","[-3, 0, -3]","[3, 0, -3]",non-match,0.7771525064424715,2,-1.353102631253635,-0.9051158617132827,-1.5243968853104124,1st,1st,1st,-1.2718801764532661,-1.2024579749957074,-1.209324600757658
mem,resp,841,1,mem3.1.1.bmp,mem1.2.2.bmp,mem3.3.2.bmp,ACC015,"[3, -3, -3]","[-3, 0, 0]","[3, 3, 0]",non-match,0.7090055512641944,2,0.34219650830322434,0.07865467854665194,-1.475494630437182,3rd,3rd,1st,0.32972128127514033,0.253852332995441,-1.209324600757658
mem,resp,1392,0,mem2.3.1.bmp,mem1.3.3.bmp,mem2.1.3.bmp,ACC015,"[0, 3, -3]","[-3, 3, 3]","[0, -3, 3]",non-match,0.5380061947043713,1,-0.5371920844220174,-2.3336567007983486,-1.4644905171193345,2nd,1st,1st,-0.3042535782081131,-1.2024579749957074,-1.209324600757658
mem,resp,698,0,mem2.3.3.bmp,mem3.1.2.bmp,mem1.3.1.bmp,ACC015,"[0, 3, 3]","[3, -3, 0]","[-3, 3, -3]",non-match,0.4884773718476586,1,0.26386866327410086,-0.20164864523667067,-1.4263414259226486,3rd,2nd,1st,0.32972128127514033,-0.3843457589774647,-1.209324600757658
mem,resp,821,0,mem1.3.2.bmp,mem2.2.2.bmp,mem2.2.3.bmp,ACC015,"[-3, 3, 0]","[0, 0, 0]","[0, 0, 3]",non-match,1.2113248654051871,4,1.019761895139298,0.6287978383879491,-1.5374135517524699,4th,4th,1st,1.2467389823999189,1.3312784083369367,-1.209324600757658
mem,resp,699,1,mem3.1.3.bmp,mem3.2.3.bmp,mem3.2.3.bmp,ACC015,"[3, -3, 3]","[3, 0, 3]","[3, 0, 3]",match,1.7113248654051871,,1.165324133539032,0.15217038129208874,-1.2884724744564326,4th,3rd,1st,1.2467389823999189,0.253852332995441,-1.209324600757658
mem,resp,671,1,mem3.2.2.bmp,mem2.1.3.bmp,mem3.2.2.bmp,ACC015,"[3, 0, 0]","[0, -3, 3]","[3, 0, 0]",match,1.5,,-1.2783527202546439,0.22773028680213045,-1.2719754397093566,1st,3rd,1st,-1.2718801764532661,0.253852332995441,-1.209324600757658
mem,resp,632,1,mem3.3.3.bmp,mem1.3.1.bmp,mem3.3.3.bmp,ACC015,"[3, 3, 3]","[-3, 3, -3]","[3, 3, 3]",match,1.1835034190722742,,-0.904333192678662,-0.2095372750546724,-1.5301151591880635,1st,2nd,1st,-1.2718801764532661,-0.3843457589774647,-1.209324600757658
mem,resp,919,0,mem1.2.3.bmp,mem3.3.1.bmp,mem3.3.1.bmp,ACC015,"[-3, 0, 3]","[3, 3, -3]","[3, 3, -3]",match,1.1339745962155614,,-0.6227129023242876,-0.920754269777381,-0.8860906675870001,2nd,1st,1st,-0.3042535782081131,-1.2024579749957074,-1.209324600757658
mem,resp,631,1,mem2.2.1.bmp,mem3.2.1.bmp,mem2.2.1.bmp,ACC015,"[0, 0, -3]","[3, 0, -3]","[0, 0, -3]",match,1.7113248654051871,,-0.13955882559954744,-0.5721451409515363,-0.9556446139289994,2nd,2nd,1st,-0.3042535782081131,-0.3843457589774647,-1.209324600757658
mem,resp,656,1,mem1.3.3.bmp,mem2.3.3.bmp,mem2.1.1.bmp,ACC015,"[-3, 3, 3]","[0, 3, 3]","[0, -3, -3]",non-match,0.3174780152878355,1,0.7486716939437412,-0.29593499157472775,-0.6102951188100162,4th,2nd,2nd,1.2467389823999189,-0.3843457589774647,-0.3039955996531794
mem,resp,801,1,mem2.3.2.bmp,mem3.1.1.bmp,mem3.2.2.bmp,ACC015,"[0, 3, 0]","[3, -3, -3]","[3, 0, 0]",non-match,1.1835034190722742,4,-0.8494114007739645,-0.5736393443950434,-0.7459026576457055,1st,2nd,1st,-1.2718801764532661,-0.3843457589774647,-1.209324600757658
mem,resp,1281,1,mem1.2.2.bmp,mem2.2.3.bmp,mem1.2.2.bmp,ACC015,"[-3, 0, 0]","[0, 0, 3]","[-3, 0, 0]",match,1.591751709536137,,-0.32155195817233717,0.039893747580158394,-0.6590789294100556,2nd,3rd,2nd,-0.3042535782081131,0.253852332995441,-0.3039955996531794
mem,resp,736,0,mem3.1.2.bmp,mem1.1.1.bmp,mem1.1.1.bmp,ACC015,"[3, -3, 0]","[-3, -3, -3]","[-3, -3, -3]",match,1.3545027756320973,,-0.8137728633914018,0.3103988420219419,0.05721953163670369,1st,3rd,3rd,-1.2718801764532661,0.253852332995441,0.2301770448961853
mem,resp,1428,1,mem2.2.2.bmp,mem1.3.2.bmp,mem1.3.2.bmp,ACC015,"[0, 0, 0]","[-3, 3, 0]","[-3, 3, 0]",match,1.591751709536137,,-1.2309625053424056,-0.1598992737995208,0.225778786547341,1st,2nd,3rd,-1.2718801764532661,-0.3843457589774647,0.2301770448961853
mem,resp,555,1,mem2.1.3.bmp,mem3.1.1.bmp,mem3.1.1.bmp,ACC015,"[0, -3, 3]","[3, -3, -3]","[3, -3, -3]",match,1.3545027756320973,,1.330450873936464,0.49961372111913616,-0.004834569285967852,4th,3rd,3rd,1.2467389823999189,0.253852332995441,0.2301770448961853
